File: Mixture_Classification/Jesse_Dataset_v2/Pure Raman/Polypropylene oxide/785nm/ps-ppo-6jan25-0,0000-map2_Y05_X07.txt
204.377	350
206.045	342
207.713	344
209.38	334
211.048	326
212.715	312
214.381	314
216.047	310
217.712	328
219.377	338
221.042	368
222.706	400
224.369	476
226.032	514
227.695	652
229.357	736
231.019	892
232.68	916
234.341	960
236.001	940
237.661	838
239.321	812
240.98	734
242.639	700
244.297	606
245.955	566
247.612	476
249.268	428
250.924	406
252.58	332
254.236	316
255.891	284
257.546	260
259.2	228
260.854	212
262.507	200
264.16	196
265.812	184
267.463	182
269.115	188
270.766	186
272.417	156
274.067	166
275.717	166
277.365	176
279.014	172
280.663	166
282.311	192
283.958	232
285.605	250
287.252	258
288.898	300
290.543	352
292.188	374
293.833	408
295.477	414
297.121	408
298.765	386
300.407	370
302.05	318
303.693	304
305.334	284
306.975	284
308.615	248
310.256	260
311.896	222
313.535	220
315.175	214
316.813	208
318.451	212
320.089	226
321.726	234
323.362	222
324.999	224
326.635	228
328.271	236
329.905	240
331.54	254
333.174	258
334.807	246
336.441	252
338.074	224
339.707	224
341.338	218
342.969	216
344.601	210
346.231	202
347.861	200
349.491	180
351.12	198
352.749	200
354.378	214
356.006	194
357.633	192
359.261	190
360.887	200
362.513	194
364.139	172
365.764	176
367.39	178
369.014	170
370.638	188
372.261	198
373.884	194
375.508	200
377.13	172
378.752	164
380.373	150
381.994	146
383.615	142
385.235	144
386.854	126
388.473	128
390.092	132
391.711	106
393.328	128
394.947	104
396.564	116
398.181	118
399.797	122
401.412	122
403.027	120
404.642	128
406.257	138
407.871	154
409.484	166
411.098	176
412.711	200
414.323	206
415.935	204
417.547	188
419.158	168
420.768	154
422.378	134
423.988	124
425.597	126
427.206	120
428.814	114
430.422	100
432.03	100
433.637	92
435.243	92
436.85	88
438.456	86
440.062	86
441.666	70
443.271	84
444.876	72
446.479	78
448.082	72
449.685	78
451.287	68
452.89	76
454.492	72
456.092	76
457.693	80
459.293	78
460.893	80
462.492	92
464.092	88
465.691	100
467.288	106
468.887	122
470.483	138
472.081	148
473.677	158
475.273	192
476.869	212
478.463	222
480.059	232
481.653	256
483.247	266
484.84	284
486.433	272
488.026	220
489.618	176
491.21	166
492.801	152
494.392	132
495.983	114
497.573	102
499.162	96
500.752	100
502.341	90
503.929	94
505.517	106
507.105	112
508.692	122
510.279	156
511.865	194
513.45	204
515.037	194
516.621	164
518.206	142
519.79	128
521.374	126
522.957	150
524.54	160
526.123	172
527.705	188
529.287	214
530.868	260
532.448	294
534.029	344
535.609	392
537.188	422
538.768	440
540.346	440
541.925	398
543.502	344
545.08	296
546.657	244
548.234	214
549.81	196
551.386	192
552.961	186
554.536	204
556.11	216
557.684	248
559.258	302
560.832	370
562.405	498
563.977	684
565.55	966
567.12	1420
568.692	1822
570.263	2262
571.833	2282
573.403	1850
574.973	1378
576.542	982
578.111	688
579.679	480
581.247	392
582.815	342
584.382	306
585.948	298
587.514	310
589.081	270
590.645	264
592.211	254
593.775	256
595.339	234
596.904	220
598.466	194
600.03	162
601.592	142
603.154	122
604.715	120
606.277	108
607.838	88
609.398	98
610.958	80
612.518	86
614.077	84
615.636	86
617.194	90
618.753	84
620.31	100
621.867	102
623.424	102
624.98	110
626.537	110
628.092	126
629.647	134
631.202	136
632.756	148
634.31	146
635.864	144
637.417	148
638.969	140
640.521	124
642.074	116
643.625	118
645.176	110
646.726	102
648.276	98
649.827	94
651.376	88
652.925	76
654.473	82
656.021	78
657.569	72
659.117	72
660.664	70
662.21	72
663.757	58
665.302	60
666.847	64
668.392	64
669.937	64
671.481	64
673.025	64
674.568	64
676.111	62
677.653	58
679.195	56
680.737	60
682.279	58
683.82	52
685.36	62
686.9	64
688.44	62
689.979	54
691.517	60
693.056	58
694.594	54
696.132	62
697.669	62
699.206	58
700.742	58
702.278	54
703.814	64
705.35	68
706.884	62
708.419	70
709.953	82
711.487	84
713.019	88
714.552	104
716.085	92
717.617	98
719.148	84
720.68	76
722.21	72
723.741	74
725.271	68
726.8	66
728.33	66
729.858	70
731.387	72
732.915	72
734.443	80
735.97	82
737.497	78
739.023	82
740.549	84
742.075	94
743.6	94
745.125	122
746.65	140
748.173	136
749.697	114
751.22	118
752.743	116
754.266	108
755.788	108
757.309	96
758.831	84
760.351	72
761.871	70
763.392	72
764.912	72
766.431	68
767.95	66
769.468	66
770.986	68
772.504	66
774.022	74
775.538	66
777.055	66
778.571	74
780.086	80
781.602	78
783.117	76
784.632	70
786.146	72
787.659	70
789.173	68
790.685	68
792.198	60
793.71	68
795.222	60
796.733	62
798.244	62
799.755	58
801.265	64
802.775	64
804.284	72
805.793	72
807.302	72
808.81	76
810.318	60
811.826	64
813.333	68
814.84	72
816.346	76
817.851	78
819.357	80
820.862	90
822.367	94
823.871	108
825.376	124
826.878	166
828.382	226
829.885	328
831.387	460
832.889	568
834.391	498
835.892	366
837.392	240
838.893	172
840.393	122
841.893	114
843.392	96
844.891	94
846.389	90
847.888	92
849.386	86
850.882	88
852.38	88
853.876	90
855.372	94
856.868	84
858.363	88
859.858	68
861.353	78
862.847	74
864.341	70
865.834	74
867.328	68
868.82	70
870.313	66
871.805	62
873.296	62
874.787	60
876.278	58
877.769	62
879.258	60
880.748	54
882.237	52
883.726	58
885.214	58
886.702	48
888.19	58
889.677	54
891.164	56
892.651	48
894.137	48
895.623	54
897.108	50
898.593	62
900.077	56
901.562	56
903.046	52
904.529	54
906.012	56
907.495	54
908.977	60
910.459	48
911.941	56
913.422	60
914.903	50
916.383	52
917.863	52
919.343	54
920.822	56
922.301	52
923.779	52
925.257	58
926.735	58
928.213	56
929.69	60
931.166	56
932.643	62
934.119	60
935.594	62
937.069	64
938.543	68
940.018	68
941.492	78
942.966	80
944.439	88
945.911	102
947.384	102
948.856	118
950.328	146
951.799	162
953.27	192
954.741	242
956.21	294
957.68	316
959.15	364
960.619	368
962.088	352
963.556	308
965.023	280
966.491	236
967.958	220
969.425	198
970.891	170
972.357	144
973.824	130
975.288	104
976.754	96
978.218	84
979.682	84
981.146	82
982.609	72
984.072	60
985.534	62
986.997	64
988.459	66
989.92	68
991.382	76
992.842	68
994.302	62
995.763	66
997.222	58
998.681	58
1000.14	66
1001.6	62
1003.06	56
1004.52	52
1005.97	58
1007.43	64
1008.89	54
1010.34	60
1011.8	58
1013.25	60
1014.71	66
1016.16	56
1017.62	62
1019.07	68
1020.53	74
1021.98	72
1023.43	76
1024.89	76
1026.34	82
1027.79	80
1029.24	88
1030.69	84
1032.14	98
1033.59	92
1035.04	94
1036.49	92
1037.94	96
1039.39	80
1040.84	84
1042.29	84
1043.73	90
1045.18	74
1046.63	72
1048.08	74
1049.52	72
1050.97	70
1052.41	66
1053.86	66
1055.3	60
1056.75	60
1058.19	68
1059.64	64
1061.08	58
1062.52	68
1063.96	62
1065.41	60
1066.85	60
1068.29	62
1069.73	56
1071.17	58
1072.61	60
1074.05	58
1075.49	56
1076.93	62
1078.37	56
1079.81	64
1081.25	52
1082.68	62
1084.12	66
1085.56	66
1087	58
1088.43	62
1089.87	72
1091.3	68
1092.74	70
1094.17	68
1095.61	66
1097.04	72
1098.48	70
1099.91	68
1101.34	80
1102.78	88
1104.21	84
1105.64	106
1107.07	140
1108.5	184
1109.93	248
1111.36	332
1112.8	340
1114.22	318
1115.65	240
1117.08	198
1118.51	152
1119.94	118
1121.37	106
1122.8	110
1124.22	88
1125.65	92
1127.08	82
1128.5	84
1129.93	84
1131.35	76
1132.78	78
1134.2	80
1135.63	84
1137.05	80
1138.48	86
1139.9	84
1141.32	84
1142.75	80
1144.17	76
1145.59	78
1147.01	72
1148.43	68
1149.85	76
1151.27	76
1152.69	66
1154.11	78
1155.53	80
1156.95	74
1158.37	78
1159.79	88
1161.21	88
1162.62	94
1164.04	80
1165.46	86
1166.87	82
1168.29	86
1169.71	84
1171.12	76
1172.54	84
1173.95	90
1175.37	94
1176.78	92
1178.19	112
1179.61	118
1181.02	138
1182.43	164
1183.84	202
1185.26	226
1186.67	232
1188.08	226
1189.49	200
1190.9	164
1192.31	156
1193.72	134
1195.13	148
1196.54	144
1197.95	142
1199.36	148
1200.76	178
1202.17	170
1203.58	170
1204.99	158
1206.39	144
1207.8	136
1209.2	124
1210.61	114
1212.01	100
1213.42	104
1214.82	92
1216.23	88
1217.63	80
1219.03	86
1220.44	84
1221.84	92
1223.24	88
1224.64	94
1226.05	112
1227.45	122
1228.85	114
1230.25	134
1231.65	130
1233.05	120
1234.45	116
1235.85	108
1237.25	96
1238.64	96
1240.04	90
1241.44	86
1242.84	80
1244.23	84
1245.63	74
1247.03	86
1248.42	80
1249.82	86
1251.21	88
1252.61	82
1254	78
1255.4	78
1256.79	78
1258.19	88
1259.58	82
1260.97	86
1262.36	88
1263.76	90
1265.15	98
1266.54	86
1267.93	88
1269.32	102
1270.71	92
1272.1	88
1273.49	94
1274.88	102
1276.27	98
1277.66	106
1279.05	112
1280.43	120
1281.82	116
1283.21	130
1284.6	138
1285.98	134
1287.37	136
1288.75	150
1290.14	170
1291.53	158
1292.91	176
1294.29	200
1295.68	234
1297.06	288
1298.45	338
1299.83	406
1301.21	528
1302.59	614
1303.98	770
1305.36	752
1306.74	692
1308.12	624
1309.5	496
1310.88	392
1312.26	320
1313.64	286
1315.02	250
1316.4	236
1317.78	214
1319.16	194
1320.53	186
1321.91	178
1323.29	178
1324.67	180
1326.04	168
1327.42	178
1328.79	182
1330.17	176
1331.54	166
1332.92	156
1334.29	158
1335.67	142
1337.04	146
1338.42	146
1339.79	132
1341.16	146
1342.53	144
1343.91	148
1345.28	144
1346.65	162
1348.02	162
1349.39	160
1350.76	164
1352.13	170
1353.5	142
1354.87	144
1356.24	150
1357.61	150
1358.98	144
1360.34	136
1361.71	136
1363.08	150
1364.45	144
1365.81	146
1367.18	154
1368.54	166
1369.91	168
1371.28	182
1372.64	208
1374.01	274
1375.37	316
1376.73	374
1378.1	408
1379.46	390
1380.82	394
1382.19	378
1383.55	350
1384.91	298
1386.27	276
1387.63	226
1388.99	200
1390.35	174
1391.71	154
1393.07	150
1394.43	124
1395.79	134
1397.15	132
1398.51	136
1399.87	126
1401.23	136
1402.58	146
1403.94	134
1405.3	138
1406.65	144
1408.01	122
1409.37	132
1410.72	126
1412.08	140
1413.43	140
1414.79	142
1416.14	148
1417.49	148
1418.85	160
1420.2	154
1421.55	162
1422.91	172
1424.26	170
1425.61	174
1426.96	186
1428.31	178
1429.66	172
1431.01	184
1432.36	186
1433.71	190
1435.06	198
1436.41	188
1437.76	200
1439.11	216
1440.46	202
1441.81	200
1443.15	196
1444.5	188
1445.85	186
1447.19	186
1448.54	174
1449.89	174
1451.23	162
1452.58	166
1453.92	156
1455.27	162
1456.61	152
1457.95	164
1459.3	150
1460.64	154
1461.98	152
1463.33	140
1464.67	148
1466.01	160
1467.35	148
1468.69	134
1470.03	152
1471.37	144
1472.71	134
1474.05	150
1475.39	140
1476.73	138
1478.07	136
1479.41	140
1480.75	138
1482.09	132
1483.42	136
1484.76	116
1486.1	132
1487.43	130
1488.77	112
1490.11	108
1491.44	124
1492.78	126
1494.11	122
1495.45	110
1496.78	110
1498.12	114
1499.45	116
1500.78	110
1502.11	110
1503.45	102
1504.78	108
1506.11	110
1507.44	100
1508.77	110
1510.11	112
1511.44	112
1512.77	98
1514.1	114
1515.43	110
1516.76	102
1518.08	108
1519.41	110
1520.74	102
1522.07	108
1523.4	106
1524.72	106
1526.05	98
1527.38	104
1528.7	110
1530.03	104
1531.36	110
1532.68	104
1534.01	98
1535.33	102
1536.66	106
1537.98	108
1539.3	104
1540.63	108
1541.95	98
1543.27	106
1544.6	98
1545.92	110
1547.24	96
1548.56	104
1549.88	104
1551.2	100
1552.52	102
1553.84	116
1555.17	114
1556.48	106
1557.8	108
1559.12	106
1560.44	100
1561.76	108
1563.08	118
1564.4	112
1565.71	118
1567.03	118
1568.35	108
1569.66	112
1570.98	110
1572.29	122
1573.61	124
1574.93	126
1576.24	130
1577.55	134
1578.87	140
1580.18	142
1581.5	160
1582.81	150
1584.12	180
1585.43	188
1586.75	202
1588.06	228
1589.37	220
1590.68	252
1591.99	274
1593.3	310
1594.61	316
1595.92	362
1597.23	358
1598.54	412
1599.85	430
1601.16	466
1602.47	454
1603.78	458
1605.08	434
1606.39	396
1607.7	412
1609	362
1610.31	328
1611.62	328
1612.92	292
1614.23	270
1615.53	256
1616.84	224
1618.14	200
1619.45	186
1620.75	158
1622.06	156
1623.36	140
1624.66	130
1625.96	120
1627.27	118
1628.57	120
1629.87	114
1631.17	106
1632.47	104
1633.77	92
1635.07	100
1636.37	100
1637.67	76
1638.97	96
1640.27	84
1641.57	90
1642.87	94
1644.17	86
1645.47	86
1646.76	80
1648.06	88
1649.36	82
1650.66	80
1651.95	84
1653.25	74
1654.54	82
1655.84	76
1657.13	86
1658.43	88
1659.72	90
1661.02	80
1662.31	78
1663.6	70
1664.9	76
1666.19	80
1667.48	84
1668.78	82
1670.07	72
1671.36	74
1672.65	74
1673.94	76
1675.23	80
1676.52	78
1677.81	78
1679.1	78
1680.39	76
1681.68	76
1682.97	76
1684.26	78
1685.55	80
1686.83	78
1688.12	84
1689.41	78
1690.7	64
1691.98	78
1693.27	74
1694.55	84
1695.84	82
1697.13	80
1698.41	74
1699.69	80
1700.98	80
1702.26	70