File: Mixture_Classification/Jesse_Dataset_v2/Pure Raman/Polypropylene oxide/785nm/ps-ppo-6jan25-0,0000-map2_Y07_X02.txt
204.377	390
206.045	378
207.713	362
209.38	374
211.048	332
212.715	342
214.381	330
216.047	318
217.712	332
219.377	348
221.042	376
222.706	418
224.369	476
226.032	568
227.695	666
229.357	788
231.019	912
232.68	980
234.341	978
236.001	972
237.661	908
239.321	848
240.98	790
242.639	722
244.297	612
245.955	572
247.612	490
249.268	446
250.924	392
252.58	358
254.236	338
255.891	276
257.546	282
259.2	252
260.854	232
262.507	226
264.16	194
265.812	196
267.463	186
269.115	188
270.766	176
272.417	168
274.067	190
275.717	182
277.365	186
279.014	192
280.663	196
282.311	218
283.958	250
285.605	258
287.252	292
288.898	344
290.543	364
292.188	404
293.833	426
295.477	426
297.121	436
298.765	410
300.407	392
302.05	346
303.693	320
305.334	304
306.975	310
308.615	264
310.256	278
311.896	260
313.535	242
315.175	236
316.813	212
318.451	236
320.089	226
321.726	224
323.362	238
324.999	242
326.635	258
328.271	254
329.905	248
331.54	264
333.174	268
334.807	256
336.441	272
338.074	244
339.707	248
341.338	248
342.969	214
344.601	222
346.231	208
347.861	224
349.491	210
351.12	214
352.749	210
354.378	222
356.006	212
357.633	206
359.261	204
360.887	194
362.513	180
364.139	188
365.764	184
367.39	182
369.014	198
370.638	188
372.261	194
373.884	202
375.508	188
377.13	166
378.752	174
380.373	174
381.994	146
383.615	146
385.235	150
386.854	146
388.473	136
390.092	146
391.711	122
393.328	126
394.947	128
396.564	134
398.181	126
399.797	126
401.412	130
403.027	138
404.642	142
406.257	142
407.871	158
409.484	176
411.098	188
412.711	208
414.323	214
415.935	214
417.547	202
419.158	186
420.768	158
422.378	152
423.988	140
425.597	132
427.206	116
428.814	114
430.422	102
432.03	106
433.637	102
435.243	104
436.85	88
438.456	96
440.062	88
441.666	90
443.271	86
444.876	88
446.479	82
448.082	78
449.685	82
451.287	74
452.89	92
454.492	90
456.092	80
457.693	86
459.293	92
460.893	86
462.492	92
464.092	92
465.691	104
467.288	116
468.887	126
470.483	146
472.081	154
473.677	162
475.273	180
476.869	224
478.463	224
480.059	236
481.653	270
483.247	280
484.84	304
486.433	294
488.026	236
489.618	210
491.21	170
492.801	156
494.392	134
495.983	140
497.573	104
499.162	100
500.752	104
502.341	104
503.929	88
505.517	100
507.105	112
508.692	144
510.279	158
511.865	212
513.45	222
515.037	204
516.621	166
518.206	166
519.79	144
521.374	146
522.957	164
524.54	172
526.123	178
527.705	204
529.287	228
530.868	262
532.448	312
534.029	348
535.609	388
537.188	428
538.768	448
540.346	442
541.925	426
543.502	352
545.08	302
546.657	254
548.234	226
549.81	218
551.386	184
552.961	202
554.536	216
556.11	234
557.684	268
559.258	314
560.832	406
562.405	524
563.977	744
565.55	1022
567.12	1414
568.692	1940
570.263	2340
571.833	2308
573.403	1966
574.973	1476
576.542	984
578.111	686
579.679	492
581.247	386
582.815	356
584.382	326
585.948	340
587.514	330
589.081	300
590.645	272
592.211	258
593.775	260
595.339	256
596.904	234
598.466	206
600.03	182
601.592	140
603.154	140
604.715	124
606.277	110
607.838	108
609.398	98
610.958	100
612.518	90
614.077	94
615.636	98
617.194	88
618.753	96
620.31	96
621.867	102
623.424	106
624.98	122
626.537	136
628.092	134
629.647	132
631.202	150
632.756	148
634.31	156
635.864	156
637.417	160
638.969	156
640.521	136
642.074	132
643.625	126
645.176	114
646.726	106
648.276	114
649.827	96
651.376	86
652.925	90
654.473	92
656.021	84
657.569	84
659.117	80
660.664	70
662.21	72
663.757	72
665.302	64
666.847	66
668.392	60
669.937	70
671.481	60
673.025	64
674.568	66
676.111	64
677.653	64
679.195	64
680.737	60
682.279	58
683.82	60
685.36	60
686.9	62
688.44	64
689.979	68
691.517	66
693.056	58
694.594	72
696.132	60
697.669	62
699.206	62
700.742	62
702.278	60
703.814	66
705.35	66
706.884	74
708.419	72
709.953	82
711.487	90
713.019	102
714.552	98
716.085	108
717.617	104
719.148	90
720.68	84
722.21	82
723.741	78
725.271	72
726.8	74
728.33	90
729.858	86
731.387	76
732.915	82
734.443	84
735.97	80
737.497	84
739.023	92
740.549	94
742.075	104
743.6	118
745.125	122
746.65	140
748.173	132
749.697	140
751.22	124
752.743	124
754.266	122
755.788	114
757.309	110
758.831	96
760.351	82
761.871	78
763.392	78
764.912	72
766.431	72
767.95	62
769.468	72
770.986	76
772.504	70
774.022	76
775.538	86
777.055	82
778.571	84
780.086	80
781.602	84
783.117	78
784.632	76
786.146	74
787.659	76
789.173	74
790.685	70
792.198	74
793.71	72
795.222	66
796.733	74
798.244	66
799.755	66
801.265	68
802.775	74
804.284	76
805.793	76
807.302	76
808.81	72
810.318	78
811.826	76
813.333	74
814.84	76
816.346	78
817.851	82
819.357	92
820.862	92
822.367	94
823.871	112
825.376	136
826.878	186
828.382	228
829.885	346
831.387	498
832.889	568
834.391	528
835.892	360
837.392	246
838.893	174
840.393	126
841.893	116
843.392	112
844.891	100
846.389	98
847.888	104
849.386	94
850.882	98
852.38	94
853.876	88
855.372	92
856.868	82
858.363	88
859.858	78
861.353	86
862.847	84
864.341	72
865.834	68
867.328	66
868.82	58
870.313	68
871.805	66
873.296	66
874.787	66
876.278	62
877.769	62
879.258	68
880.748	64
882.237	64
883.726	60
885.214	58
886.702	52
888.19	62
889.677	66
891.164	64
892.651	56
894.137	62
895.623	64
897.108	54
898.593	56
900.077	54
901.562	58
903.046	52
904.529	64
906.012	62
907.495	58
908.977	64
910.459	54
911.941	58
913.422	56
914.903	58
916.383	60
917.863	50
919.343	52
920.822	64
922.301	60
923.779	54
925.257	64
926.735	64
928.213	62
929.69	58
931.166	64
932.643	62
934.119	74
935.594	74
937.069	72
938.543	72
940.018	68
941.492	82
942.966	80
944.439	90
945.911	106
947.384	120
948.856	140
950.328	142
951.799	176
953.27	198
954.741	260
956.21	294
957.68	348
959.15	360
960.619	392
962.088	368
963.556	336
965.023	302
966.491	256
967.958	218
969.425	194
970.891	174
972.357	150
973.824	130
975.288	118
976.754	108
978.218	102
979.682	80
981.146	96
982.609	76
984.072	82
985.534	72
986.997	70
988.459	78
989.92	80
991.382	78
992.842	68
994.302	64
995.763	62
997.222	60
998.681	66
1000.14	66
1001.6	66
1003.06	56
1004.52	64
1005.97	70
1007.43	68
1008.89	64
1010.34	66
1011.8	68
1013.25	64
1014.71	68
1016.16	66
1017.62	72
1019.07	72
1020.53	72
1021.98	82
1023.43	82
1024.89	82
1026.34	80
1027.79	84
1029.24	88
1030.69	102
1032.14	96
1033.59	94
1035.04	100
1036.49	96
1037.94	98
1039.39	96
1040.84	104
1042.29	90
1043.73	84
1045.18	82
1046.63	76
1048.08	80
1049.52	76
1050.97	72
1052.41	72
1053.86	74
1055.3	74
1056.75	68
1058.19	70
1059.64	68
1061.08	64
1062.52	68
1063.96	66
1065.41	64
1066.85	64
1068.29	62
1069.73	68
1071.17	64
1072.61	58
1074.05	68
1075.49	64
1076.93	52
1078.37	70
1079.81	64
1081.25	70
1082.68	66
1084.12	68
1085.56	70
1087	70
1088.43	56
1089.87	66
1091.3	62
1092.74	70
1094.17	76
1095.61	66
1097.04	66
1098.48	70
1099.91	80
1101.34	74
1102.78	88
1104.21	98
1105.64	116
1107.07	142
1108.5	202
1109.93	258
1111.36	310
1112.8	358
1114.22	322
1115.65	260
1117.08	192
1118.51	158
1119.94	130
1121.37	110
1122.8	100
1124.22	104
1125.65	92
1127.08	96
1128.5	96
1129.93	92
1131.35	84
1132.78	88
1134.2	80
1135.63	78
1137.05	84
1138.48	80
1139.9	90
1141.32	94
1142.75	84
1144.17	88
1145.59	86
1147.01	84
1148.43	74
1149.85	70
1151.27	74
1152.69	70
1154.11	76
1155.53	68
1156.95	76
1158.37	92
1159.79	92
1161.21	98
1162.62	100
1164.04	92
1165.46	90
1166.87	92
1168.29	78
1169.71	84
1171.12	92
1172.54	82
1173.95	94
1175.37	106
1176.78	102
1178.19	110
1179.61	128
1181.02	154
1182.43	186
1183.84	200
1185.26	224
1186.67	242
1188.08	226
1189.49	202
1190.9	188
1192.31	150
1193.72	156
1195.13	154
1196.54	138
1197.95	138
1199.36	170
1200.76	168
1202.17	168
1203.58	174
1204.99	152
1206.39	156
1207.8	146
1209.2	132
1210.61	126
1212.01	112
1213.42	94
1214.82	94
1216.23	90
1217.63	92
1219.03	84
1220.44	90
1221.84	94
1223.24	98
1224.64	98
1226.05	120
1227.45	120
1228.85	128
1230.25	136
1231.65	122
1233.05	122
1234.45	126
1235.85	108
1237.25	96
1238.64	104
1240.04	90
1241.44	84
1242.84	74
1244.23	94
1245.63	90
1247.03	74
1248.42	86
1249.82	90
1251.21	90
1252.61	86
1254	80
1255.4	88
1256.79	88
1258.19	88
1259.58	88
1260.97	96
1262.36	92
1263.76	102
1265.15	92
1266.54	90
1267.93	98
1269.32	94
1270.71	96
1272.1	100
1273.49	102
1274.88	104
1276.27	108
1277.66	114
1279.05	112
1280.43	122
1281.82	128
1283.21	128
1284.6	140
1285.98	154
1287.37	148
1288.75	160
1290.14	158
1291.53	170
1292.91	182
1294.29	210
1295.68	248
1297.06	296
1298.45	352
1299.83	432
1301.21	520
1302.59	650
1303.98	794
1305.36	780
1306.74	722
1308.12	646
1309.5	514
1310.88	408
1312.26	332
1313.64	304
1315.02	264
1316.4	252
1317.78	216
1319.16	208
1320.53	194
1321.91	190
1323.29	196
1324.67	172
1326.04	190
1327.42	182
1328.79	178
1330.17	176
1331.54	178
1332.92	170
1334.29	168
1335.67	150
1337.04	154
1338.42	154
1339.79	146
1341.16	146
1342.53	146
1343.91	164
1345.28	168
1346.65	162
1348.02	164
1349.39	164
1350.76	172
1352.13	170
1353.5	158
1354.87	162
1356.24	164
1357.61	152
1358.98	158
1360.34	148
1361.71	154
1363.08	148
1364.45	146
1365.81	154
1367.18	150
1368.54	174
1369.91	158
1371.28	194
1372.64	228
1374.01	282
1375.37	350
1376.73	378
1378.1	414
1379.46	430
1380.82	424
1382.19	398
1383.55	354
1384.91	318
1386.27	262
1387.63	228
1388.99	188
1390.35	178
1391.71	152
1393.07	146
1394.43	146
1395.79	138
1397.15	130
1398.51	144
1399.87	140
1401.23	140
1402.58	144
1403.94	134
1405.3	134
1406.65	128
1408.01	140
1409.37	136
1410.72	136
1412.08	138
1413.43	144
1414.79	148
1416.14	162
1417.49	146
1418.85	158
1420.2	150
1421.55	164
1422.91	164
1424.26	176
1425.61	174
1426.96	194
1428.31	188
1429.66	192
1431.01	196
1432.36	200
1433.71	196
1435.06	200
1436.41	210
1437.76	228
1439.11	218
1440.46	212
1441.81	214
1443.15	204
1444.5	198
1445.85	190
1447.19	184
1448.54	182
1449.89	170
1451.23	178
1452.58	172
1453.92	164
1455.27	156
1456.61	158
1457.95	156
1459.3	148
1460.64	170
1461.98	162
1463.33	156
1464.67	152
1466.01	156
1467.35	150
1468.69	156
1470.03	144
1471.37	146
1472.71	136
1474.05	146
1475.39	142
1476.73	154
1478.07	142
1479.41	142
1480.75	142
1482.09	136
1483.42	136
1484.76	136
1486.1	140
1487.43	132
1488.77	120
1490.11	120
1491.44	124
1492.78	116
1494.11	124
1495.45	128
1496.78	118
1498.12	118
1499.45	120
1500.78	116
1502.11	120
1503.45	116
1504.78	114
1506.11	122
1507.44	120
1508.77	110
1510.11	104
1511.44	116
1512.77	112
1514.1	116
1515.43	116
1516.76	114
1518.08	102
1519.41	112
1520.74	116
1522.07	112
1523.4	104
1524.72	104
1526.05	116
1527.38	106
1528.7	106
1530.03	112
1531.36	114
1532.68	106
1534.01	124
1535.33	114
1536.66	102
1537.98	106
1539.3	106
1540.63	110
1541.95	112
1543.27	108
1544.6	104
1545.92	106
1547.24	100
1548.56	112
1549.88	100
1551.2	100
1552.52	110
1553.84	116
1555.17	106
1556.48	110
1557.8	118
1559.12	108
1560.44	110
1561.76	110
1563.08	106
1564.4	122
1565.71	112
1567.03	108
1568.35	112
1569.66	112
1570.98	114
1572.29	114
1573.61	124
1574.93	122
1576.24	138
1577.55	138
1578.87	152
1580.18	154
1581.5	150
1582.81	166
1584.12	176
1585.43	178
1586.75	202
1588.06	216
1589.37	244
1590.68	248
1591.99	278
1593.3	322
1594.61	310
1595.92	374
1597.23	400
1598.54	422
1599.85	474
1601.16	466
1602.47	470
1603.78	472
1605.08	444
1606.39	416
1607.7	390
1609	346
1610.31	342
1611.62	318
1612.92	300
1614.23	286
1615.53	238
1616.84	242
1618.14	196
1619.45	182
1620.75	168
1622.06	158
1623.36	152
1624.66	136
1625.96	128
1627.27	112
1628.57	114
1629.87	118
1631.17	102
1632.47	112
1633.77	108
1635.07	92
1636.37	98
1637.67	98
1638.97	94
1640.27	100
1641.57	94
1642.87	90
1644.17	88
1645.47	88
1646.76	86
1648.06	94
1649.36	88
1650.66	86
1651.95	88
1653.25	80
1654.54	82
1655.84	86
1657.13	82
1658.43	84
1659.72	74
1661.02	84
1662.31	78
1663.6	80
1664.9	78
1666.19	78
1667.48	74
1668.78	74
1670.07	82
1671.36	76
1672.65	86
1673.94	76
1675.23	80
1676.52	86
1677.81	70
1679.1	76
1680.39	80
1681.68	82
1682.97	82
1684.26	78
1685.55	78
1686.83	82
1688.12	86
1689.41	82
1690.7	78
1691.98	80
1693.27	82
1694.55	78
1695.84	76
1697.13	76
1698.41	78
1699.69	78
1700.98	84
1702.26	76