File: Mixture_Classification/Jesse_Dataset_v2/Pure Raman/Polypropylene oxide/785nm/ps-ppo-6jan25-0,0000-map2_Y06_X07.txt
204.377	372
206.045	364
207.713	372
209.38	342
211.048	318
212.715	338
214.381	318
216.047	334
217.712	324
219.377	358
221.042	368
222.706	416
224.369	478
226.032	572
227.695	650
229.357	800
231.019	902
232.68	992
234.341	980
236.001	950
237.661	908
239.321	848
240.98	762
242.639	698
244.297	664
245.955	590
247.612	528
249.268	444
250.924	394
252.58	384
254.236	322
255.891	290
257.546	270
259.2	250
260.854	222
262.507	220
264.16	200
265.812	192
267.463	192
269.115	186
270.766	170
272.417	176
274.067	168
275.717	180
277.365	168
279.014	190
280.663	182
282.311	214
283.958	216
285.605	258
287.252	264
288.898	324
290.543	376
292.188	412
293.833	438
295.477	428
297.121	428
298.765	406
300.407	378
302.05	362
303.693	318
305.334	300
306.975	302
308.615	280
310.256	246
311.896	250
313.535	238
315.175	228
316.813	234
318.451	234
320.089	220
321.726	230
323.362	226
324.999	222
326.635	228
328.271	238
329.905	254
331.54	258
333.174	252
334.807	276
336.441	242
338.074	240
339.707	222
341.338	214
342.969	210
344.601	214
346.231	198
347.861	196
349.491	216
351.12	214
352.749	208
354.378	210
356.006	216
357.633	214
359.261	196
360.887	190
362.513	188
364.139	188
365.764	194
367.39	182
369.014	198
370.638	206
372.261	200
373.884	186
375.508	182
377.13	172
378.752	170
380.373	158
381.994	162
383.615	142
385.235	134
386.854	122
388.473	132
390.092	122
391.711	128
393.328	130
394.947	122
396.564	128
398.181	124
399.797	132
401.412	126
403.027	124
404.642	116
406.257	136
407.871	148
409.484	164
411.098	184
412.711	198
414.323	214
415.935	202
417.547	202
419.158	168
420.768	162
422.378	152
423.988	130
425.597	128
427.206	112
428.814	104
430.422	110
432.03	104
433.637	96
435.243	90
436.85	88
438.456	90
440.062	90
441.666	82
443.271	76
444.876	78
446.479	72
448.082	66
449.685	72
451.287	74
452.89	74
454.492	72
456.092	74
457.693	76
459.293	76
460.893	80
462.492	82
464.092	90
465.691	102
467.288	122
468.887	118
470.483	142
472.081	152
473.677	170
475.273	178
476.869	204
478.463	226
480.059	238
481.653	250
483.247	286
484.84	288
486.433	266
488.026	212
489.618	204
491.21	168
492.801	158
494.392	140
495.983	122
497.573	110
499.162	102
500.752	86
502.341	96
503.929	88
505.517	104
507.105	114
508.692	120
510.279	160
511.865	198
513.45	222
515.037	194
516.621	178
518.206	152
519.79	150
521.374	134
522.957	160
524.54	166
526.123	176
527.705	198
529.287	214
530.868	252
532.448	302
534.029	326
535.609	390
537.188	430
538.768	410
540.346	428
541.925	422
543.502	354
545.08	314
546.657	256
548.234	222
549.81	210
551.386	174
552.961	200
554.536	208
556.11	230
557.684	242
559.258	306
560.832	392
562.405	504
563.977	698
565.55	994
567.12	1452
568.692	1900
570.263	2328
571.833	2352
573.403	1974
574.973	1410
576.542	1010
578.111	670
579.679	504
581.247	400
582.815	356
584.382	348
585.948	336
587.514	300
589.081	292
590.645	280
592.211	276
593.775	264
595.339	246
596.904	224
598.466	198
600.03	170
601.592	146
603.154	134
604.715	110
606.277	106
607.838	100
609.398	98
610.958	88
612.518	84
614.077	96
615.636	90
617.194	92
618.753	96
620.31	98
621.867	100
623.424	106
624.98	102
626.537	104
628.092	118
629.647	132
631.202	130
632.756	150
634.31	158
635.864	140
637.417	150
638.969	146
640.521	138
642.074	116
643.625	114
645.176	118
646.726	94
648.276	96
649.827	92
651.376	96
652.925	88
654.473	80
656.021	84
657.569	76
659.117	86
660.664	72
662.21	66
663.757	64
665.302	60
666.847	54
668.392	64
669.937	66
671.481	60
673.025	64
674.568	52
676.111	58
677.653	52
679.195	52
680.737	64
682.279	54
683.82	62
685.36	64
686.9	56
688.44	54
689.979	56
691.517	56
693.056	56
694.594	56
696.132	56
697.669	60
699.206	54
700.742	62
702.278	56
703.814	64
705.35	68
706.884	68
708.419	62
709.953	72
711.487	80
713.019	96
714.552	100
716.085	94
717.617	90
719.148	82
720.68	78
722.21	80
723.741	76
725.271	68
726.8	76
728.33	72
729.858	80
731.387	72
732.915	76
734.443	78
735.97	82
737.497	76
739.023	88
740.549	90
742.075	98
743.6	110
745.125	116
746.65	132
748.173	138
749.697	132
751.22	118
752.743	120
754.266	120
755.788	116
757.309	102
758.831	84
760.351	82
761.871	74
763.392	68
764.912	56
766.431	64
767.95	62
769.468	74
770.986	70
772.504	60
774.022	72
775.538	70
777.055	76
778.571	78
780.086	78
781.602	64
783.117	68
784.632	68
786.146	72
787.659	76
789.173	66
790.685	62
792.198	68
793.71	64
795.222	66
796.733	64
798.244	62
799.755	62
801.265	68
802.775	70
804.284	70
805.793	66
807.302	72
808.81	72
810.318	70
811.826	72
813.333	68
814.84	76
816.346	76
817.851	74
819.357	86
820.862	90
822.367	92
823.871	114
825.376	128
826.878	166
828.382	236
829.885	320
831.387	468
832.889	582
834.391	546
835.892	396
837.392	240
838.893	164
840.393	132
841.893	112
843.392	98
844.891	100
846.389	100
847.888	102
849.386	92
850.882	92
852.38	90
853.876	86
855.372	86
856.868	84
858.363	76
859.858	82
861.353	76
862.847	74
864.341	76
865.834	68
867.328	74
868.82	64
870.313	68
871.805	60
873.296	62
874.787	60
876.278	62
877.769	64
879.258	64
880.748	62
882.237	62
883.726	62
885.214	58
886.702	56
888.19	54
889.677	52
891.164	58
892.651	58
894.137	64
895.623	56
897.108	50
898.593	60
900.077	60
901.562	54
903.046	58
904.529	52
906.012	54
907.495	56
908.977	50
910.459	54
911.941	50
913.422	58
914.903	58
916.383	54
917.863	52
919.343	58
920.822	58
922.301	64
923.779	60
925.257	56
926.735	50
928.213	64
929.69	62
931.166	62
932.643	62
934.119	64
935.594	68
937.069	60
938.543	56
940.018	80
941.492	76
942.966	88
944.439	90
945.911	96
947.384	112
948.856	120
950.328	142
951.799	168
953.27	204
954.741	246
956.21	300
957.68	316
959.15	388
960.619	372
962.088	372
963.556	314
965.023	276
966.491	258
967.958	226
969.425	206
970.891	184
972.357	162
973.824	134
975.288	110
976.754	104
978.218	88
979.682	80
981.146	74
982.609	76
984.072	70
985.534	70
986.997	70
988.459	78
989.92	74
991.382	70
992.842	64
994.302	66
995.763	62
997.222	64
998.681	60
1000.14	66
1001.6	66
1003.06	58
1004.52	54
1005.97	58
1007.43	62
1008.89	66
1010.34	60
1011.8	62
1013.25	60
1014.71	66
1016.16	64
1017.62	64
1019.07	76
1020.53	76
1021.98	68
1023.43	82
1024.89	86
1026.34	84
1027.79	88
1029.24	84
1030.69	84
1032.14	98
1033.59	92
1035.04	92
1036.49	96
1037.94	92
1039.39	80
1040.84	92
1042.29	90
1043.73	80
1045.18	66
1046.63	82
1048.08	66
1049.52	62
1050.97	68
1052.41	68
1053.86	64
1055.3	58
1056.75	70
1058.19	64
1059.64	64
1061.08	62
1062.52	68
1063.96	54
1065.41	66
1066.85	54
1068.29	56
1069.73	58
1071.17	56
1072.61	62
1074.05	64
1075.49	66
1076.93	62
1078.37	64
1079.81	60
1081.25	60
1082.68	66
1084.12	72
1085.56	54
1087	62
1088.43	68
1089.87	60
1091.3	68
1092.74	60
1094.17	66
1095.61	70
1097.04	68
1098.48	64
1099.91	74
1101.34	80
1102.78	82
1104.21	96
1105.64	112
1107.07	144
1108.5	188
1109.93	256
1111.36	328
1112.8	364
1114.22	302
1115.65	250
1117.08	186
1118.51	152
1119.94	130
1121.37	102
1122.8	98
1124.22	98
1125.65	90
1127.08	86
1128.5	96
1129.93	84
1131.35	78
1132.78	82
1134.2	82
1135.63	72
1137.05	72
1138.48	86
1139.9	78
1141.32	84
1142.75	86
1144.17	82
1145.59	82
1147.01	62
1148.43	76
1149.85	74
1151.27	66
1152.69	70
1154.11	72
1155.53	82
1156.95	84
1158.37	84
1159.79	86
1161.21	86
1162.62	90
1164.04	88
1165.46	88
1166.87	84
1168.29	94
1169.71	82
1171.12	88
1172.54	88
1173.95	92
1175.37	98
1176.78	92
1178.19	122
1179.61	122
1181.02	144
1182.43	164
1183.84	186
1185.26	238
1186.67	236
1188.08	222
1189.49	222
1190.9	176
1192.31	170
1193.72	166
1195.13	150
1196.54	160
1197.95	154
1199.36	162
1200.76	170
1202.17	174
1203.58	188
1204.99	166
1206.39	160
1207.8	140
1209.2	132
1210.61	110
1212.01	98
1213.42	98
1214.82	96
1216.23	88
1217.63	90
1219.03	90
1220.44	86
1221.84	94
1223.24	92
1224.64	98
1226.05	110
1227.45	120
1228.85	130
1230.25	134
1231.65	128
1233.05	120
1234.45	108
1235.85	94
1237.25	98
1238.64	92
1240.04	80
1241.44	74
1242.84	86
1244.23	82
1245.63	92
1247.03	86
1248.42	82
1249.82	82
1251.21	88
1252.61	88
1254	94
1255.4	86
1256.79	82
1258.19	80
1259.58	94
1260.97	84
1262.36	78
1263.76	92
1265.15	92
1266.54	98
1267.93	90
1269.32	92
1270.71	102
1272.1	100
1273.49	100
1274.88	102
1276.27	108
1277.66	112
1279.05	108
1280.43	116
1281.82	132
1283.21	136
1284.6	132
1285.98	146
1287.37	154
1288.75	148
1290.14	156
1291.53	180
1292.91	178
1294.29	208
1295.68	246
1297.06	290
1298.45	344
1299.83	414
1301.21	536
1302.59	660
1303.98	762
1305.36	788
1306.74	732
1308.12	624
1309.5	502
1310.88	414
1312.26	356
1313.64	312
1315.02	272
1316.4	222
1317.78	210
1319.16	214
1320.53	204
1321.91	192
1323.29	188
1324.67	180
1326.04	186
1327.42	180
1328.79	174
1330.17	164
1331.54	160
1332.92	154
1334.29	158
1335.67	152
1337.04	144
1338.42	150
1339.79	146
1341.16	148
1342.53	146
1343.91	160
1345.28	160
1346.65	160
1348.02	164
1349.39	160
1350.76	180
1352.13	168
1353.5	152
1354.87	164
1356.24	150
1357.61	150
1358.98	146
1360.34	146
1361.71	148
1363.08	146
1364.45	152
1365.81	156
1367.18	160
1368.54	172
1369.91	166
1371.28	198
1372.64	234
1374.01	298
1375.37	346
1376.73	386
1378.1	414
1379.46	428
1380.82	424
1382.19	398
1383.55	362
1384.91	336
1386.27	274
1387.63	226
1388.99	204
1390.35	178
1391.71	158
1393.07	154
1394.43	138
1395.79	138
1397.15	154
1398.51	132
1399.87	130
1401.23	122
1402.58	136
1403.94	136
1405.3	136
1406.65	128
1408.01	118
1409.37	128
1410.72	134
1412.08	136
1413.43	140
1414.79	146
1416.14	154
1417.49	152
1418.85	152
1420.2	152
1421.55	158
1422.91	172
1424.26	180
1425.61	174
1426.96	184
1428.31	186
1429.66	180
1431.01	188
1432.36	182
1433.71	200
1435.06	208
1436.41	204
1437.76	220
1439.11	212
1440.46	210
1441.81	202
1443.15	220
1444.5	202
1445.85	184
1447.19	178
1448.54	168
1449.89	176
1451.23	164
1452.58	162
1453.92	150
1455.27	168
1456.61	164
1457.95	156
1459.3	154
1460.64	154
1461.98	158
1463.33	160
1464.67	146
1466.01	146
1467.35	138
1468.69	154
1470.03	150
1471.37	142
1472.71	146
1474.05	128
1475.39	146
1476.73	142
1478.07	132
1479.41	142
1480.75	148
1482.09	140
1483.42	132
1484.76	132
1486.1	134
1487.43	132
1488.77	124
1490.11	108
1491.44	118
1492.78	120
1494.11	116
1495.45	120
1496.78	122
1498.12	114
1499.45	112
1500.78	116
1502.11	114
1503.45	110
1504.78	128
1506.11	106
1507.44	114
1508.77	112
1510.11	114
1511.44	112
1512.77	120
1514.1	112
1515.43	116
1516.76	106
1518.08	112
1519.41	110
1520.74	114
1522.07	108
1523.4	98
1524.72	112
1526.05	104
1527.38	106
1528.7	112
1530.03	106
1531.36	100
1532.68	108
1534.01	106
1535.33	96
1536.66	110
1537.98	100
1539.3	106
1540.63	102
1541.95	108
1543.27	96
1544.6	104
1545.92	114
1547.24	102
1548.56	96
1549.88	110
1551.2	110
1552.52	112
1553.84	106
1555.17	116
1556.48	112
1557.8	110
1559.12	116
1560.44	102
1561.76	112
1563.08	106
1564.4	106
1565.71	110
1567.03	108
1568.35	118
1569.66	126
1570.98	116
1572.29	116
1573.61	128
1574.93	120
1576.24	140
1577.55	130
1578.87	128
1580.18	166
1581.5	152
1582.81	166
1584.12	182
1585.43	180
1586.75	204
1588.06	214
1589.37	236
1590.68	248
1591.99	290
1593.3	296
1594.61	328
1595.92	356
1597.23	406
1598.54	424
1599.85	450
1601.16	478
1602.47	484
1603.78	474
1605.08	456
1606.39	428
1607.7	396
1609	394
1610.31	370
1611.62	336
1612.92	300
1614.23	282
1615.53	274
1616.84	210
1618.14	208
1619.45	180
1620.75	170
1622.06	150
1623.36	146
1624.66	136
1625.96	128
1627.27	124
1628.57	116
1629.87	110
1631.17	114
1632.47	92
1633.77	108
1635.07	96
1636.37	96
1637.67	98
1638.97	94
1640.27	90
1641.57	96
1642.87	82
1644.17	86
1645.47	88
1646.76	76
1648.06	82
1649.36	88
1650.66	88
1651.95	82
1653.25	84
1654.54	88
1655.84	82
1657.13	82
1658.43	86
1659.72	74
1661.02	86
1662.31	72
1663.6	82
1664.9	70
1666.19	76
1667.48	82
1668.78	82
1670.07	72
1671.36	68
1672.65	76
1673.94	76
1675.23	70
1676.52	78
1677.81	76
1679.1	80
1680.39	78
1681.68	74
1682.97	82
1684.26	72
1685.55	76
1686.83	88
1688.12	80
1689.41	72
1690.7	84
1691.98	70
1693.27	78
1694.55	78
1695.84	76
1697.13	82
1698.41	82
1699.69	72
1700.98	80
1702.26	80