File: Mixture_Classification/Jesse_Dataset_v2/Pure Raman/Polypropylene oxide/785nm/ps-ppo-6jan25-0,0000-map2_Y09_X08.txt
204.377	368
206.045	346
207.713	344
209.38	332
211.048	328
212.715	300
214.381	318
216.047	320
217.712	318
219.377	330
221.042	366
222.706	408
224.369	450
226.032	552
227.695	646
229.357	752
231.019	838
232.68	922
234.341	954
236.001	904
237.661	852
239.321	788
240.98	730
242.639	674
244.297	596
245.955	530
247.612	492
249.268	444
250.924	372
252.58	338
254.236	314
255.891	266
257.546	254
259.2	248
260.854	214
262.507	202
264.16	192
265.812	210
267.463	188
269.115	184
270.766	174
272.417	172
274.067	168
275.717	164
277.365	182
279.014	164
280.663	194
282.311	206
283.958	220
285.605	244
287.252	278
288.898	322
290.543	364
292.188	388
293.833	410
295.477	414
297.121	418
298.765	400
300.407	368
302.05	344
303.693	304
305.334	296
306.975	272
308.615	266
310.256	258
311.896	244
313.535	226
315.175	222
316.813	212
318.451	224
320.089	224
321.726	222
323.362	218
324.999	230
326.635	230
328.271	234
329.905	228
331.54	258
333.174	218
334.807	258
336.441	270
338.074	236
339.707	220
341.338	234
342.969	206
344.601	192
346.231	204
347.861	198
349.491	204
351.12	194
352.749	212
354.378	202
356.006	198
357.633	202
359.261	194
360.887	200
362.513	178
364.139	170
365.764	194
367.39	182
369.014	180
370.638	166
372.261	194
373.884	192
375.508	176
377.13	164
378.752	150
380.373	148
381.994	138
383.615	144
385.235	130
386.854	142
388.473	124
390.092	116
391.711	128
393.328	128
394.947	120
396.564	120
398.181	126
399.797	116
401.412	132
403.027	132
404.642	130
406.257	142
407.871	142
409.484	160
411.098	182
412.711	188
414.323	206
415.935	188
417.547	184
419.158	166
420.768	140
422.378	154
423.988	124
425.597	126
427.206	116
428.814	104
430.422	108
432.03	94
433.637	94
435.243	96
436.85	82
438.456	86
440.062	80
441.666	80
443.271	70
444.876	80
446.479	76
448.082	72
449.685	70
451.287	70
452.89	74
454.492	68
456.092	78
457.693	86
459.293	86
460.893	80
462.492	84
464.092	90
465.691	106
467.288	106
468.887	118
470.483	136
472.081	144
473.677	156
475.273	176
476.869	184
478.463	226
480.059	234
481.653	250
483.247	270
484.84	290
486.433	276
488.026	218
489.618	184
491.21	170
492.801	148
494.392	148
495.983	116
497.573	106
499.162	92
500.752	92
502.341	98
503.929	92
505.517	108
507.105	96
508.692	122
510.279	148
511.865	198
513.45	210
515.037	184
516.621	162
518.206	158
519.79	142
521.374	144
522.957	142
524.54	160
526.123	180
527.705	192
529.287	228
530.868	256
532.448	290
534.029	336
535.609	388
537.188	430
538.768	414
540.346	422
541.925	408
543.502	352
545.08	298
546.657	240
548.234	198
549.81	186
551.386	188
552.961	170
554.536	204
556.11	204
557.684	242
559.258	292
560.832	368
562.405	500
563.977	694
565.55	988
567.12	1400
568.692	1926
570.263	2254
571.833	2212
573.403	1876
574.973	1352
576.542	940
578.111	650
579.679	480
581.247	378
582.815	334
584.382	330
585.948	312
587.514	300
589.081	280
590.645	258
592.211	252
593.775	244
595.339	218
596.904	222
598.466	200
600.03	174
601.592	144
603.154	128
604.715	102
606.277	92
607.838	96
609.398	94
610.958	84
612.518	84
614.077	76
615.636	88
617.194	90
618.753	84
620.31	90
621.867	104
623.424	102
624.98	108
626.537	108
628.092	122
629.647	126
631.202	146
632.756	150
634.31	146
635.864	142
637.417	134
638.969	138
640.521	128
642.074	128
643.625	116
645.176	106
646.726	96
648.276	98
649.827	98
651.376	96
652.925	88
654.473	78
656.021	74
657.569	80
659.117	72
660.664	72
662.21	70
663.757	60
665.302	68
666.847	64
668.392	58
669.937	66
671.481	64
673.025	54
674.568	60
676.111	66
677.653	62
679.195	58
680.737	60
682.279	58
683.82	58
685.36	60
686.9	64
688.44	56
689.979	62
691.517	56
693.056	62
694.594	58
696.132	56
697.669	50
699.206	58
700.742	62
702.278	58
703.814	60
705.35	66
706.884	60
708.419	68
709.953	78
711.487	86
713.019	76
714.552	84
716.085	94
717.617	88
719.148	82
720.68	72
722.21	70
723.741	78
725.271	74
726.8	76
728.33	74
729.858	74
731.387	70
732.915	78
734.443	80
735.97	76
737.497	78
739.023	86
740.549	86
742.075	100
743.6	102
745.125	114
746.65	130
748.173	132
749.697	128
751.22	122
752.743	116
754.266	114
755.788	110
757.309	92
758.831	92
760.351	78
761.871	78
763.392	72
764.912	62
766.431	64
767.95	66
769.468	62
770.986	68
772.504	66
774.022	72
775.538	70
777.055	74
778.571	74
780.086	84
781.602	76
783.117	86
784.632	70
786.146	76
787.659	70
789.173	68
790.685	62
792.198	68
793.71	64
795.222	64
796.733	62
798.244	62
799.755	62
801.265	66
802.775	58
804.284	66
805.793	72
807.302	78
808.81	72
810.318	74
811.826	66
813.333	68
814.84	72
816.346	66
817.851	78
819.357	78
820.862	86
822.367	98
823.871	118
825.376	122
826.878	150
828.382	228
829.885	330
831.387	468
832.889	562
834.391	526
835.892	378
837.392	226
838.893	180
840.393	132
841.893	110
843.392	102
844.891	96
846.389	88
847.888	98
849.386	94
850.882	92
852.38	88
853.876	84
855.372	78
856.868	86
858.363	92
859.858	78
861.353	78
862.847	74
864.341	68
865.834	62
867.328	74
868.82	58
870.313	64
871.805	62
873.296	64
874.787	62
876.278	62
877.769	58
879.258	62
880.748	56
882.237	56
883.726	56
885.214	62
886.702	56
888.19	62
889.677	56
891.164	60
892.651	64
894.137	58
895.623	56
897.108	52
898.593	58
900.077	56
901.562	54
903.046	50
904.529	54
906.012	60
907.495	60
908.977	54
910.459	56
911.941	50
913.422	48
914.903	58
916.383	56
917.863	60
919.343	54
920.822	56
922.301	54
923.779	54
925.257	58
926.735	56
928.213	60
929.69	68
931.166	66
932.643	64
934.119	68
935.594	68
937.069	60
938.543	64
940.018	76
941.492	76
942.966	84
944.439	86
945.911	96
947.384	118
948.856	118
950.328	148
951.799	174
953.27	208
954.741	250
956.21	280
957.68	342
959.15	386
960.619	360
962.088	354
963.556	316
965.023	288
966.491	222
967.958	216
969.425	176
970.891	170
972.357	154
973.824	120
975.288	98
976.754	100
978.218	94
979.682	82
981.146	74
982.609	68
984.072	72
985.534	72
986.997	68
988.459	74
989.92	78
991.382	68
992.842	68
994.302	70
995.763	70
997.222	64
998.681	72
1000.14	62
1001.6	62
1003.06	56
1004.52	62
1005.97	58
1007.43	64
1008.89	58
1010.34	62
1011.8	62
1013.25	66
1014.71	76
1016.16	70
1017.62	66
1019.07	74
1020.53	76
1021.98	78
1023.43	78
1024.89	80
1026.34	82
1027.79	76
1029.24	102
1030.69	96
1032.14	92
1033.59	100
1035.04	96
1036.49	84
1037.94	92
1039.39	84
1040.84	84
1042.29	76
1043.73	80
1045.18	74
1046.63	74
1048.08	66
1049.52	70
1050.97	68
1052.41	70
1053.86	62
1055.3	72
1056.75	64
1058.19	64
1059.64	62
1061.08	66
1062.52	62
1063.96	58
1065.41	60
1066.85	56
1068.29	66
1069.73	64
1071.17	50
1072.61	64
1074.05	60
1075.49	62
1076.93	56
1078.37	62
1079.81	56
1081.25	58
1082.68	62
1084.12	66
1085.56	60
1087	68
1088.43	64
1089.87	62
1091.3	66
1092.74	60
1094.17	70
1095.61	66
1097.04	76
1098.48	70
1099.91	64
1101.34	70
1102.78	84
1104.21	92
1105.64	110
1107.07	132
1108.5	186
1109.93	252
1111.36	326
1112.8	326
1114.22	314
1115.65	244
1117.08	176
1118.51	154
1119.94	118
1121.37	120
1122.8	104
1124.22	98
1125.65	98
1127.08	90
1128.5	84
1129.93	90
1131.35	84
1132.78	74
1134.2	74
1135.63	84
1137.05	76
1138.48	86
1139.9	86
1141.32	80
1142.75	80
1144.17	74
1145.59	76
1147.01	78
1148.43	74
1149.85	70
1151.27	74
1152.69	68
1154.11	76
1155.53	80
1156.95	82
1158.37	84
1159.79	78
1161.21	82
1162.62	94
1164.04	82
1165.46	86
1166.87	78
1168.29	84
1169.71	80
1171.12	86
1172.54	84
1173.95	90
1175.37	96
1176.78	96
1178.19	110
1179.61	132
1181.02	126
1182.43	180
1183.84	200
1185.26	212
1186.67	224
1188.08	222
1189.49	200
1190.9	194
1192.31	160
1193.72	148
1195.13	144
1196.54	150
1197.95	152
1199.36	164
1200.76	154
1202.17	170
1203.58	176
1204.99	166
1206.39	156
1207.8	138
1209.2	122
1210.61	108
1212.01	100
1213.42	96
1214.82	80
1216.23	88
1217.63	88
1219.03	94
1220.44	92
1221.84	94
1223.24	90
1224.64	94
1226.05	106
1227.45	122
1228.85	132
1230.25	128
1231.65	124
1233.05	114
1234.45	108
1235.85	100
1237.25	98
1238.64	84
1240.04	76
1241.44	92
1242.84	84
1244.23	86
1245.63	92
1247.03	88
1248.42	92
1249.82	80
1251.21	84
1252.61	78
1254	86
1255.4	80
1256.79	84
1258.19	82
1259.58	88
1260.97	90
1262.36	88
1263.76	92
1265.15	94
1266.54	88
1267.93	94
1269.32	100
1270.71	96
1272.1	98
1273.49	108
1274.88	104
1276.27	96
1277.66	104
1279.05	104
1280.43	122
1281.82	118
1283.21	134
1284.6	132
1285.98	148
1287.37	144
1288.75	152
1290.14	156
1291.53	178
1292.91	178
1294.29	202
1295.68	236
1297.06	270
1298.45	350
1299.83	412
1301.21	526
1302.59	628
1303.98	742
1305.36	754
1306.74	708
1308.12	612
1309.5	514
1310.88	376
1312.26	320
1313.64	296
1315.02	260
1316.4	216
1317.78	198
1319.16	198
1320.53	188
1321.91	158
1323.29	172
1324.67	174
1326.04	166
1327.42	166
1328.79	170
1330.17	174
1331.54	156
1332.92	142
1334.29	152
1335.67	138
1337.04	136
1338.42	144
1339.79	132
1341.16	130
1342.53	130
1343.91	146
1345.28	150
1346.65	150
1348.02	158
1349.39	160
1350.76	166
1352.13	154
1353.5	152
1354.87	148
1356.24	158
1357.61	138
1358.98	138
1360.34	120
1361.71	138
1363.08	142
1364.45	128
1365.81	150
1367.18	138
1368.54	162
1369.91	148
1371.28	178
1372.64	228
1374.01	254
1375.37	326
1376.73	366
1378.1	406
1379.46	410
1380.82	406
1382.19	392
1383.55	348
1384.91	298
1386.27	240
1387.63	220
1388.99	180
1390.35	170
1391.71	142
1393.07	144
1394.43	128
1395.79	130
1397.15	136
1398.51	124
1399.87	138
1401.23	130
1402.58	128
1403.94	122
1405.3	124
1406.65	128
1408.01	116
1409.37	122
1410.72	126
1412.08	132
1413.43	142
1414.79	148
1416.14	144
1417.49	152
1418.85	140
1420.2	150
1421.55	164
1422.91	176
1424.26	152
1425.61	180
1426.96	176
1428.31	162
1429.66	172
1431.01	186
1432.36	174
1433.71	194
1435.06	182
1436.41	194
1437.76	204
1439.11	220
1440.46	210
1441.81	188
1443.15	194
1444.5	180
1445.85	180
1447.19	156
1448.54	172
1449.89	164
1451.23	160
1452.58	152
1453.92	150
1455.27	158
1456.61	150
1457.95	148
1459.3	144
1460.64	146
1461.98	148
1463.33	152
1464.67	134
1466.01	144
1467.35	150
1468.69	140
1470.03	132
1471.37	130
1472.71	142
1474.05	140
1475.39	138
1476.73	126
1478.07	136
1479.41	136
1480.75	126
1482.09	128
1483.42	130
1484.76	118
1486.1	116
1487.43	120
1488.77	116
1490.11	120
1491.44	116
1492.78	110
1494.11	118
1495.45	116
1496.78	116
1498.12	106
1499.45	108
1500.78	106
1502.11	110
1503.45	108
1504.78	104
1506.11	102
1507.44	96
1508.77	106
1510.11	110
1511.44	112
1512.77	110
1514.1	102
1515.43	102
1516.76	100
1518.08	102
1519.41	100
1520.74	92
1522.07	108
1523.4	106
1524.72	94
1526.05	102
1527.38	106
1528.7	104
1530.03	96
1531.36	100
1532.68	100
1534.01	94
1535.33	102
1536.66	106
1537.98	100
1539.3	100
1540.63	106
1541.95	100
1543.27	100
1544.6	104
1545.92	96
1547.24	102
1548.56	102
1549.88	102
1551.2	102
1552.52	108
1553.84	100
1555.17	102
1556.48	104
1557.8	96
1559.12	100
1560.44	106
1561.76	98
1563.08	102
1564.4	96
1565.71	106
1567.03	110
1568.35	110
1569.66	122
1570.98	110
1572.29	120
1573.61	120
1574.93	112
1576.24	124
1577.55	130
1578.87	142
1580.18	136
1581.5	136
1582.81	158
1584.12	172
1585.43	174
1586.75	208
1588.06	212
1589.37	222
1590.68	240
1591.99	262
1593.3	306
1594.61	322
1595.92	360
1597.23	382
1598.54	380
1599.85	440
1601.16	430
1602.47	448
1603.78	442
1605.08	408
1606.39	410
1607.7	386
1609	342
1610.31	344
1611.62	300
1612.92	270
1614.23	260
1615.53	226
1616.84	206
1618.14	196
1619.45	182
1620.75	156
1622.06	144
1623.36	136
1624.66	128
1625.96	104
1627.27	114
1628.57	100
1629.87	112
1631.17	100
1632.47	102
1633.77	104
1635.07	86
1636.37	90
1637.67	92
1638.97	92
1640.27	82
1641.57	86
1642.87	82
1644.17	86
1645.47	80
1646.76	78
1648.06	78
1649.36	92
1650.66	90
1651.95	84
1653.25	74
1654.54	74
1655.84	78
1657.13	82
1658.43	82
1659.72	76
1661.02	76
1662.31	82
1663.6	82
1664.9	76
1666.19	68
1667.48	84
1668.78	70
1670.07	68
1671.36	76
1672.65	70
1673.94	78
1675.23	76
1676.52	66
1677.81	72
1679.1	64
1680.39	68
1681.68	68
1682.97	66
1684.26	78
1685.55	72
1686.83	68
1688.12	78
1689.41	72
1690.7	78
1691.98	78
1693.27	80
1694.55	76
1695.84	80
1697.13	78
1698.41	70
1699.69	72
1700.98	80
1702.26	70