File: Mixture_Classification/Jesse_Dataset_v2/Pure Raman/Polypropylene oxide/785nm/ps-ppo-6jan25-0,0000-map2_Y07_X09.txt
204.377	366
206.045	372
207.713	368
209.38	346
211.048	342
212.715	314
214.381	328
216.047	320
217.712	322
219.377	336
221.042	356
222.706	406
224.369	482
226.032	540
227.695	662
229.357	742
231.019	878
232.68	894
234.341	972
236.001	894
237.661	856
239.321	802
240.98	718
242.639	672
244.297	588
245.955	530
247.612	492
249.268	416
250.924	392
252.58	352
254.236	306
255.891	280
257.546	274
259.2	230
260.854	210
262.507	208
264.16	184
265.812	194
267.463	184
269.115	182
270.766	176
272.417	160
274.067	176
275.717	160
277.365	174
279.014	174
280.663	192
282.311	212
283.958	216
285.605	246
287.252	282
288.898	316
290.543	358
292.188	394
293.833	402
295.477	412
297.121	392
298.765	404
300.407	362
302.05	338
303.693	322
305.334	300
306.975	276
308.615	248
310.256	248
311.896	240
313.535	228
315.175	226
316.813	228
318.451	218
320.089	216
321.726	220
323.362	232
324.999	216
326.635	230
328.271	242
329.905	254
331.54	246
333.174	266
334.807	256
336.441	246
338.074	240
339.707	214
341.338	212
342.969	196
344.601	206
346.231	210
347.861	198
349.491	200
351.12	206
352.749	216
354.378	216
356.006	208
357.633	216
359.261	184
360.887	186
362.513	200
364.139	182
365.764	178
367.39	170
369.014	186
370.638	180
372.261	200
373.884	186
375.508	186
377.13	180
378.752	162
380.373	148
381.994	148
383.615	128
385.235	132
386.854	132
388.473	136
390.092	130
391.711	126
393.328	122
394.947	118
396.564	114
398.181	126
399.797	118
401.412	126
403.027	126
404.642	142
406.257	148
407.871	146
409.484	172
411.098	190
412.711	208
414.323	208
415.935	204
417.547	190
419.158	192
420.768	158
422.378	142
423.988	138
425.597	126
427.206	114
428.814	108
430.422	102
432.03	92
433.637	98
435.243	88
436.85	90
438.456	86
440.062	86
441.666	76
443.271	78
444.876	76
446.479	84
448.082	74
449.685	74
451.287	78
452.89	74
454.492	80
456.092	78
457.693	84
459.293	82
460.893	80
462.492	80
464.092	90
465.691	92
467.288	114
468.887	118
470.483	132
472.081	150
473.677	164
475.273	194
476.869	182
478.463	208
480.059	230
481.653	238
483.247	270
484.84	284
486.433	276
488.026	238
489.618	200
491.21	164
492.801	156
494.392	138
495.983	120
497.573	104
499.162	104
500.752	98
502.341	104
503.929	94
505.517	104
507.105	106
508.692	114
510.279	160
511.865	176
513.45	208
515.037	190
516.621	164
518.206	148
519.79	140
521.374	144
522.957	138
524.54	152
526.123	172
527.705	190
529.287	222
530.868	252
532.448	298
534.029	348
535.609	370
537.188	400
538.768	402
540.346	416
541.925	392
543.502	366
545.08	298
546.657	244
548.234	194
549.81	194
551.386	172
552.961	196
554.536	194
556.11	232
557.684	248
559.258	306
560.832	410
562.405	518
563.977	674
565.55	990
567.12	1380
568.692	1890
570.263	2274
571.833	2238
573.403	1874
574.973	1378
576.542	932
578.111	614
579.679	462
581.247	352
582.815	344
584.382	320
585.948	300
587.514	308
589.081	278
590.645	282
592.211	254
593.775	236
595.339	244
596.904	234
598.466	210
600.03	172
601.592	154
603.154	128
604.715	122
606.277	104
607.838	102
609.398	92
610.958	78
612.518	90
614.077	88
615.636	98
617.194	80
618.753	102
620.31	90
621.867	98
623.424	118
624.98	108
626.537	114
628.092	116
629.647	136
631.202	140
632.756	146
634.31	146
635.864	148
637.417	150
638.969	140
640.521	128
642.074	124
643.625	130
645.176	102
646.726	92
648.276	98
649.827	96
651.376	92
652.925	88
654.473	86
656.021	82
657.569	72
659.117	70
660.664	74
662.21	68
663.757	70
665.302	66
666.847	64
668.392	56
669.937	58
671.481	60
673.025	62
674.568	56
676.111	64
677.653	62
679.195	54
680.737	64
682.279	64
683.82	60
685.36	58
686.9	62
688.44	64
689.979	58
691.517	58
693.056	54
694.594	54
696.132	62
697.669	60
699.206	62
700.742	70
702.278	60
703.814	62
705.35	62
706.884	62
708.419	70
709.953	74
711.487	78
713.019	90
714.552	96
716.085	104
717.617	86
719.148	86
720.68	80
722.21	74
723.741	74
725.271	70
726.8	72
728.33	68
729.858	66
731.387	70
732.915	78
734.443	74
735.97	84
737.497	80
739.023	80
740.549	82
742.075	90
743.6	106
745.125	116
746.65	130
748.173	132
749.697	126
751.22	118
752.743	108
754.266	120
755.788	108
757.309	100
758.831	82
760.351	78
761.871	76
763.392	74
764.912	68
766.431	70
767.95	72
769.468	68
770.986	68
772.504	66
774.022	74
775.538	74
777.055	78
778.571	82
780.086	80
781.602	76
783.117	76
784.632	70
786.146	74
787.659	70
789.173	68
790.685	60
792.198	68
793.71	66
795.222	62
796.733	60
798.244	60
799.755	62
801.265	62
802.775	66
804.284	74
805.793	70
807.302	72
808.81	74
810.318	68
811.826	68
813.333	70
814.84	76
816.346	78
817.851	78
819.357	74
820.862	78
822.367	96
823.871	104
825.376	138
826.878	166
828.382	240
829.885	334
831.387	482
832.889	564
834.391	516
835.892	388
837.392	250
838.893	162
840.393	132
841.893	108
843.392	96
844.891	106
846.389	94
847.888	92
849.386	90
850.882	84
852.38	88
853.876	86
855.372	90
856.868	86
858.363	88
859.858	64
861.353	74
862.847	80
864.341	72
865.834	62
867.328	68
868.82	70
870.313	62
871.805	62
873.296	68
874.787	64
876.278	60
877.769	60
879.258	62
880.748	62
882.237	64
883.726	58
885.214	58
886.702	58
888.19	60
889.677	52
891.164	58
892.651	60
894.137	50
895.623	56
897.108	58
898.593	62
900.077	58
901.562	56
903.046	58
904.529	54
906.012	60
907.495	58
908.977	60
910.459	54
911.941	58
913.422	52
914.903	60
916.383	60
917.863	54
919.343	64
920.822	58
922.301	56
923.779	52
925.257	58
926.735	60
928.213	56
929.69	68
931.166	60
932.643	60
934.119	64
935.594	72
937.069	68
938.543	74
940.018	78
941.492	80
942.966	74
944.439	96
945.911	104
947.384	110
948.856	116
950.328	156
951.799	170
953.27	208
954.741	248
956.21	296
957.68	334
959.15	364
960.619	362
962.088	354
963.556	304
965.023	264
966.491	236
967.958	196
969.425	188
970.891	166
972.357	142
973.824	126
975.288	114
976.754	96
978.218	74
979.682	80
981.146	78
982.609	70
984.072	64
985.534	70
986.997	74
988.459	66
989.92	72
991.382	72
992.842	68
994.302	70
995.763	66
997.222	62
998.681	64
1000.14	62
1001.6	66
1003.06	62
1004.52	60
1005.97	60
1007.43	62
1008.89	62
1010.34	64
1011.8	56
1013.25	68
1014.71	66
1016.16	68
1017.62	70
1019.07	70
1020.53	74
1021.98	80
1023.43	84
1024.89	92
1026.34	76
1027.79	84
1029.24	88
1030.69	94
1032.14	88
1033.59	84
1035.04	94
1036.49	102
1037.94	98
1039.39	96
1040.84	90
1042.29	84
1043.73	72
1045.18	74
1046.63	74
1048.08	72
1049.52	64
1050.97	76
1052.41	66
1053.86	60
1055.3	58
1056.75	60
1058.19	60
1059.64	62
1061.08	62
1062.52	52
1063.96	66
1065.41	64
1066.85	60
1068.29	64
1069.73	58
1071.17	62
1072.61	64
1074.05	68
1075.49	60
1076.93	66
1078.37	64
1079.81	62
1081.25	70
1082.68	62
1084.12	60
1085.56	60
1087	62
1088.43	70
1089.87	70
1091.3	62
1092.74	66
1094.17	74
1095.61	72
1097.04	60
1098.48	68
1099.91	66
1101.34	78
1102.78	76
1104.21	94
1105.64	108
1107.07	136
1108.5	180
1109.93	248
1111.36	318
1112.8	332
1114.22	310
1115.65	234
1117.08	186
1118.51	142
1119.94	128
1121.37	110
1122.8	114
1124.22	106
1125.65	98
1127.08	86
1128.5	86
1129.93	76
1131.35	88
1132.78	86
1134.2	82
1135.63	84
1137.05	76
1138.48	80
1139.9	84
1141.32	84
1142.75	94
1144.17	78
1145.59	76
1147.01	74
1148.43	74
1149.85	68
1151.27	70
1152.69	68
1154.11	74
1155.53	80
1156.95	84
1158.37	76
1159.79	88
1161.21	94
1162.62	90
1164.04	84
1165.46	82
1166.87	88
1168.29	86
1169.71	82
1171.12	86
1172.54	86
1173.95	82
1175.37	94
1176.78	96
1178.19	108
1179.61	130
1181.02	124
1182.43	172
1183.84	188
1185.26	224
1186.67	226
1188.08	218
1189.49	204
1190.9	178
1192.31	160
1193.72	146
1195.13	140
1196.54	146
1197.95	156
1199.36	158
1200.76	176
1202.17	156
1203.58	160
1204.99	162
1206.39	150
1207.8	140
1209.2	130
1210.61	102
1212.01	104
1213.42	92
1214.82	84
1216.23	92
1217.63	88
1219.03	88
1220.44	88
1221.84	82
1223.24	90
1224.64	100
1226.05	112
1227.45	108
1228.85	130
1230.25	128
1231.65	132
1233.05	112
1234.45	104
1235.85	106
1237.25	90
1238.64	88
1240.04	78
1241.44	84
1242.84	86
1244.23	80
1245.63	84
1247.03	78
1248.42	80
1249.82	74
1251.21	80
1252.61	84
1254	80
1255.4	86
1256.79	86
1258.19	88
1259.58	80
1260.97	80
1262.36	80
1263.76	92
1265.15	90
1266.54	98
1267.93	94
1269.32	92
1270.71	96
1272.1	98
1273.49	88
1274.88	112
1276.27	100
1277.66	108
1279.05	106
1280.43	114
1281.82	124
1283.21	128
1284.6	126
1285.98	128
1287.37	146
1288.75	152
1290.14	156
1291.53	168
1292.91	186
1294.29	202
1295.68	234
1297.06	280
1298.45	332
1299.83	420
1301.21	512
1302.59	650
1303.98	742
1305.36	750
1306.74	730
1308.12	618
1309.5	504
1310.88	374
1312.26	336
1313.64	286
1315.02	240
1316.4	220
1317.78	202
1319.16	206
1320.53	200
1321.91	180
1323.29	190
1324.67	176
1326.04	168
1327.42	176
1328.79	190
1330.17	158
1331.54	170
1332.92	164
1334.29	154
1335.67	140
1337.04	148
1338.42	136
1339.79	142
1341.16	148
1342.53	152
1343.91	152
1345.28	152
1346.65	148
1348.02	150
1349.39	150
1350.76	160
1352.13	168
1353.5	156
1354.87	154
1356.24	142
1357.61	154
1358.98	146
1360.34	142
1361.71	136
1363.08	148
1364.45	142
1365.81	154
1367.18	162
1368.54	152
1369.91	168
1371.28	194
1372.64	222
1374.01	288
1375.37	310
1376.73	388
1378.1	400
1379.46	418
1380.82	392
1382.19	386
1383.55	338
1384.91	294
1386.27	258
1387.63	224
1388.99	200
1390.35	184
1391.71	148
1393.07	142
1394.43	144
1395.79	142
1397.15	126
1398.51	126
1399.87	132
1401.23	132
1402.58	132
1403.94	128
1405.3	126
1406.65	130
1408.01	132
1409.37	116
1410.72	140
1412.08	140
1413.43	134
1414.79	140
1416.14	128
1417.49	136
1418.85	142
1420.2	174
1421.55	166
1422.91	162
1424.26	176
1425.61	176
1426.96	168
1428.31	176
1429.66	180
1431.01	184
1432.36	198
1433.71	178
1435.06	194
1436.41	210
1437.76	216
1439.11	224
1440.46	206
1441.81	194
1443.15	202
1444.5	188
1445.85	180
1447.19	178
1448.54	178
1449.89	170
1451.23	172
1452.58	150
1453.92	170
1455.27	160
1456.61	146
1457.95	152
1459.3	140
1460.64	154
1461.98	158
1463.33	158
1464.67	142
1466.01	140
1467.35	150
1468.69	140
1470.03	152
1471.37	148
1472.71	146
1474.05	140
1475.39	138
1476.73	146
1478.07	144
1479.41	136
1480.75	140
1482.09	134
1483.42	124
1484.76	126
1486.1	116
1487.43	116
1488.77	114
1490.11	114
1491.44	106
1492.78	122
1494.11	116
1495.45	114
1496.78	98
1498.12	114
1499.45	114
1500.78	108
1502.11	106
1503.45	108
1504.78	112
1506.11	118
1507.44	112
1508.77	110
1510.11	100
1511.44	108
1512.77	108
1514.1	96
1515.43	94
1516.76	100
1518.08	102
1519.41	96
1520.74	116
1522.07	98
1523.4	104
1524.72	98
1526.05	108
1527.38	106
1528.7	98
1530.03	104
1531.36	96
1532.68	104
1534.01	98
1535.33	98
1536.66	108
1537.98	110
1539.3	96
1540.63	102
1541.95	106
1543.27	90
1544.6	108
1545.92	108
1547.24	104
1548.56	104
1549.88	114
1551.2	108
1552.52	102
1553.84	108
1555.17	114
1556.48	110
1557.8	110
1559.12	100
1560.44	104
1561.76	104
1563.08	114
1564.4	114
1565.71	108
1567.03	110
1568.35	108
1569.66	114
1570.98	110
1572.29	112
1573.61	114
1574.93	126
1576.24	136
1577.55	132
1578.87	140
1580.18	138
1581.5	150
1582.81	156
1584.12	170
1585.43	188
1586.75	206
1588.06	216
1589.37	222
1590.68	264
1591.99	262
1593.3	310
1594.61	328
1595.92	360
1597.23	370
1598.54	426
1599.85	460
1601.16	470
1602.47	464
1603.78	474
1605.08	436
1606.39	402
1607.7	388
1609	360
1610.31	330
1611.62	302
1612.92	284
1614.23	254
1615.53	246
1616.84	216
1618.14	196
1619.45	176
1620.75	158
1622.06	140
1623.36	134
1624.66	128
1625.96	118
1627.27	106
1628.57	112
1629.87	102
1631.17	110
1632.47	102
1633.77	96
1635.07	86
1636.37	100
1637.67	88
1638.97	86
1640.27	90
1641.57	84
1642.87	86
1644.17	88
1645.47	86
1646.76	90
1648.06	84
1649.36	76
1650.66	78
1651.95	82
1653.25	84
1654.54	88
1655.84	78
1657.13	80
1658.43	82
1659.72	92
1661.02	80
1662.31	88
1663.6	84
1664.9	76
1666.19	76
1667.48	68
1668.78	70
1670.07	70
1671.36	74
1672.65	70
1673.94	78
1675.23	80
1676.52	78
1677.81	76
1679.1	72
1680.39	70
1681.68	78
1682.97	76
1684.26	76
1685.55	74
1686.83	78
1688.12	86
1689.41	72
1690.7	78
1691.98	78
1693.27	78
1694.55	84
1695.84	82
1697.13	76
1698.41	74
1699.69	72
1700.98	74
1702.26	76