File: Mixture_Classification/Jesse_Dataset_v2/Pure Raman/Polypropylene oxide/785nm/ps-ppo-6jan25-0,0000-map2_Y04_X04.txt
204.377	356
206.045	366
207.713	362
209.38	354
211.048	340
212.715	342
214.381	336
216.047	308
217.712	336
219.377	344
221.042	392
222.706	416
224.369	458
226.032	556
227.695	654
229.357	788
231.019	876
232.68	942
234.341	982
236.001	920
237.661	912
239.321	840
240.98	756
242.639	708
244.297	638
245.955	570
247.612	494
249.268	448
250.924	406
252.58	362
254.236	322
255.891	290
257.546	272
259.2	250
260.854	228
262.507	206
264.16	200
265.812	192
267.463	194
269.115	168
270.766	166
272.417	180
274.067	192
275.717	180
277.365	186
279.014	182
280.663	202
282.311	210
283.958	244
285.605	252
287.252	284
288.898	322
290.543	366
292.188	390
293.833	422
295.477	446
297.121	420
298.765	420
300.407	378
302.05	348
303.693	326
305.334	314
306.975	270
308.615	278
310.256	240
311.896	232
313.535	242
315.175	238
316.813	226
318.451	230
320.089	236
321.726	224
323.362	222
324.999	222
326.635	238
328.271	230
329.905	248
331.54	248
333.174	250
334.807	274
336.441	252
338.074	254
339.707	240
341.338	230
342.969	212
344.601	208
346.231	206
347.861	216
349.491	212
351.12	208
352.749	218
354.378	200
356.006	226
357.633	218
359.261	202
360.887	188
362.513	186
364.139	182
365.764	186
367.39	186
369.014	184
370.638	186
372.261	196
373.884	186
375.508	194
377.13	186
378.752	162
380.373	150
381.994	152
383.615	150
385.235	146
386.854	148
388.473	134
390.092	120
391.711	128
393.328	114
394.947	128
396.564	122
398.181	114
399.797	122
401.412	124
403.027	136
404.642	140
406.257	140
407.871	144
409.484	180
411.098	186
412.711	208
414.323	212
415.935	208
417.547	198
419.158	184
420.768	166
422.378	144
423.988	140
425.597	120
427.206	118
428.814	118
430.422	96
432.03	108
433.637	100
435.243	98
436.85	98
438.456	86
440.062	82
441.666	82
443.271	82
444.876	78
446.479	88
448.082	78
449.685	74
451.287	70
452.89	80
454.492	78
456.092	82
457.693	78
459.293	82
460.893	82
462.492	92
464.092	86
465.691	98
467.288	120
468.887	118
470.483	134
472.081	152
473.677	166
475.273	184
476.869	206
478.463	222
480.059	246
481.653	266
483.247	280
484.84	298
486.433	262
488.026	264
489.618	196
491.21	168
492.801	158
494.392	138
495.983	126
497.573	108
499.162	98
500.752	94
502.341	94
503.929	102
505.517	86
507.105	108
508.692	122
510.279	162
511.865	188
513.45	206
515.037	188
516.621	166
518.206	148
519.79	136
521.374	148
522.957	148
524.54	162
526.123	178
527.705	190
529.287	212
530.868	256
532.448	316
534.029	370
535.609	384
537.188	432
538.768	446
540.346	428
541.925	416
543.502	360
545.08	292
546.657	246
548.234	236
549.81	200
551.386	190
552.961	188
554.536	218
556.11	236
557.684	256
559.258	316
560.832	390
562.405	530
563.977	726
565.55	1018
567.12	1442
568.692	1938
570.263	2280
571.833	2260
573.403	1910
574.973	1426
576.542	978
578.111	674
579.679	468
581.247	398
582.815	364
584.382	348
585.948	340
587.514	304
589.081	282
590.645	268
592.211	270
593.775	254
595.339	242
596.904	220
598.466	202
600.03	190
601.592	160
603.154	114
604.715	110
606.277	112
607.838	104
609.398	98
610.958	82
612.518	80
614.077	98
615.636	96
617.194	92
618.753	104
620.31	90
621.867	102
623.424	106
624.98	106
626.537	120
628.092	108
629.647	134
631.202	142
632.756	158
634.31	154
635.864	148
637.417	144
638.969	140
640.521	134
642.074	122
643.625	112
645.176	112
646.726	96
648.276	96
649.827	96
651.376	90
652.925	94
654.473	82
656.021	72
657.569	82
659.117	76
660.664	68
662.21	76
663.757	60
665.302	68
666.847	64
668.392	62
669.937	64
671.481	64
673.025	62
674.568	62
676.111	68
677.653	54
679.195	56
680.737	58
682.279	60
683.82	60
685.36	58
686.9	64
688.44	62
689.979	58
691.517	62
693.056	60
694.594	54
696.132	56
697.669	56
699.206	64
700.742	60
702.278	62
703.814	66
705.35	64
706.884	74
708.419	72
709.953	74
711.487	80
713.019	100
714.552	96
716.085	86
717.617	92
719.148	78
720.68	78
722.21	78
723.741	78
725.271	76
726.8	74
728.33	72
729.858	70
731.387	78
732.915	78
734.443	84
735.97	74
737.497	86
739.023	84
740.549	84
742.075	98
743.6	102
745.125	124
746.65	124
748.173	134
749.697	128
751.22	118
752.743	104
754.266	114
755.788	122
757.309	102
758.831	92
760.351	78
761.871	70
763.392	70
764.912	66
766.431	66
767.95	68
769.468	70
770.986	72
772.504	70
774.022	72
775.538	72
777.055	72
778.571	80
780.086	80
781.602	84
783.117	80
784.632	70
786.146	72
787.659	70
789.173	76
790.685	70
792.198	66
793.71	66
795.222	62
796.733	62
798.244	66
799.755	64
801.265	64
802.775	72
804.284	72
805.793	78
807.302	82
808.81	72
810.318	72
811.826	74
813.333	78
814.84	68
816.346	82
817.851	74
819.357	82
820.862	98
822.367	92
823.871	112
825.376	128
826.878	162
828.382	236
829.885	348
831.387	486
832.889	572
834.391	536
835.892	376
837.392	246
838.893	172
840.393	134
841.893	110
843.392	110
844.891	92
846.389	92
847.888	94
849.386	86
850.882	90
852.38	86
853.876	90
855.372	80
856.868	90
858.363	84
859.858	80
861.353	80
862.847	80
864.341	72
865.834	80
867.328	68
868.82	68
870.313	66
871.805	70
873.296	68
874.787	64
876.278	60
877.769	62
879.258	60
880.748	66
882.237	62
883.726	62
885.214	64
886.702	56
888.19	60
889.677	56
891.164	60
892.651	60
894.137	56
895.623	62
897.108	58
898.593	56
900.077	56
901.562	56
903.046	56
904.529	58
906.012	52
907.495	54
908.977	56
910.459	56
911.941	60
913.422	54
914.903	48
916.383	52
917.863	58
919.343	58
920.822	60
922.301	60
923.779	62
925.257	60
926.735	60
928.213	62
929.69	64
931.166	62
932.643	62
934.119	66
935.594	68
937.069	72
938.543	68
940.018	68
941.492	70
942.966	80
944.439	86
945.911	96
947.384	104
948.856	128
950.328	148
951.799	178
953.27	206
954.741	254
956.21	304
957.68	326
959.15	360
960.619	370
962.088	342
963.556	338
965.023	294
966.491	252
967.958	220
969.425	200
970.891	180
972.357	170
973.824	130
975.288	112
976.754	104
978.218	86
979.682	86
981.146	78
982.609	76
984.072	72
985.534	68
986.997	68
988.459	62
989.92	68
991.382	72
992.842	70
994.302	62
995.763	66
997.222	66
998.681	66
1000.14	60
1001.6	66
1003.06	54
1004.52	70
1005.97	62
1007.43	58
1008.89	60
1010.34	62
1011.8	64
1013.25	60
1014.71	64
1016.16	74
1017.62	74
1019.07	72
1020.53	76
1021.98	80
1023.43	74
1024.89	76
1026.34	84
1027.79	86
1029.24	100
1030.69	94
1032.14	92
1033.59	102
1035.04	86
1036.49	88
1037.94	86
1039.39	92
1040.84	94
1042.29	90
1043.73	82
1045.18	86
1046.63	74
1048.08	70
1049.52	66
1050.97	68
1052.41	68
1053.86	64
1055.3	66
1056.75	70
1058.19	62
1059.64	64
1061.08	60
1062.52	54
1063.96	60
1065.41	56
1066.85	64
1068.29	56
1069.73	62
1071.17	60
1072.61	60
1074.05	62
1075.49	60
1076.93	62
1078.37	62
1079.81	64
1081.25	62
1082.68	64
1084.12	68
1085.56	64
1087	64
1088.43	64
1089.87	66
1091.3	66
1092.74	64
1094.17	66
1095.61	64
1097.04	74
1098.48	70
1099.91	78
1101.34	82
1102.78	90
1104.21	94
1105.64	106
1107.07	140
1108.5	188
1109.93	252
1111.36	336
1112.8	338
1114.22	306
1115.65	250
1117.08	188
1118.51	154
1119.94	128
1121.37	112
1122.8	112
1124.22	106
1125.65	94
1127.08	90
1128.5	88
1129.93	82
1131.35	94
1132.78	78
1134.2	76
1135.63	84
1137.05	92
1138.48	82
1139.9	94
1141.32	80
1142.75	90
1144.17	86
1145.59	90
1147.01	76
1148.43	72
1149.85	74
1151.27	78
1152.69	80
1154.11	78
1155.53	76
1156.95	80
1158.37	88
1159.79	86
1161.21	92
1162.62	96
1164.04	92
1165.46	88
1166.87	94
1168.29	80
1169.71	84
1171.12	90
1172.54	90
1173.95	92
1175.37	102
1176.78	112
1178.19	112
1179.61	122
1181.02	152
1182.43	156
1183.84	208
1185.26	226
1186.67	240
1188.08	232
1189.49	220
1190.9	186
1192.31	158
1193.72	154
1195.13	144
1196.54	154
1197.95	150
1199.36	158
1200.76	164
1202.17	168
1203.58	180
1204.99	168
1206.39	158
1207.8	136
1209.2	128
1210.61	122
1212.01	88
1213.42	100
1214.82	88
1216.23	84
1217.63	84
1219.03	98
1220.44	90
1221.84	90
1223.24	82
1224.64	104
1226.05	112
1227.45	124
1228.85	128
1230.25	128
1231.65	138
1233.05	124
1234.45	104
1235.85	108
1237.25	100
1238.64	92
1240.04	84
1241.44	86
1242.84	84
1244.23	92
1245.63	94
1247.03	84
1248.42	88
1249.82	88
1251.21	82
1252.61	84
1254	86
1255.4	86
1256.79	86
1258.19	92
1259.58	88
1260.97	90
1262.36	88
1263.76	94
1265.15	90
1266.54	92
1267.93	98
1269.32	98
1270.71	96
1272.1	92
1273.49	100
1274.88	98
1276.27	108
1277.66	108
1279.05	112
1280.43	108
1281.82	134
1283.21	130
1284.6	146
1285.98	148
1287.37	142
1288.75	168
1290.14	174
1291.53	162
1292.91	190
1294.29	212
1295.68	242
1297.06	280
1298.45	342
1299.83	430
1301.21	550
1302.59	652
1303.98	742
1305.36	784
1306.74	718
1308.12	624
1309.5	508
1310.88	402
1312.26	334
1313.64	282
1315.02	248
1316.4	242
1317.78	210
1319.16	208
1320.53	182
1321.91	188
1323.29	180
1324.67	180
1326.04	164
1327.42	178
1328.79	186
1330.17	172
1331.54	166
1332.92	160
1334.29	162
1335.67	144
1337.04	142
1338.42	146
1339.79	158
1341.16	154
1342.53	136
1343.91	154
1345.28	148
1346.65	158
1348.02	164
1349.39	164
1350.76	158
1352.13	160
1353.5	152
1354.87	160
1356.24	150
1357.61	148
1358.98	150
1360.34	146
1361.71	146
1363.08	154
1364.45	154
1365.81	150
1367.18	154
1368.54	154
1369.91	174
1371.28	202
1372.64	242
1374.01	278
1375.37	348
1376.73	366
1378.1	426
1379.46	420
1380.82	410
1382.19	356
1383.55	368
1384.91	310
1386.27	274
1387.63	218
1388.99	198
1390.35	174
1391.71	158
1393.07	136
1394.43	148
1395.79	136
1397.15	136
1398.51	138
1399.87	138
1401.23	138
1402.58	134
1403.94	138
1405.3	128
1406.65	136
1408.01	128
1409.37	132
1410.72	150
1412.08	130
1413.43	150
1414.79	146
1416.14	152
1417.49	154
1418.85	166
1420.2	176
1421.55	166
1422.91	174
1424.26	174
1425.61	176
1426.96	168
1428.31	180
1429.66	194
1431.01	178
1432.36	198
1433.71	190
1435.06	204
1436.41	212
1437.76	218
1439.11	212
1440.46	190
1441.81	218
1443.15	200
1444.5	220
1445.85	192
1447.19	186
1448.54	180
1449.89	176
1451.23	174
1452.58	168
1453.92	164
1455.27	160
1456.61	148
1457.95	154
1459.3	158
1460.64	168
1461.98	152
1463.33	154
1464.67	142
1466.01	142
1467.35	154
1468.69	152
1470.03	148
1471.37	138
1472.71	150
1474.05	144
1475.39	136
1476.73	148
1478.07	140
1479.41	148
1480.75	138
1482.09	156
1483.42	136
1484.76	116
1486.1	128
1487.43	126
1488.77	118
1490.11	118
1491.44	124
1492.78	112
1494.11	122
1495.45	112
1496.78	120
1498.12	116
1499.45	112
1500.78	102
1502.11	118
1503.45	118
1504.78	122
1506.11	98
1507.44	112
1508.77	116
1510.11	110
1511.44	114
1512.77	116
1514.1	108
1515.43	104
1516.76	104
1518.08	106
1519.41	108
1520.74	114
1522.07	110
1523.4	116
1524.72	102
1526.05	118
1527.38	104
1528.7	110
1530.03	112
1531.36	106
1532.68	114
1534.01	104
1535.33	116
1536.66	116
1537.98	110
1539.3	108
1540.63	110
1541.95	108
1543.27	110
1544.6	114
1545.92	110
1547.24	104
1548.56	110
1549.88	110
1551.2	110
1552.52	112
1553.84	114
1555.17	110
1556.48	106
1557.8	102
1559.12	110
1560.44	108
1561.76	110
1563.08	114
1564.4	108
1565.71	108
1567.03	112
1568.35	110
1569.66	116
1570.98	126
1572.29	120
1573.61	126
1574.93	120
1576.24	130
1577.55	130
1578.87	130
1580.18	148
1581.5	156
1582.81	144
1584.12	172
1585.43	190
1586.75	194
1588.06	224
1589.37	228
1590.68	246
1591.99	278
1593.3	320
1594.61	334
1595.92	376
1597.23	394
1598.54	444
1599.85	452
1601.16	488
1602.47	470
1603.78	458
1605.08	448
1606.39	432
1607.7	404
1609	368
1610.31	342
1611.62	328
1612.92	292
1614.23	280
1615.53	254
1616.84	226
1618.14	192
1619.45	178
1620.75	164
1622.06	156
1623.36	144
1624.66	126
1625.96	132
1627.27	118
1628.57	114
1629.87	106
1631.17	110
1632.47	108
1633.77	106
1635.07	98
1636.37	94
1637.67	90
1638.97	92
1640.27	96
1641.57	92
1642.87	90
1644.17	90
1645.47	92
1646.76	78
1648.06	82
1649.36	86
1650.66	88
1651.95	90
1653.25	96
1654.54	86
1655.84	84
1657.13	78
1658.43	88
1659.72	84
1661.02	76
1662.31	82
1663.6	76
1664.9	80
1666.19	82
1667.48	82
1668.78	80
1670.07	82
1671.36	76
1672.65	82
1673.94	80
1675.23	74
1676.52	76
1677.81	76
1679.1	78
1680.39	74
1681.68	80
1682.97	78
1684.26	84
1685.55	80
1686.83	78
1688.12	90
1689.41	80
1690.7	82
1691.98	84
1693.27	82
1694.55	86
1695.84	82
1697.13	78
1698.41	72
1699.69	82
1700.98	76
1702.26	82