File: Mixture_Classification/Jesse_Dataset_v2/Pure Raman/Polypropylene oxide/785nm/ps-ppo-6jan25-0,0000-map2_Y06_X01.txt
204.377	370
206.045	374
207.713	384
209.38	358
211.048	346
212.715	346
214.381	342
216.047	336
217.712	338
219.377	370
221.042	390
222.706	414
224.369	488
226.032	586
227.695	686
229.357	800
231.019	942
232.68	1000
234.341	1018
236.001	954
237.661	932
239.321	890
240.98	778
242.639	720
244.297	624
245.955	590
247.612	502
249.268	454
250.924	420
252.58	374
254.236	332
255.891	282
257.546	276
259.2	240
260.854	240
262.507	210
264.16	224
265.812	188
267.463	190
269.115	200
270.766	180
272.417	180
274.067	182
275.717	180
277.365	190
279.014	182
280.663	210
282.311	220
283.958	234
285.605	262
287.252	282
288.898	344
290.543	376
292.188	424
293.833	438
295.477	454
297.121	460
298.765	412
300.407	400
302.05	372
303.693	358
305.334	300
306.975	296
308.615	260
310.256	274
311.896	242
313.535	244
315.175	240
316.813	222
318.451	244
320.089	232
321.726	232
323.362	224
324.999	246
326.635	258
328.271	250
329.905	258
331.54	256
333.174	284
334.807	272
336.441	246
338.074	258
339.707	240
341.338	234
342.969	220
344.601	212
346.231	204
347.861	216
349.491	232
351.12	204
352.749	230
354.378	226
356.006	222
357.633	218
359.261	214
360.887	198
362.513	194
364.139	180
365.764	182
367.39	190
369.014	204
370.638	198
372.261	204
373.884	208
375.508	202
377.13	178
378.752	162
380.373	162
381.994	146
383.615	156
385.235	144
386.854	132
388.473	134
390.092	130
391.711	140
393.328	126
394.947	134
396.564	138
398.181	124
399.797	130
401.412	134
403.027	132
404.642	128
406.257	146
407.871	156
409.484	166
411.098	190
412.711	206
414.323	224
415.935	210
417.547	198
419.158	174
420.768	174
422.378	160
423.988	132
425.597	126
427.206	120
428.814	106
430.422	110
432.03	106
433.637	96
435.243	100
436.85	90
438.456	80
440.062	80
441.666	88
443.271	78
444.876	84
446.479	74
448.082	82
449.685	88
451.287	84
452.89	86
454.492	78
456.092	84
457.693	76
459.293	82
460.893	88
462.492	86
464.092	98
465.691	112
467.288	110
468.887	112
470.483	148
472.081	158
473.677	160
475.273	182
476.869	200
478.463	222
480.059	254
481.653	250
483.247	270
484.84	296
486.433	288
488.026	248
489.618	208
491.21	174
492.801	162
494.392	148
495.983	130
497.573	118
499.162	104
500.752	92
502.341	102
503.929	102
505.517	104
507.105	122
508.692	138
510.279	162
511.865	204
513.45	226
515.037	214
516.621	180
518.206	152
519.79	150
521.374	152
522.957	148
524.54	158
526.123	186
527.705	206
529.287	236
530.868	268
532.448	332
534.029	366
535.609	412
537.188	438
538.768	468
540.346	442
541.925	430
543.502	404
545.08	298
546.657	242
548.234	224
549.81	200
551.386	208
552.961	198
554.536	214
556.11	228
557.684	256
559.258	334
560.832	422
562.405	540
563.977	728
565.55	1054
567.12	1458
568.692	2004
570.263	2364
571.833	2396
573.403	2020
574.973	1510
576.542	1018
578.111	700
579.679	506
581.247	410
582.815	360
584.382	352
585.948	320
587.514	328
589.081	300
590.645	282
592.211	282
593.775	274
595.339	258
596.904	236
598.466	210
600.03	184
601.592	146
603.154	132
604.715	116
606.277	96
607.838	96
609.398	96
610.958	96
612.518	92
614.077	94
615.636	96
617.194	104
618.753	102
620.31	94
621.867	98
623.424	112
624.98	126
626.537	122
628.092	128
629.647	138
631.202	140
632.756	160
634.31	146
635.864	158
637.417	156
638.969	142
640.521	134
642.074	128
643.625	126
645.176	122
646.726	108
648.276	94
649.827	104
651.376	94
652.925	80
654.473	86
656.021	90
657.569	78
659.117	78
660.664	74
662.21	72
663.757	56
665.302	76
666.847	64
668.392	66
669.937	64
671.481	64
673.025	62
674.568	60
676.111	60
677.653	58
679.195	64
680.737	60
682.279	60
683.82	60
685.36	60
686.9	68
688.44	66
689.979	62
691.517	58
693.056	58
694.594	58
696.132	58
697.669	58
699.206	68
700.742	58
702.278	66
703.814	56
705.35	72
706.884	72
708.419	70
709.953	80
711.487	88
713.019	90
714.552	100
716.085	96
717.617	92
719.148	86
720.68	76
722.21	80
723.741	72
725.271	66
726.8	78
728.33	72
729.858	80
731.387	70
732.915	74
734.443	88
735.97	84
737.497	78
739.023	88
740.549	96
742.075	96
743.6	110
745.125	126
746.65	146
748.173	134
749.697	132
751.22	118
752.743	124
754.266	112
755.788	114
757.309	108
758.831	94
760.351	80
761.871	78
763.392	72
764.912	76
766.431	72
767.95	68
769.468	64
770.986	70
772.504	70
774.022	78
775.538	72
777.055	76
778.571	82
780.086	86
781.602	80
783.117	74
784.632	82
786.146	80
787.659	64
789.173	62
790.685	76
792.198	68
793.71	62
795.222	70
796.733	70
798.244	66
799.755	62
801.265	68
802.775	70
804.284	68
805.793	78
807.302	76
808.81	82
810.318	82
811.826	78
813.333	80
814.84	72
816.346	78
817.851	84
819.357	90
820.862	94
822.367	104
823.871	114
825.376	138
826.878	160
828.382	244
829.885	352
831.387	492
832.889	614
834.391	562
835.892	400
837.392	248
838.893	170
840.393	138
841.893	116
843.392	104
844.891	106
846.389	102
847.888	96
849.386	90
850.882	94
852.38	92
853.876	98
855.372	90
856.868	90
858.363	94
859.858	84
861.353	82
862.847	76
864.341	74
865.834	82
867.328	70
868.82	70
870.313	68
871.805	62
873.296	60
874.787	64
876.278	64
877.769	64
879.258	60
880.748	62
882.237	58
883.726	66
885.214	56
886.702	58
888.19	58
889.677	60
891.164	64
892.651	64
894.137	54
895.623	58
897.108	58
898.593	58
900.077	62
901.562	60
903.046	60
904.529	56
906.012	54
907.495	56
908.977	54
910.459	58
911.941	56
913.422	60
914.903	54
916.383	64
917.863	58
919.343	60
920.822	62
922.301	60
923.779	58
925.257	62
926.735	56
928.213	64
929.69	60
931.166	62
932.643	68
934.119	66
935.594	66
937.069	68
938.543	78
940.018	68
941.492	80
942.966	86
944.439	92
945.911	102
947.384	116
948.856	138
950.328	148
951.799	176
953.27	210
954.741	276
956.21	304
957.68	354
959.15	378
960.619	386
962.088	370
963.556	336
965.023	298
966.491	250
967.958	220
969.425	206
970.891	180
972.357	152
973.824	134
975.288	118
976.754	104
978.218	84
979.682	78
981.146	80
982.609	74
984.072	82
985.534	80
986.997	70
988.459	74
989.92	70
991.382	90
992.842	76
994.302	70
995.763	66
997.222	66
998.681	70
1000.14	60
1001.6	58
1003.06	68
1004.52	68
1005.97	62
1007.43	66
1008.89	62
1010.34	60
1011.8	62
1013.25	66
1014.71	68
1016.16	68
1017.62	68
1019.07	76
1020.53	76
1021.98	80
1023.43	88
1024.89	82
1026.34	84
1027.79	88
1029.24	96
1030.69	96
1032.14	98
1033.59	94
1035.04	92
1036.49	104
1037.94	102
1039.39	94
1040.84	88
1042.29	82
1043.73	80
1045.18	82
1046.63	80
1048.08	70
1049.52	80
1050.97	74
1052.41	68
1053.86	72
1055.3	58
1056.75	74
1058.19	68
1059.64	52
1061.08	58
1062.52	66
1063.96	58
1065.41	68
1066.85	62
1068.29	66
1069.73	66
1071.17	66
1072.61	64
1074.05	56
1075.49	60
1076.93	64
1078.37	60
1079.81	66
1081.25	68
1082.68	62
1084.12	64
1085.56	62
1087	62
1088.43	70
1089.87	64
1091.3	70
1092.74	68
1094.17	72
1095.61	72
1097.04	70
1098.48	70
1099.91	66
1101.34	84
1102.78	90
1104.21	98
1105.64	106
1107.07	138
1108.5	196
1109.93	252
1111.36	350
1112.8	360
1114.22	340
1115.65	264
1117.08	206
1118.51	158
1119.94	132
1121.37	116
1122.8	112
1124.22	96
1125.65	100
1127.08	98
1128.5	98
1129.93	98
1131.35	82
1132.78	86
1134.2	76
1135.63	82
1137.05	82
1138.48	90
1139.9	88
1141.32	86
1142.75	90
1144.17	92
1145.59	82
1147.01	76
1148.43	76
1149.85	80
1151.27	68
1152.69	76
1154.11	78
1155.53	84
1156.95	90
1158.37	86
1159.79	92
1161.21	98
1162.62	96
1164.04	104
1165.46	88
1166.87	94
1168.29	86
1169.71	92
1171.12	76
1172.54	96
1173.95	96
1175.37	98
1176.78	108
1178.19	114
1179.61	120
1181.02	154
1182.43	168
1183.84	196
1185.26	232
1186.67	246
1188.08	230
1189.49	224
1190.9	170
1192.31	166
1193.72	158
1195.13	156
1196.54	152
1197.95	158
1199.36	160
1200.76	166
1202.17	182
1203.58	174
1204.99	168
1206.39	160
1207.8	154
1209.2	128
1210.61	110
1212.01	104
1213.42	98
1214.82	92
1216.23	88
1217.63	90
1219.03	86
1220.44	82
1221.84	90
1223.24	100
1224.64	106
1226.05	112
1227.45	120
1228.85	124
1230.25	134
1231.65	134
1233.05	122
1234.45	114
1235.85	112
1237.25	96
1238.64	90
1240.04	94
1241.44	96
1242.84	92
1244.23	90
1245.63	84
1247.03	88
1248.42	92
1249.82	94
1251.21	86
1252.61	82
1254	80
1255.4	84
1256.79	88
1258.19	86
1259.58	88
1260.97	86
1262.36	88
1263.76	100
1265.15	102
1266.54	94
1267.93	102
1269.32	90
1270.71	98
1272.1	96
1273.49	102
1274.88	96
1276.27	98
1277.66	110
1279.05	116
1280.43	112
1281.82	128
1283.21	136
1284.6	146
1285.98	138
1287.37	152
1288.75	162
1290.14	168
1291.53	176
1292.91	194
1294.29	208
1295.68	254
1297.06	278
1298.45	376
1299.83	430
1301.21	558
1302.59	672
1303.98	772
1305.36	784
1306.74	760
1308.12	668
1309.5	538
1310.88	416
1312.26	352
1313.64	312
1315.02	282
1316.4	240
1317.78	218
1319.16	210
1320.53	196
1321.91	206
1323.29	182
1324.67	182
1326.04	170
1327.42	194
1328.79	180
1330.17	176
1331.54	190
1332.92	166
1334.29	152
1335.67	162
1337.04	150
1338.42	126
1339.79	150
1341.16	154
1342.53	144
1343.91	156
1345.28	156
1346.65	154
1348.02	170
1349.39	172
1350.76	170
1352.13	166
1353.5	160
1354.87	166
1356.24	156
1357.61	150
1358.98	154
1360.34	150
1361.71	150
1363.08	140
1364.45	142
1365.81	164
1367.18	152
1368.54	148
1369.91	164
1371.28	206
1372.64	232
1374.01	296
1375.37	348
1376.73	390
1378.1	414
1379.46	424
1380.82	422
1382.19	406
1383.55	358
1384.91	314
1386.27	268
1387.63	238
1388.99	194
1390.35	164
1391.71	162
1393.07	164
1394.43	148
1395.79	152
1397.15	140
1398.51	136
1399.87	142
1401.23	132
1402.58	142
1403.94	132
1405.3	130
1406.65	136
1408.01	136
1409.37	134
1410.72	132
1412.08	138
1413.43	146
1414.79	150
1416.14	146
1417.49	160
1418.85	158
1420.2	162
1421.55	164
1422.91	176
1424.26	174
1425.61	180
1426.96	170
1428.31	198
1429.66	172
1431.01	192
1432.36	194
1433.71	206
1435.06	194
1436.41	210
1437.76	212
1439.11	216
1440.46	214
1441.81	206
1443.15	222
1444.5	190
1445.85	190
1447.19	188
1448.54	198
1449.89	164
1451.23	176
1452.58	168
1453.92	164
1455.27	168
1456.61	164
1457.95	156
1459.3	172
1460.64	158
1461.98	166
1463.33	164
1464.67	156
1466.01	160
1467.35	158
1468.69	152
1470.03	148
1471.37	144
1472.71	138
1474.05	154
1475.39	152
1476.73	144
1478.07	142
1479.41	150
1480.75	138
1482.09	144
1483.42	128
1484.76	128
1486.1	128
1487.43	134
1488.77	132
1490.11	126
1491.44	130
1492.78	124
1494.11	114
1495.45	116
1496.78	114
1498.12	120
1499.45	118
1500.78	118
1502.11	106
1503.45	106
1504.78	116
1506.11	116
1507.44	112
1508.77	110
1510.11	112
1511.44	118
1512.77	116
1514.1	106
1515.43	112
1516.76	116
1518.08	102
1519.41	108
1520.74	112
1522.07	114
1523.4	122
1524.72	118
1526.05	112
1527.38	108
1528.7	112
1530.03	118
1531.36	114
1532.68	104
1534.01	100
1535.33	108
1536.66	106
1537.98	104
1539.3	104
1540.63	106
1541.95	108
1543.27	98
1544.6	114
1545.92	120
1547.24	104
1548.56	100
1549.88	104
1551.2	114
1552.52	116
1553.84	104
1555.17	110
1556.48	114
1557.8	116
1559.12	118
1560.44	108
1561.76	108
1563.08	102
1564.4	116
1565.71	114
1567.03	110
1568.35	110
1569.66	116
1570.98	120
1572.29	120
1573.61	128
1574.93	120
1576.24	132
1577.55	136
1578.87	146
1580.18	140
1581.5	156
1582.81	156
1584.12	184
1585.43	184
1586.75	202
1588.06	220
1589.37	236
1590.68	266
1591.99	286
1593.3	302
1594.61	336
1595.92	372
1597.23	416
1598.54	438
1599.85	452
1601.16	482
1602.47	480
1603.78	462
1605.08	474
1606.39	426
1607.7	426
1609	406
1610.31	390
1611.62	336
1612.92	306
1614.23	294
1615.53	264
1616.84	234
1618.14	212
1619.45	190
1620.75	160
1622.06	158
1623.36	146
1624.66	132
1625.96	118
1627.27	120
1628.57	120
1629.87	110
1631.17	114
1632.47	104
1633.77	100
1635.07	104
1636.37	90
1637.67	94
1638.97	94
1640.27	88
1641.57	96
1642.87	92
1644.17	88
1645.47	88
1646.76	80
1648.06	84
1649.36	90
1650.66	86
1651.95	88
1653.25	84
1654.54	86
1655.84	80
1657.13	80
1658.43	80
1659.72	90
1661.02	76
1662.31	90
1663.6	82
1664.9	84
1666.19	78
1667.48	80
1668.78	72
1670.07	82
1671.36	78
1672.65	76
1673.94	84
1675.23	74
1676.52	88
1677.81	76
1679.1	70
1680.39	68
1681.68	78
1682.97	80
1684.26	72
1685.55	82
1686.83	74
1688.12	74
1689.41	82
1690.7	80
1691.98	82
1693.27	90
1694.55	78
1695.84	84
1697.13	74
1698.41	76
1699.69	74
1700.98	74
1702.26	78