File: Mixture_Classification/Jesse_Dataset_v2/Pure Raman/Polypropylene oxide/785nm/ps-ppo-6jan25-0,0000-map2_Y09_X04.txt
204.377	312
206.045	314
207.713	298
209.38	314
211.048	302
212.715	304
214.381	296
216.047	286
217.712	282
219.377	306
221.042	334
222.706	366
224.369	422
226.032	482
227.695	574
229.357	656
231.019	770
232.68	836
234.341	844
236.001	820
237.661	796
239.321	732
240.98	674
242.639	576
244.297	560
245.955	484
247.612	454
249.268	380
250.924	362
252.58	310
254.236	292
255.891	262
257.546	252
259.2	224
260.854	196
262.507	174
264.16	172
265.812	182
267.463	172
269.115	158
270.766	160
272.417	152
274.067	166
275.717	152
277.365	148
279.014	178
280.663	176
282.311	200
283.958	198
285.605	222
287.252	252
288.898	280
290.543	328
292.188	348
293.833	364
295.477	402
297.121	378
298.765	364
300.407	332
302.05	310
303.693	282
305.334	260
306.975	246
308.615	234
310.256	226
311.896	228
313.535	214
315.175	202
316.813	212
318.451	204
320.089	206
321.726	214
323.362	200
324.999	198
326.635	208
328.271	214
329.905	230
331.54	238
333.174	216
334.807	236
336.441	224
338.074	212
339.707	192
341.338	188
342.969	178
344.601	196
346.231	168
347.861	184
349.491	198
351.12	184
352.749	172
354.378	182
356.006	176
357.633	186
359.261	184
360.887	170
362.513	158
364.139	168
365.764	164
367.39	164
369.014	160
370.638	164
372.261	170
373.884	170
375.508	174
377.13	170
378.752	150
380.373	134
381.994	140
383.615	130
385.235	130
386.854	126
388.473	114
390.092	118
391.711	112
393.328	110
394.947	126
396.564	118
398.181	116
399.797	108
401.412	104
403.027	108
404.642	116
406.257	120
407.871	132
409.484	150
411.098	160
412.711	184
414.323	180
415.935	184
417.547	174
419.158	150
420.768	144
422.378	142
423.988	124
425.597	116
427.206	110
428.814	94
430.422	104
432.03	92
433.637	94
435.243	96
436.85	76
438.456	76
440.062	72
441.666	74
443.271	82
444.876	68
446.479	70
448.082	76
449.685	68
451.287	70
452.89	72
454.492	70
456.092	70
457.693	72
459.293	76
460.893	72
462.492	90
464.092	92
465.691	82
467.288	110
468.887	116
470.483	122
472.081	128
473.677	150
475.273	162
476.869	170
478.463	192
480.059	214
481.653	236
483.247	240
484.84	246
486.433	248
488.026	206
489.618	172
491.21	156
492.801	126
494.392	130
495.983	116
497.573	102
499.162	96
500.752	90
502.341	86
503.929	88
505.517	92
507.105	104
508.692	106
510.279	140
511.865	180
513.45	182
515.037	160
516.621	154
518.206	130
519.79	126
521.374	130
522.957	140
524.54	140
526.123	160
527.705	180
529.287	204
530.868	216
532.448	280
534.029	316
535.609	348
537.188	366
538.768	382
540.346	386
541.925	342
543.502	298
545.08	268
546.657	218
548.234	188
549.81	178
551.386	182
552.961	164
554.536	178
556.11	208
557.684	218
559.258	274
560.832	358
562.405	468
563.977	606
565.55	846
567.12	1246
568.692	1644
570.263	1952
571.833	1968
573.403	1676
574.973	1250
576.542	828
578.111	550
579.679	426
581.247	342
582.815	290
584.382	310
585.948	292
587.514	270
589.081	240
590.645	242
592.211	220
593.775	232
595.339	198
596.904	214
598.466	178
600.03	166
601.592	130
603.154	110
604.715	104
606.277	100
607.838	92
609.398	80
610.958	78
612.518	84
614.077	82
615.636	84
617.194	84
618.753	84
620.31	94
621.867	94
623.424	96
624.98	108
626.537	104
628.092	108
629.647	120
631.202	118
632.756	128
634.31	134
635.864	132
637.417	142
638.969	124
640.521	122
642.074	118
643.625	108
645.176	106
646.726	96
648.276	96
649.827	88
651.376	80
652.925	82
654.473	76
656.021	70
657.569	64
659.117	70
660.664	74
662.21	68
663.757	68
665.302	62
666.847	68
668.392	58
669.937	52
671.481	62
673.025	58
674.568	58
676.111	54
677.653	60
679.195	50
680.737	56
682.279	62
683.82	54
685.36	66
686.9	60
688.44	58
689.979	60
691.517	56
693.056	54
694.594	52
696.132	48
697.669	56
699.206	56
700.742	56
702.278	52
703.814	68
705.35	64
706.884	68
708.419	68
709.953	76
711.487	70
713.019	82
714.552	86
716.085	88
717.617	82
719.148	74
720.68	68
722.21	68
723.741	72
725.271	68
726.8	70
728.33	74
729.858	68
731.387	72
732.915	60
734.443	76
735.97	76
737.497	76
739.023	78
740.549	82
742.075	92
743.6	102
745.125	114
746.65	124
748.173	128
749.697	118
751.22	104
752.743	104
754.266	102
755.788	102
757.309	96
758.831	72
760.351	76
761.871	68
763.392	68
764.912	60
766.431	66
767.95	60
769.468	64
770.986	68
772.504	68
774.022	66
775.538	66
777.055	74
778.571	74
780.086	72
781.602	66
783.117	68
784.632	70
786.146	68
787.659	62
789.173	62
790.685	62
792.198	72
793.71	58
795.222	56
796.733	60
798.244	62
799.755	58
801.265	64
802.775	60
804.284	60
805.793	68
807.302	72
808.81	70
810.318	66
811.826	66
813.333	72
814.84	66
816.346	72
817.851	76
819.357	78
820.862	80
822.367	98
823.871	96
825.376	104
826.878	148
828.382	180
829.885	296
831.387	410
832.889	488
834.391	448
835.892	338
837.392	206
838.893	146
840.393	124
841.893	100
843.392	84
844.891	84
846.389	80
847.888	96
849.386	94
850.882	80
852.38	78
853.876	76
855.372	80
856.868	76
858.363	80
859.858	82
861.353	74
862.847	78
864.341	68
865.834	70
867.328	64
868.82	58
870.313	60
871.805	60
873.296	50
874.787	64
876.278	60
877.769	60
879.258	62
880.748	54
882.237	58
883.726	60
885.214	54
886.702	60
888.19	64
889.677	58
891.164	58
892.651	56
894.137	58
895.623	52
897.108	54
898.593	52
900.077	52
901.562	50
903.046	54
904.529	50
906.012	62
907.495	52
908.977	50
910.459	52
911.941	58
913.422	52
914.903	54
916.383	60
917.863	50
919.343	56
920.822	54
922.301	62
923.779	58
925.257	56
926.735	54
928.213	58
929.69	58
931.166	58
932.643	60
934.119	62
935.594	64
937.069	64
938.543	62
940.018	70
941.492	74
942.966	80
944.439	76
945.911	80
947.384	94
948.856	116
950.328	124
951.799	164
953.27	184
954.741	202
956.21	266
957.68	300
959.15	308
960.619	314
962.088	310
963.556	300
965.023	246
966.491	204
967.958	190
969.425	178
970.891	164
972.357	126
973.824	118
975.288	108
976.754	94
978.218	78
979.682	74
981.146	68
982.609	74
984.072	64
985.534	62
986.997	58
988.459	66
989.92	70
991.382	60
992.842	66
994.302	62
995.763	58
997.222	56
998.681	64
1000.14	60
1001.6	66
1003.06	56
1004.52	54
1005.97	58
1007.43	56
1008.89	58
1010.34	54
1011.8	60
1013.25	62
1014.71	62
1016.16	64
1017.62	70
1019.07	68
1020.53	76
1021.98	74
1023.43	76
1024.89	80
1026.34	80
1027.79	74
1029.24	86
1030.69	88
1032.14	80
1033.59	88
1035.04	84
1036.49	86
1037.94	84
1039.39	82
1040.84	86
1042.29	78
1043.73	80
1045.18	74
1046.63	60
1048.08	66
1049.52	62
1050.97	64
1052.41	64
1053.86	70
1055.3	60
1056.75	64
1058.19	64
1059.64	54
1061.08	56
1062.52	58
1063.96	64
1065.41	62
1066.85	58
1068.29	54
1069.73	66
1071.17	64
1072.61	62
1074.05	56
1075.49	58
1076.93	60
1078.37	58
1079.81	64
1081.25	60
1082.68	62
1084.12	48
1085.56	56
1087	60
1088.43	68
1089.87	60
1091.3	66
1092.74	60
1094.17	68
1095.61	66
1097.04	68
1098.48	68
1099.91	70
1101.34	72
1102.78	68
1104.21	92
1105.64	100
1107.07	118
1108.5	174
1109.93	232
1111.36	282
1112.8	302
1114.22	274
1115.65	218
1117.08	168
1118.51	132
1119.94	118
1121.37	98
1122.8	96
1124.22	92
1125.65	92
1127.08	88
1128.5	82
1129.93	82
1131.35	82
1132.78	74
1134.2	72
1135.63	78
1137.05	80
1138.48	78
1139.9	70
1141.32	88
1142.75	84
1144.17	78
1145.59	78
1147.01	72
1148.43	70
1149.85	70
1151.27	72
1152.69	80
1154.11	74
1155.53	74
1156.95	74
1158.37	78
1159.79	76
1161.21	82
1162.62	88
1164.04	86
1165.46	88
1166.87	76
1168.29	68
1169.71	76
1171.12	78
1172.54	84
1173.95	76
1175.37	86
1176.78	92
1178.19	104
1179.61	114
1181.02	128
1182.43	160
1183.84	166
1185.26	188
1186.67	204
1188.08	196
1189.49	184
1190.9	162
1192.31	150
1193.72	134
1195.13	134
1196.54	128
1197.95	144
1199.36	156
1200.76	148
1202.17	150
1203.58	154
1204.99	144
1206.39	138
1207.8	122
1209.2	122
1210.61	106
1212.01	94
1213.42	88
1214.82	84
1216.23	84
1217.63	74
1219.03	88
1220.44	88
1221.84	90
1223.24	86
1224.64	92
1226.05	92
1227.45	106
1228.85	122
1230.25	112
1231.65	114
1233.05	96
1234.45	106
1235.85	86
1237.25	72
1238.64	86
1240.04	74
1241.44	88
1242.84	68
1244.23	76
1245.63	82
1247.03	76
1248.42	80
1249.82	82
1251.21	80
1252.61	84
1254	86
1255.4	84
1256.79	80
1258.19	84
1259.58	80
1260.97	90
1262.36	90
1263.76	84
1265.15	86
1266.54	84
1267.93	94
1269.32	92
1270.71	82
1272.1	98
1273.49	92
1274.88	100
1276.27	98
1277.66	100
1279.05	118
1280.43	102
1281.82	112
1283.21	118
1284.6	128
1285.98	136
1287.37	140
1288.75	130
1290.14	142
1291.53	154
1292.91	160
1294.29	188
1295.68	212
1297.06	258
1298.45	300
1299.83	370
1301.21	464
1302.59	586
1303.98	640
1305.36	650
1306.74	652
1308.12	542
1309.5	450
1310.88	374
1312.26	274
1313.64	256
1315.02	232
1316.4	214
1317.78	178
1319.16	182
1320.53	178
1321.91	174
1323.29	152
1324.67	154
1326.04	158
1327.42	164
1328.79	164
1330.17	156
1331.54	142
1332.92	152
1334.29	150
1335.67	138
1337.04	120
1338.42	136
1339.79	136
1341.16	126
1342.53	128
1343.91	144
1345.28	152
1346.65	140
1348.02	138
1349.39	154
1350.76	150
1352.13	152
1353.5	150
1354.87	146
1356.24	138
1357.61	140
1358.98	128
1360.34	144
1361.71	136
1363.08	140
1364.45	138
1365.81	142
1367.18	140
1368.54	148
1369.91	160
1371.28	156
1372.64	204
1374.01	256
1375.37	302
1376.73	324
1378.1	352
1379.46	348
1380.82	364
1382.19	344
1383.55	306
1384.91	276
1386.27	246
1387.63	210
1388.99	166
1390.35	158
1391.71	142
1393.07	134
1394.43	136
1395.79	118
1397.15	124
1398.51	118
1399.87	122
1401.23	116
1402.58	116
1403.94	126
1405.3	126
1406.65	116
1408.01	122
1409.37	122
1410.72	128
1412.08	122
1413.43	130
1414.79	120
1416.14	134
1417.49	142
1418.85	138
1420.2	150
1421.55	150
1422.91	158
1424.26	168
1425.61	164
1426.96	160
1428.31	164
1429.66	166
1431.01	168
1432.36	164
1433.71	170
1435.06	178
1436.41	176
1437.76	176
1439.11	204
1440.46	188
1441.81	194
1443.15	190
1444.5	184
1445.85	172
1447.19	180
1448.54	154
1449.89	162
1451.23	134
1452.58	146
1453.92	150
1455.27	148
1456.61	144
1457.95	136
1459.3	140
1460.64	142
1461.98	136
1463.33	140
1464.67	148
1466.01	142
1467.35	136
1468.69	130
1470.03	134
1471.37	134
1472.71	130
1474.05	128
1475.39	132
1476.73	128
1478.07	132
1479.41	128
1480.75	114
1482.09	126
1483.42	116
1484.76	112
1486.1	118
1487.43	104
1488.77	112
1490.11	110
1491.44	110
1492.78	110
1494.11	110
1495.45	108
1496.78	102
1498.12	108
1499.45	106
1500.78	104
1502.11	96
1503.45	116
1504.78	110
1506.11	102
1507.44	102
1508.77	106
1510.11	102
1511.44	98
1512.77	108
1514.1	106
1515.43	94
1516.76	106
1518.08	94
1519.41	102
1520.74	104
1522.07	94
1523.4	94
1524.72	98
1526.05	96
1527.38	100
1528.7	96
1530.03	102
1531.36	94
1532.68	102
1534.01	98
1535.33	98
1536.66	94
1537.98	86
1539.3	102
1540.63	102
1541.95	92
1543.27	92
1544.6	100
1545.92	94
1547.24	98
1548.56	100
1549.88	92
1551.2	106
1552.52	100
1553.84	90
1555.17	104
1556.48	102
1557.8	104
1559.12	96
1560.44	98
1561.76	96
1563.08	108
1564.4	100
1565.71	100
1567.03	106
1568.35	100
1569.66	106
1570.98	106
1572.29	102
1573.61	118
1574.93	116
1576.24	120
1577.55	120
1578.87	128
1580.18	140
1581.5	132
1582.81	134
1584.12	154
1585.43	162
1586.75	188
1588.06	186
1589.37	222
1590.68	228
1591.99	242
1593.3	260
1594.61	300
1595.92	308
1597.23	348
1598.54	380
1599.85	392
1601.16	414
1602.47	420
1603.78	388
1605.08	376
1606.39	354
1607.7	334
1609	316
1610.31	292
1611.62	286
1612.92	270
1614.23	230
1615.53	212
1616.84	196
1618.14	186
1619.45	154
1620.75	150
1622.06	134
1623.36	130
1624.66	134
1625.96	110
1627.27	104
1628.57	106
1629.87	106
1631.17	86
1632.47	94
1633.77	94
1635.07	92
1636.37	88
1637.67	84
1638.97	78
1640.27	76
1641.57	90
1642.87	82
1644.17	82
1645.47	68
1646.76	76
1648.06	86
1649.36	74
1650.66	88
1651.95	80
1653.25	74
1654.54	72
1655.84	72
1657.13	76
1658.43	74
1659.72	70
1661.02	82
1662.31	70
1663.6	84
1664.9	72
1666.19	70
1667.48	80
1668.78	78
1670.07	72
1671.36	64
1672.65	70
1673.94	76
1675.23	72
1676.52	76
1677.81	72
1679.1	68
1680.39	72
1681.68	72
1682.97	74
1684.26	72
1685.55	76
1686.83	78
1688.12	74
1689.41	70
1690.7	76
1691.98	76
1693.27	76
1694.55	78
1695.84	80
1697.13	68
1698.41	82
1699.69	72
1700.98	66
1702.26	70