File: Mixture_Classification/Jesse_Dataset_v2/Pure Raman/Polypropylene oxide/785nm/ps-ppo-6jan25-0,0000-map2_Y05_X01.txt
204.377	386
206.045	378
207.713	376
209.38	362
211.048	336
212.715	340
214.381	338
216.047	332
217.712	358
219.377	352
221.042	390
222.706	430
224.369	484
226.032	584
227.695	672
229.357	812
231.019	928
232.68	976
234.341	1000
236.001	1006
237.661	936
239.321	870
240.98	788
242.639	732
244.297	662
245.955	582
247.612	530
249.268	468
250.924	416
252.58	364
254.236	336
255.891	294
257.546	270
259.2	264
260.854	230
262.507	222
264.16	210
265.812	200
267.463	196
269.115	200
270.766	174
272.417	184
274.067	180
275.717	176
277.365	202
279.014	186
280.663	192
282.311	224
283.958	246
285.605	252
287.252	294
288.898	326
290.543	384
292.188	400
293.833	430
295.477	458
297.121	444
298.765	422
300.407	380
302.05	354
303.693	326
305.334	290
306.975	302
308.615	274
310.256	280
311.896	244
313.535	246
315.175	234
316.813	224
318.451	222
320.089	236
321.726	232
323.362	226
324.999	238
326.635	234
328.271	248
329.905	260
331.54	258
333.174	268
334.807	268
336.441	242
338.074	242
339.707	232
341.338	224
342.969	226
344.601	210
346.231	214
347.861	214
349.491	220
351.12	230
352.749	196
354.378	222
356.006	222
357.633	218
359.261	212
360.887	198
362.513	182
364.139	188
365.764	196
367.39	184
369.014	208
370.638	196
372.261	208
373.884	198
375.508	192
377.13	186
378.752	176
380.373	170
381.994	154
383.615	144
385.235	138
386.854	132
388.473	138
390.092	144
391.711	130
393.328	128
394.947	130
396.564	134
398.181	134
399.797	134
401.412	124
403.027	140
404.642	130
406.257	156
407.871	158
409.484	170
411.098	190
412.711	210
414.323	228
415.935	210
417.547	206
419.158	182
420.768	158
422.378	162
423.988	142
425.597	138
427.206	124
428.814	116
430.422	116
432.03	102
433.637	102
435.243	94
436.85	98
438.456	92
440.062	76
441.666	84
443.271	88
444.876	84
446.479	82
448.082	82
449.685	76
451.287	76
452.89	86
454.492	82
456.092	84
457.693	82
459.293	84
460.893	90
462.492	92
464.092	102
465.691	106
467.288	112
468.887	124
470.483	140
472.081	154
473.677	172
475.273	188
476.869	210
478.463	220
480.059	252
481.653	264
483.247	276
484.84	292
486.433	288
488.026	246
489.618	198
491.21	174
492.801	166
494.392	144
495.983	136
497.573	118
499.162	104
500.752	96
502.341	98
503.929	102
505.517	100
507.105	118
508.692	132
510.279	164
511.865	210
513.45	222
515.037	214
516.621	168
518.206	144
519.79	146
521.374	134
522.957	146
524.54	174
526.123	168
527.705	210
529.287	246
530.868	264
532.448	322
534.029	378
535.609	416
537.188	452
538.768	458
540.346	444
541.925	438
543.502	350
545.08	292
546.657	264
548.234	232
549.81	206
551.386	204
552.961	212
554.536	222
556.11	226
557.684	256
559.258	338
560.832	408
562.405	548
563.977	708
565.55	1032
567.12	1430
568.692	1934
570.263	2368
571.833	2410
573.403	2006
574.973	1516
576.542	1024
578.111	726
579.679	528
581.247	414
582.815	364
584.382	354
585.948	338
587.514	310
589.081	286
590.645	280
592.211	288
593.775	270
595.339	254
596.904	240
598.466	202
600.03	186
601.592	148
603.154	128
604.715	112
606.277	114
607.838	100
609.398	90
610.958	96
612.518	94
614.077	92
615.636	96
617.194	94
618.753	102
620.31	98
621.867	114
623.424	110
624.98	114
626.537	126
628.092	128
629.647	140
631.202	140
632.756	144
634.31	148
635.864	158
637.417	148
638.969	148
640.521	136
642.074	124
643.625	120
645.176	104
646.726	106
648.276	96
649.827	94
651.376	94
652.925	84
654.473	92
656.021	84
657.569	86
659.117	70
660.664	74
662.21	74
663.757	70
665.302	66
666.847	62
668.392	62
669.937	60
671.481	62
673.025	64
674.568	66
676.111	64
677.653	54
679.195	60
680.737	62
682.279	66
683.82	66
685.36	62
686.9	68
688.44	60
689.979	68
691.517	60
693.056	64
694.594	56
696.132	60
697.669	58
699.206	58
700.742	62
702.278	62
703.814	60
705.35	68
706.884	74
708.419	78
709.953	76
711.487	84
713.019	92
714.552	86
716.085	108
717.617	84
719.148	88
720.68	80
722.21	70
723.741	74
725.271	76
726.8	74
728.33	84
729.858	80
731.387	78
732.915	70
734.443	76
735.97	80
737.497	82
739.023	86
740.549	100
742.075	100
743.6	108
745.125	128
746.65	140
748.173	144
749.697	130
751.22	120
752.743	132
754.266	118
755.788	122
757.309	102
758.831	76
760.351	80
761.871	74
763.392	80
764.912	68
766.431	74
767.95	66
769.468	74
770.986	78
772.504	70
774.022	70
775.538	74
777.055	80
778.571	76
780.086	86
781.602	84
783.117	74
784.632	74
786.146	72
787.659	66
789.173	68
790.685	62
792.198	76
793.71	58
795.222	64
796.733	62
798.244	72
799.755	66
801.265	74
802.775	72
804.284	80
805.793	82
807.302	76
808.81	72
810.318	74
811.826	86
813.333	72
814.84	76
816.346	80
817.851	80
819.357	82
820.862	94
822.367	98
823.871	112
825.376	146
826.878	160
828.382	244
829.885	352
831.387	490
832.889	590
834.391	528
835.892	410
837.392	258
838.893	186
840.393	134
841.893	116
843.392	96
844.891	96
846.389	98
847.888	108
849.386	110
850.882	88
852.38	88
853.876	80
855.372	84
856.868	80
858.363	88
859.858	76
861.353	76
862.847	84
864.341	76
865.834	70
867.328	72
868.82	78
870.313	70
871.805	72
873.296	68
874.787	62
876.278	60
877.769	62
879.258	58
880.748	60
882.237	62
883.726	62
885.214	60
886.702	54
888.19	56
889.677	62
891.164	52
892.651	64
894.137	60
895.623	64
897.108	56
898.593	50
900.077	62
901.562	56
903.046	62
904.529	54
906.012	58
907.495	56
908.977	54
910.459	58
911.941	52
913.422	60
914.903	56
916.383	56
917.863	60
919.343	58
920.822	54
922.301	56
923.779	62
925.257	62
926.735	62
928.213	58
929.69	66
931.166	54
932.643	66
934.119	62
935.594	58
937.069	66
938.543	72
940.018	74
941.492	84
942.966	82
944.439	92
945.911	106
947.384	106
948.856	124
950.328	156
951.799	188
953.27	210
954.741	250
956.21	298
957.68	344
959.15	370
960.619	380
962.088	358
963.556	344
965.023	292
966.491	270
967.958	240
969.425	204
970.891	180
972.357	148
973.824	130
975.288	112
976.754	106
978.218	98
979.682	84
981.146	78
982.609	76
984.072	76
985.534	78
986.997	74
988.459	72
989.92	80
991.382	72
992.842	74
994.302	72
995.763	68
997.222	60
998.681	64
1000.14	66
1001.6	62
1003.06	66
1004.52	70
1005.97	60
1007.43	64
1008.89	62
1010.34	60
1011.8	64
1013.25	58
1014.71	64
1016.16	66
1017.62	68
1019.07	72
1020.53	80
1021.98	70
1023.43	78
1024.89	86
1026.34	88
1027.79	94
1029.24	82
1030.69	92
1032.14	102
1033.59	106
1035.04	98
1036.49	100
1037.94	100
1039.39	92
1040.84	94
1042.29	82
1043.73	78
1045.18	74
1046.63	66
1048.08	72
1049.52	66
1050.97	78
1052.41	60
1053.86	66
1055.3	70
1056.75	66
1058.19	68
1059.64	62
1061.08	62
1062.52	66
1063.96	62
1065.41	64
1066.85	54
1068.29	62
1069.73	64
1071.17	62
1072.61	68
1074.05	58
1075.49	58
1076.93	62
1078.37	64
1079.81	62
1081.25	52
1082.68	68
1084.12	68
1085.56	60
1087	68
1088.43	70
1089.87	64
1091.3	66
1092.74	62
1094.17	70
1095.61	62
1097.04	70
1098.48	82
1099.91	76
1101.34	76
1102.78	90
1104.21	98
1105.64	108
1107.07	146
1108.5	184
1109.93	260
1111.36	326
1112.8	352
1114.22	318
1115.65	274
1117.08	206
1118.51	156
1119.94	134
1121.37	114
1122.8	106
1124.22	100
1125.65	102
1127.08	96
1128.5	92
1129.93	90
1131.35	84
1132.78	94
1134.2	84
1135.63	80
1137.05	84
1138.48	82
1139.9	84
1141.32	90
1142.75	88
1144.17	86
1145.59	74
1147.01	76
1148.43	76
1149.85	74
1151.27	74
1152.69	74
1154.11	76
1155.53	90
1156.95	86
1158.37	84
1159.79	88
1161.21	86
1162.62	88
1164.04	100
1165.46	78
1166.87	90
1168.29	90
1169.71	88
1171.12	90
1172.54	98
1173.95	86
1175.37	94
1176.78	110
1178.19	108
1179.61	142
1181.02	150
1182.43	178
1183.84	204
1185.26	212
1186.67	248
1188.08	232
1189.49	198
1190.9	184
1192.31	164
1193.72	162
1195.13	152
1196.54	148
1197.95	156
1199.36	166
1200.76	164
1202.17	170
1203.58	184
1204.99	162
1206.39	166
1207.8	154
1209.2	130
1210.61	114
1212.01	106
1213.42	92
1214.82	94
1216.23	90
1217.63	98
1219.03	94
1220.44	92
1221.84	88
1223.24	88
1224.64	104
1226.05	108
1227.45	112
1228.85	122
1230.25	146
1231.65	134
1233.05	126
1234.45	90
1235.85	104
1237.25	94
1238.64	94
1240.04	96
1241.44	90
1242.84	88
1244.23	84
1245.63	88
1247.03	90
1248.42	88
1249.82	90
1251.21	88
1252.61	88
1254	96
1255.4	86
1256.79	94
1258.19	100
1259.58	90
1260.97	100
1262.36	86
1263.76	98
1265.15	100
1266.54	94
1267.93	86
1269.32	102
1270.71	106
1272.1	96
1273.49	100
1274.88	106
1276.27	110
1277.66	120
1279.05	126
1280.43	124
1281.82	136
1283.21	132
1284.6	142
1285.98	156
1287.37	152
1288.75	152
1290.14	162
1291.53	178
1292.91	202
1294.29	212
1295.68	230
1297.06	288
1298.45	336
1299.83	434
1301.21	538
1302.59	694
1303.98	764
1305.36	774
1306.74	752
1308.12	648
1309.5	498
1310.88	434
1312.26	340
1313.64	320
1315.02	276
1316.4	238
1317.78	226
1319.16	202
1320.53	206
1321.91	184
1323.29	198
1324.67	186
1326.04	182
1327.42	188
1328.79	180
1330.17	168
1331.54	174
1332.92	154
1334.29	154
1335.67	158
1337.04	144
1338.42	144
1339.79	150
1341.16	142
1342.53	154
1343.91	158
1345.28	158
1346.65	168
1348.02	172
1349.39	170
1350.76	174
1352.13	178
1353.5	152
1354.87	174
1356.24	154
1357.61	154
1358.98	140
1360.34	150
1361.71	152
1363.08	154
1364.45	146
1365.81	150
1367.18	172
1368.54	170
1369.91	174
1371.28	190
1372.64	230
1374.01	274
1375.37	348
1376.73	412
1378.1	416
1379.46	454
1380.82	402
1382.19	416
1383.55	356
1384.91	334
1386.27	290
1387.63	240
1388.99	206
1390.35	168
1391.71	156
1393.07	156
1394.43	154
1395.79	142
1397.15	142
1398.51	136
1399.87	136
1401.23	136
1402.58	134
1403.94	140
1405.3	138
1406.65	138
1408.01	128
1409.37	146
1410.72	150
1412.08	130
1413.43	148
1414.79	150
1416.14	148
1417.49	158
1418.85	174
1420.2	178
1421.55	182
1422.91	182
1424.26	188
1425.61	182
1426.96	184
1428.31	188
1429.66	182
1431.01	200
1432.36	198
1433.71	198
1435.06	206
1436.41	202
1437.76	228
1439.11	222
1440.46	236
1441.81	218
1443.15	212
1444.5	194
1445.85	210
1447.19	190
1448.54	180
1449.89	170
1451.23	178
1452.58	170
1453.92	158
1455.27	160
1456.61	168
1457.95	162
1459.3	160
1460.64	164
1461.98	154
1463.33	152
1464.67	156
1466.01	146
1467.35	150
1468.69	152
1470.03	156
1471.37	148
1472.71	158
1474.05	158
1475.39	144
1476.73	162
1478.07	150
1479.41	146
1480.75	134
1482.09	146
1483.42	138
1484.76	118
1486.1	130
1487.43	130
1488.77	116
1490.11	116
1491.44	114
1492.78	118
1494.11	124
1495.45	130
1496.78	118
1498.12	116
1499.45	118
1500.78	110
1502.11	106
1503.45	120
1504.78	114
1506.11	116
1507.44	112
1508.77	114
1510.11	116
1511.44	112
1512.77	114
1514.1	102
1515.43	114
1516.76	112
1518.08	106
1519.41	106
1520.74	108
1522.07	108
1523.4	106
1524.72	102
1526.05	102
1527.38	116
1528.7	102
1530.03	116
1531.36	110
1532.68	106
1534.01	104
1535.33	100
1536.66	100
1537.98	104
1539.3	102
1540.63	104
1541.95	102
1543.27	98
1544.6	118
1545.92	120
1547.24	100
1548.56	108
1549.88	112
1551.2	112
1552.52	116
1553.84	100
1555.17	118
1556.48	98
1557.8	110
1559.12	114
1560.44	100
1561.76	118
1563.08	114
1564.4	106
1565.71	110
1567.03	116
1568.35	114
1569.66	124
1570.98	124
1572.29	126
1573.61	132
1574.93	128
1576.24	136
1577.55	138
1578.87	146
1580.18	148
1581.5	168
1582.81	158
1584.12	178
1585.43	188
1586.75	210
1588.06	210
1589.37	230
1590.68	258
1591.99	306
1593.3	324
1594.61	340
1595.92	364
1597.23	392
1598.54	420
1599.85	458
1601.16	490
1602.47	486
1603.78	480
1605.08	462
1606.39	448
1607.7	402
1609	394
1610.31	362
1611.62	332
1612.92	316
1614.23	270
1615.53	252
1616.84	224
1618.14	210
1619.45	186
1620.75	172
1622.06	160
1623.36	142
1624.66	128
1625.96	124
1627.27	128
1628.57	124
1629.87	118
1631.17	104
1632.47	104
1633.77	96
1635.07	98
1636.37	98
1637.67	96
1638.97	98
1640.27	82
1641.57	94
1642.87	104
1644.17	96
1645.47	80
1646.76	88
1648.06	92
1649.36	90
1650.66	78
1651.95	92
1653.25	88
1654.54	84
1655.84	86
1657.13	80
1658.43	80
1659.72	82
1661.02	82
1662.31	80
1663.6	82
1664.9	80
1666.19	82
1667.48	82
1668.78	74
1670.07	82
1671.36	80
1672.65	84
1673.94	78
1675.23	72
1676.52	78
1677.81	76
1679.1	78
1680.39	80
1681.68	78
1682.97	74
1684.26	76
1685.55	80
1686.83	82
1688.12	74
1689.41	78
1690.7	86
1691.98	82
1693.27	74
1694.55	82
1695.84	84
1697.13	86
1698.41	74
1699.69	82
1700.98	78
1702.26	78