File: Mixture_Classification/Jesse_Dataset_v2/Pure Raman/Polypropylene oxide/785nm/ps-ppo-6jan25-0,0000-map2_Y09_X05.txt
204.377	346
206.045	330
207.713	348
209.38	324
211.048	300
212.715	314
214.381	292
216.047	302
217.712	310
219.377	332
221.042	358
222.706	374
224.369	442
226.032	514
227.695	616
229.357	698
231.019	824
232.68	838
234.341	902
236.001	866
237.661	842
239.321	776
240.98	716
242.639	630
244.297	594
245.955	520
247.612	480
249.268	416
250.924	376
252.58	326
254.236	302
255.891	276
257.546	244
259.2	224
260.854	202
262.507	186
264.16	200
265.812	174
267.463	174
269.115	172
270.766	164
272.417	160
274.067	160
275.717	156
277.365	170
279.014	182
280.663	178
282.311	194
283.958	214
285.605	238
287.252	266
288.898	308
290.543	330
292.188	378
293.833	392
295.477	408
297.121	408
298.765	352
300.407	368
302.05	318
303.693	284
305.334	284
306.975	272
308.615	256
310.256	242
311.896	224
313.535	222
315.175	210
316.813	210
318.451	202
320.089	204
321.726	218
323.362	210
324.999	224
326.635	214
328.271	224
329.905	222
331.54	222
333.174	264
334.807	250
336.441	234
338.074	236
339.707	222
341.338	220
342.969	204
344.601	198
346.231	194
347.861	200
349.491	200
351.12	188
352.749	202
354.378	206
356.006	196
357.633	188
359.261	206
360.887	172
362.513	168
364.139	174
365.764	166
367.39	172
369.014	184
370.638	184
372.261	182
373.884	178
375.508	172
377.13	172
378.752	146
380.373	146
381.994	144
383.615	132
385.235	128
386.854	120
388.473	136
390.092	124
391.711	128
393.328	126
394.947	122
396.564	114
398.181	114
399.797	116
401.412	128
403.027	118
404.642	124
406.257	128
407.871	148
409.484	168
411.098	170
412.711	182
414.323	196
415.935	206
417.547	184
419.158	162
420.768	150
422.378	158
423.988	124
425.597	118
427.206	104
428.814	102
430.422	96
432.03	90
433.637	88
435.243	94
436.85	86
438.456	78
440.062	88
441.666	82
443.271	72
444.876	80
446.479	78
448.082	72
449.685	78
451.287	68
452.89	76
454.492	76
456.092	78
457.693	76
459.293	70
460.893	72
462.492	90
464.092	92
465.691	100
467.288	110
468.887	122
470.483	132
472.081	142
473.677	160
475.273	154
476.869	178
478.463	212
480.059	224
481.653	236
483.247	240
484.84	272
486.433	256
488.026	216
489.618	200
491.21	152
492.801	152
494.392	138
495.983	116
497.573	102
499.162	100
500.752	92
502.341	100
503.929	94
505.517	98
507.105	104
508.692	120
510.279	146
511.865	194
513.45	214
515.037	190
516.621	154
518.206	148
519.79	140
521.374	136
522.957	154
524.54	144
526.123	158
527.705	188
529.287	214
530.868	238
532.448	286
534.029	316
535.609	376
537.188	398
538.768	392
540.346	386
541.925	386
543.502	316
545.08	290
546.657	234
548.234	200
549.81	182
551.386	180
552.961	176
554.536	192
556.11	224
557.684	260
559.258	296
560.832	352
562.405	480
563.977	664
565.55	936
567.12	1258
568.692	1788
570.263	2106
571.833	2138
573.403	1792
574.973	1290
576.542	928
578.111	612
579.679	464
581.247	358
582.815	312
584.382	302
585.948	292
587.514	284
589.081	264
590.645	240
592.211	236
593.775	228
595.339	240
596.904	224
598.466	194
600.03	170
601.592	132
603.154	124
604.715	114
606.277	104
607.838	96
609.398	88
610.958	78
612.518	84
614.077	82
615.636	92
617.194	82
618.753	90
620.31	92
621.867	86
623.424	106
624.98	106
626.537	104
628.092	128
629.647	132
631.202	136
632.756	132
634.31	140
635.864	144
637.417	138
638.969	134
640.521	124
642.074	116
643.625	108
645.176	102
646.726	94
648.276	98
649.827	94
651.376	84
652.925	88
654.473	68
656.021	68
657.569	84
659.117	74
660.664	72
662.21	64
663.757	66
665.302	64
666.847	58
668.392	64
669.937	60
671.481	58
673.025	62
674.568	60
676.111	62
677.653	54
679.195	52
680.737	54
682.279	66
683.82	64
685.36	56
686.9	66
688.44	56
689.979	54
691.517	62
693.056	56
694.594	52
696.132	60
697.669	54
699.206	60
700.742	46
702.278	60
703.814	54
705.35	62
706.884	70
708.419	66
709.953	74
711.487	78
713.019	92
714.552	86
716.085	90
717.617	86
719.148	78
720.68	82
722.21	72
723.741	68
725.271	68
726.8	66
728.33	72
729.858	62
731.387	74
732.915	76
734.443	74
735.97	78
737.497	80
739.023	80
740.549	90
742.075	92
743.6	96
745.125	122
746.65	130
748.173	126
749.697	126
751.22	120
752.743	114
754.266	106
755.788	104
757.309	98
758.831	84
760.351	68
761.871	68
763.392	66
764.912	68
766.431	62
767.95	70
769.468	66
770.986	62
772.504	72
774.022	70
775.538	68
777.055	66
778.571	68
780.086	74
781.602	78
783.117	74
784.632	70
786.146	66
787.659	68
789.173	64
790.685	68
792.198	60
793.71	62
795.222	58
796.733	58
798.244	64
799.755	58
801.265	68
802.775	62
804.284	60
805.793	74
807.302	68
808.81	72
810.318	68
811.826	70
813.333	60
814.84	72
816.346	68
817.851	82
819.357	70
820.862	92
822.367	94
823.871	104
825.376	136
826.878	154
828.382	218
829.885	294
831.387	456
832.889	532
834.391	480
835.892	354
837.392	224
838.893	164
840.393	120
841.893	104
843.392	98
844.891	90
846.389	90
847.888	92
849.386	88
850.882	82
852.38	84
853.876	86
855.372	88
856.868	82
858.363	74
859.858	72
861.353	80
862.847	78
864.341	72
865.834	62
867.328	64
868.82	62
870.313	62
871.805	58
873.296	62
874.787	62
876.278	60
877.769	60
879.258	58
880.748	66
882.237	60
883.726	54
885.214	56
886.702	56
888.19	54
889.677	56
891.164	58
892.651	58
894.137	56
895.623	54
897.108	56
898.593	58
900.077	60
901.562	52
903.046	50
904.529	54
906.012	48
907.495	52
908.977	54
910.459	58
911.941	54
913.422	54
914.903	52
916.383	56
917.863	52
919.343	60
920.822	52
922.301	54
923.779	62
925.257	54
926.735	56
928.213	52
929.69	56
931.166	56
932.643	62
934.119	62
935.594	62
937.069	68
938.543	66
940.018	68
941.492	70
942.966	82
944.439	80
945.911	96
947.384	102
948.856	114
950.328	140
951.799	172
953.27	194
954.741	244
956.21	278
957.68	290
959.15	352
960.619	316
962.088	326
963.556	270
965.023	262
966.491	230
967.958	202
969.425	182
970.891	174
972.357	146
973.824	118
975.288	96
976.754	96
978.218	76
979.682	84
981.146	72
982.609	72
984.072	68
985.534	72
986.997	66
988.459	68
989.92	66
991.382	74
992.842	66
994.302	66
995.763	64
997.222	62
998.681	64
1000.14	64
1001.6	64
1003.06	56
1004.52	56
1005.97	68
1007.43	52
1008.89	60
1010.34	60
1011.8	56
1013.25	66
1014.71	66
1016.16	70
1017.62	68
1019.07	72
1020.53	70
1021.98	80
1023.43	76
1024.89	76
1026.34	84
1027.79	84
1029.24	82
1030.69	90
1032.14	94
1033.59	86
1035.04	86
1036.49	90
1037.94	80
1039.39	92
1040.84	90
1042.29	82
1043.73	76
1045.18	76
1046.63	76
1048.08	66
1049.52	64
1050.97	64
1052.41	62
1053.86	68
1055.3	66
1056.75	58
1058.19	58
1059.64	68
1061.08	60
1062.52	62
1063.96	56
1065.41	60
1066.85	56
1068.29	62
1069.73	58
1071.17	58
1072.61	60
1074.05	54
1075.49	62
1076.93	54
1078.37	56
1079.81	62
1081.25	62
1082.68	66
1084.12	66
1085.56	60
1087	70
1088.43	60
1089.87	66
1091.3	62
1092.74	70
1094.17	68
1095.61	70
1097.04	64
1098.48	72
1099.91	80
1101.34	74
1102.78	88
1104.21	86
1105.64	102
1107.07	134
1108.5	188
1109.93	220
1111.36	280
1112.8	326
1114.22	290
1115.65	234
1117.08	184
1118.51	152
1119.94	124
1121.37	118
1122.8	96
1124.22	88
1125.65	96
1127.08	92
1128.5	74
1129.93	78
1131.35	84
1132.78	84
1134.2	84
1135.63	76
1137.05	78
1138.48	76
1139.9	88
1141.32	80
1142.75	80
1144.17	80
1145.59	84
1147.01	72
1148.43	70
1149.85	70
1151.27	64
1152.69	74
1154.11	78
1155.53	70
1156.95	74
1158.37	86
1159.79	86
1161.21	84
1162.62	86
1164.04	86
1165.46	86
1166.87	78
1168.29	86
1169.71	82
1171.12	78
1172.54	92
1173.95	84
1175.37	88
1176.78	90
1178.19	110
1179.61	122
1181.02	128
1182.43	152
1183.84	178
1185.26	218
1186.67	222
1188.08	202
1189.49	182
1190.9	180
1192.31	146
1193.72	150
1195.13	144
1196.54	138
1197.95	144
1199.36	152
1200.76	154
1202.17	156
1203.58	162
1204.99	146
1206.39	150
1207.8	134
1209.2	120
1210.61	102
1212.01	104
1213.42	90
1214.82	80
1216.23	82
1217.63	76
1219.03	80
1220.44	88
1221.84	88
1223.24	82
1224.64	94
1226.05	102
1227.45	120
1228.85	118
1230.25	128
1231.65	124
1233.05	118
1234.45	108
1235.85	96
1237.25	96
1238.64	86
1240.04	76
1241.44	84
1242.84	74
1244.23	82
1245.63	82
1247.03	80
1248.42	82
1249.82	78
1251.21	74
1252.61	78
1254	70
1255.4	84
1256.79	80
1258.19	80
1259.58	80
1260.97	82
1262.36	84
1263.76	88
1265.15	88
1266.54	94
1267.93	88
1269.32	84
1270.71	82
1272.1	100
1273.49	96
1274.88	96
1276.27	102
1277.66	114
1279.05	112
1280.43	108
1281.82	122
1283.21	128
1284.6	132
1285.98	138
1287.37	146
1288.75	154
1290.14	152
1291.53	152
1292.91	160
1294.29	194
1295.68	214
1297.06	258
1298.45	312
1299.83	410
1301.21	472
1302.59	586
1303.98	654
1305.36	730
1306.74	680
1308.12	578
1309.5	450
1310.88	368
1312.26	304
1313.64	282
1315.02	242
1316.4	206
1317.78	194
1319.16	194
1320.53	192
1321.91	184
1323.29	170
1324.67	170
1326.04	162
1327.42	160
1328.79	170
1330.17	158
1331.54	154
1332.92	160
1334.29	144
1335.67	140
1337.04	138
1338.42	140
1339.79	134
1341.16	128
1342.53	134
1343.91	146
1345.28	136
1346.65	146
1348.02	164
1349.39	170
1350.76	150
1352.13	162
1353.5	146
1354.87	154
1356.24	140
1357.61	138
1358.98	142
1360.34	142
1361.71	132
1363.08	130
1364.45	132
1365.81	140
1367.18	138
1368.54	146
1369.91	162
1371.28	174
1372.64	212
1374.01	246
1375.37	316
1376.73	348
1378.1	340
1379.46	386
1380.82	386
1382.19	374
1383.55	328
1384.91	300
1386.27	238
1387.63	218
1388.99	178
1390.35	160
1391.71	140
1393.07	138
1394.43	130
1395.79	136
1397.15	124
1398.51	130
1399.87	130
1401.23	112
1402.58	128
1403.94	116
1405.3	130
1406.65	120
1408.01	134
1409.37	118
1410.72	126
1412.08	130
1413.43	138
1414.79	122
1416.14	136
1417.49	134
1418.85	160
1420.2	150
1421.55	154
1422.91	164
1424.26	150
1425.61	176
1426.96	170
1428.31	172
1429.66	174
1431.01	162
1432.36	176
1433.71	162
1435.06	184
1436.41	196
1437.76	188
1439.11	196
1440.46	198
1441.81	200
1443.15	192
1444.5	178
1445.85	182
1447.19	164
1448.54	172
1449.89	152
1451.23	154
1452.58	146
1453.92	160
1455.27	148
1456.61	138
1457.95	142
1459.3	136
1460.64	142
1461.98	138
1463.33	142
1464.67	140
1466.01	130
1467.35	136
1468.69	138
1470.03	134
1471.37	146
1472.71	142
1474.05	142
1475.39	134
1476.73	138
1478.07	136
1479.41	138
1480.75	130
1482.09	128
1483.42	116
1484.76	110
1486.1	120
1487.43	120
1488.77	118
1490.11	110
1491.44	110
1492.78	104
1494.11	104
1495.45	104
1496.78	106
1498.12	102
1499.45	104
1500.78	106
1502.11	108
1503.45	110
1504.78	106
1506.11	112
1507.44	102
1508.77	98
1510.11	106
1511.44	104
1512.77	106
1514.1	104
1515.43	94
1516.76	100
1518.08	104
1519.41	104
1520.74	96
1522.07	112
1523.4	96
1524.72	106
1526.05	110
1527.38	108
1528.7	88
1530.03	98
1531.36	100
1532.68	108
1534.01	96
1535.33	98
1536.66	100
1537.98	100
1539.3	108
1540.63	106
1541.95	102
1543.27	94
1544.6	90
1545.92	112
1547.24	100
1548.56	98
1549.88	106
1551.2	110
1552.52	98
1553.84	110
1555.17	100
1556.48	102
1557.8	98
1559.12	90
1560.44	112
1561.76	104
1563.08	102
1564.4	110
1565.71	106
1567.03	110
1568.35	108
1569.66	116
1570.98	112
1572.29	106
1573.61	134
1574.93	122
1576.24	118
1577.55	124
1578.87	128
1580.18	140
1581.5	148
1582.81	152
1584.12	162
1585.43	176
1586.75	174
1588.06	204
1589.37	212
1590.68	244
1591.99	258
1593.3	286
1594.61	288
1595.92	326
1597.23	372
1598.54	412
1599.85	398
1601.16	438
1602.47	440
1603.78	400
1605.08	412
1606.39	410
1607.7	382
1609	352
1610.31	318
1611.62	278
1612.92	284
1614.23	248
1615.53	224
1616.84	198
1618.14	190
1619.45	162
1620.75	152
1622.06	136
1623.36	130
1624.66	132
1625.96	114
1627.27	108
1628.57	112
1629.87	108
1631.17	100
1632.47	98
1633.77	88
1635.07	82
1636.37	102
1637.67	94
1638.97	88
1640.27	90
1641.57	92
1642.87	88
1644.17	88
1645.47	76
1646.76	90
1648.06	78
1649.36	84
1650.66	84
1651.95	82
1653.25	76
1654.54	80
1655.84	70
1657.13	80
1658.43	74
1659.72	80
1661.02	82
1662.31	86
1663.6	70
1664.9	74
1666.19	68
1667.48	76
1668.78	80
1670.07	78
1671.36	74
1672.65	70
1673.94	70
1675.23	68
1676.52	74
1677.81	70
1679.1	66
1680.39	74
1681.68	72
1682.97	72
1684.26	72
1685.55	78
1686.83	76
1688.12	80
1689.41	70
1690.7	78
1691.98	70
1693.27	74
1694.55	68
1695.84	72
1697.13	76
1698.41	74
1699.69	74
1700.98	64
1702.26	72