File: Mixture_Classification/Jesse_Dataset_v2/Pure Raman/Polypropylene oxide/785nm/ps-ppo-6jan25-0,0000-map2_Y05_X10.txt
204.377	392
206.045	376
207.713	382
209.38	370
211.048	348
212.715	330
214.381	330
216.047	328
217.712	336
219.377	364
221.042	392
222.706	446
224.369	476
226.032	580
227.695	672
229.357	804
231.019	932
232.68	996
234.341	1008
236.001	1026
237.661	894
239.321	870
240.98	786
242.639	700
244.297	656
245.955	586
247.612	522
249.268	460
250.924	422
252.58	360
254.236	332
255.891	300
257.546	262
259.2	248
260.854	236
262.507	204
264.16	208
265.812	202
267.463	202
269.115	176
270.766	192
272.417	182
274.067	188
275.717	180
277.365	192
279.014	192
280.663	188
282.311	212
283.958	224
285.605	260
287.252	304
288.898	342
290.543	396
292.188	394
293.833	454
295.477	462
297.121	472
298.765	422
300.407	402
302.05	352
303.693	338
305.334	302
306.975	288
308.615	278
310.256	276
311.896	258
313.535	238
315.175	254
316.813	240
318.451	236
320.089	224
321.726	232
323.362	238
324.999	234
326.635	240
328.271	250
329.905	252
331.54	260
333.174	250
334.807	276
336.441	258
338.074	256
339.707	244
341.338	226
342.969	222
344.601	226
346.231	224
347.861	208
349.491	208
351.12	224
352.749	232
354.378	216
356.006	216
357.633	208
359.261	222
360.887	208
362.513	202
364.139	190
365.764	198
367.39	200
369.014	198
370.638	198
372.261	200
373.884	204
375.508	192
377.13	184
378.752	184
380.373	158
381.994	156
383.615	136
385.235	146
386.854	146
388.473	126
390.092	138
391.711	126
393.328	130
394.947	122
396.564	126
398.181	120
399.797	124
401.412	120
403.027	130
404.642	148
406.257	150
407.871	164
409.484	172
411.098	198
412.711	210
414.323	216
415.935	216
417.547	194
419.158	182
420.768	178
422.378	158
423.988	136
425.597	128
427.206	134
428.814	116
430.422	114
432.03	112
433.637	98
435.243	84
436.85	96
438.456	90
440.062	84
441.666	88
443.271	78
444.876	84
446.479	82
448.082	84
449.685	84
451.287	76
452.89	84
454.492	80
456.092	90
457.693	70
459.293	84
460.893	86
462.492	84
464.092	92
465.691	100
467.288	118
468.887	124
470.483	136
472.081	146
473.677	166
475.273	196
476.869	224
478.463	218
480.059	256
481.653	266
483.247	298
484.84	296
486.433	284
488.026	260
489.618	226
491.21	190
492.801	152
494.392	144
495.983	130
497.573	118
499.162	102
500.752	108
502.341	92
503.929	100
505.517	106
507.105	120
508.692	130
510.279	160
511.865	194
513.45	234
515.037	206
516.621	172
518.206	162
519.79	156
521.374	156
522.957	158
524.54	164
526.123	204
527.705	206
529.287	224
530.868	258
532.448	316
534.029	376
535.609	430
537.188	442
538.768	474
540.346	462
541.925	424
543.502	376
545.08	320
546.657	264
548.234	220
549.81	206
551.386	198
552.961	208
554.536	228
556.11	238
557.684	278
559.258	314
560.832	392
562.405	532
563.977	740
565.55	1054
567.12	1458
568.692	2042
570.263	2428
571.833	2470
573.403	2068
574.973	1500
576.542	1020
578.111	694
579.679	514
581.247	420
582.815	370
584.382	356
585.948	350
587.514	314
589.081	300
590.645	274
592.211	282
593.775	260
595.339	244
596.904	240
598.466	220
600.03	182
601.592	152
603.154	136
604.715	104
606.277	112
607.838	104
609.398	100
610.958	96
612.518	98
614.077	96
615.636	90
617.194	102
618.753	100
620.31	108
621.867	114
623.424	110
624.98	118
626.537	122
628.092	128
629.647	138
631.202	152
632.756	146
634.31	166
635.864	148
637.417	154
638.969	148
640.521	138
642.074	142
643.625	110
645.176	110
646.726	100
648.276	108
649.827	104
651.376	92
652.925	86
654.473	86
656.021	82
657.569	80
659.117	80
660.664	78
662.21	74
663.757	72
665.302	60
666.847	64
668.392	70
669.937	72
671.481	60
673.025	62
674.568	54
676.111	62
677.653	64
679.195	62
680.737	58
682.279	60
683.82	62
685.36	62
686.9	62
688.44	58
689.979	64
691.517	62
693.056	58
694.594	58
696.132	50
697.669	56
699.206	58
700.742	68
702.278	58
703.814	68
705.35	66
706.884	78
708.419	82
709.953	80
711.487	84
713.019	108
714.552	102
716.085	102
717.617	96
719.148	76
720.68	84
722.21	78
723.741	76
725.271	78
726.8	74
728.33	76
729.858	78
731.387	78
732.915	74
734.443	84
735.97	82
737.497	72
739.023	86
740.549	100
742.075	102
743.6	114
745.125	128
746.65	130
748.173	142
749.697	138
751.22	132
752.743	120
754.266	120
755.788	122
757.309	106
758.831	92
760.351	84
761.871	84
763.392	76
764.912	70
766.431	74
767.95	68
769.468	66
770.986	68
772.504	82
774.022	72
775.538	76
777.055	82
778.571	84
780.086	78
781.602	86
783.117	76
784.632	82
786.146	82
787.659	70
789.173	70
790.685	70
792.198	66
793.71	72
795.222	68
796.733	72
798.244	66
799.755	62
801.265	68
802.775	70
804.284	76
805.793	74
807.302	80
808.81	76
810.318	68
811.826	76
813.333	76
814.84	80
816.346	70
817.851	90
819.357	80
820.862	94
822.367	102
823.871	108
825.376	138
826.878	186
828.382	234
829.885	354
831.387	488
832.889	598
834.391	576
835.892	418
837.392	248
838.893	174
840.393	136
841.893	110
843.392	110
844.891	92
846.389	104
847.888	102
849.386	94
850.882	96
852.38	86
853.876	96
855.372	84
856.868	80
858.363	84
859.858	78
861.353	78
862.847	80
864.341	76
865.834	70
867.328	66
868.82	74
870.313	70
871.805	70
873.296	58
874.787	64
876.278	64
877.769	62
879.258	62
880.748	64
882.237	68
883.726	62
885.214	58
886.702	60
888.19	60
889.677	54
891.164	60
892.651	56
894.137	54
895.623	60
897.108	66
898.593	54
900.077	60
901.562	58
903.046	58
904.529	48
906.012	56
907.495	62
908.977	54
910.459	62
911.941	58
913.422	58
914.903	56
916.383	62
917.863	58
919.343	56
920.822	62
922.301	60
923.779	56
925.257	62
926.735	66
928.213	66
929.69	58
931.166	56
932.643	60
934.119	68
935.594	74
937.069	64
938.543	70
940.018	78
941.492	82
942.966	80
944.439	90
945.911	102
947.384	120
948.856	126
950.328	158
951.799	182
953.27	208
954.741	262
956.21	284
957.68	354
959.15	386
960.619	384
962.088	390
963.556	330
965.023	276
966.491	262
967.958	228
969.425	208
970.891	192
972.357	156
973.824	134
975.288	112
976.754	100
978.218	90
979.682	80
981.146	82
982.609	80
984.072	78
985.534	74
986.997	68
988.459	78
989.92	78
991.382	80
992.842	74
994.302	74
995.763	74
997.222	66
998.681	60
1000.14	68
1001.6	68
1003.06	60
1004.52	66
1005.97	64
1007.43	56
1008.89	72
1010.34	66
1011.8	74
1013.25	68
1014.71	66
1016.16	70
1017.62	72
1019.07	76
1020.53	70
1021.98	84
1023.43	82
1024.89	80
1026.34	88
1027.79	92
1029.24	96
1030.69	100
1032.14	100
1033.59	100
1035.04	94
1036.49	104
1037.94	96
1039.39	88
1040.84	94
1042.29	84
1043.73	86
1045.18	74
1046.63	78
1048.08	66
1049.52	66
1050.97	64
1052.41	78
1053.86	66
1055.3	66
1056.75	64
1058.19	66
1059.64	74
1061.08	66
1062.52	64
1063.96	60
1065.41	66
1066.85	66
1068.29	64
1069.73	64
1071.17	72
1072.61	52
1074.05	66
1075.49	62
1076.93	68
1078.37	58
1079.81	68
1081.25	62
1082.68	68
1084.12	64
1085.56	64
1087	56
1088.43	62
1089.87	66
1091.3	68
1092.74	66
1094.17	64
1095.61	70
1097.04	74
1098.48	72
1099.91	80
1101.34	76
1102.78	88
1104.21	84
1105.64	128
1107.07	146
1108.5	196
1109.93	276
1111.36	344
1112.8	364
1114.22	330
1115.65	268
1117.08	200
1118.51	168
1119.94	134
1121.37	116
1122.8	100
1124.22	108
1125.65	98
1127.08	98
1128.5	96
1129.93	84
1131.35	92
1132.78	80
1134.2	84
1135.63	92
1137.05	84
1138.48	78
1139.9	84
1141.32	94
1142.75	92
1144.17	92
1145.59	80
1147.01	76
1148.43	78
1149.85	80
1151.27	72
1152.69	78
1154.11	78
1155.53	76
1156.95	82
1158.37	82
1159.79	80
1161.21	94
1162.62	94
1164.04	100
1165.46	88
1166.87	80
1168.29	86
1169.71	90
1171.12	86
1172.54	92
1173.95	90
1175.37	96
1176.78	118
1178.19	118
1179.61	122
1181.02	144
1182.43	176
1183.84	186
1185.26	230
1186.67	250
1188.08	236
1189.49	208
1190.9	198
1192.31	172
1193.72	160
1195.13	162
1196.54	160
1197.95	152
1199.36	166
1200.76	176
1202.17	186
1203.58	170
1204.99	168
1206.39	162
1207.8	140
1209.2	132
1210.61	122
1212.01	104
1213.42	100
1214.82	98
1216.23	86
1217.63	88
1219.03	84
1220.44	88
1221.84	88
1223.24	92
1224.64	106
1226.05	108
1227.45	116
1228.85	136
1230.25	142
1231.65	140
1233.05	112
1234.45	118
1235.85	102
1237.25	96
1238.64	98
1240.04	98
1241.44	90
1242.84	90
1244.23	92
1245.63	84
1247.03	86
1248.42	90
1249.82	80
1251.21	94
1252.61	84
1254	92
1255.4	92
1256.79	92
1258.19	82
1259.58	84
1260.97	90
1262.36	84
1263.76	96
1265.15	96
1266.54	106
1267.93	102
1269.32	106
1270.71	98
1272.1	94
1273.49	98
1274.88	106
1276.27	108
1277.66	112
1279.05	112
1280.43	128
1281.82	126
1283.21	140
1284.6	140
1285.98	154
1287.37	150
1288.75	166
1290.14	176
1291.53	172
1292.91	180
1294.29	208
1295.68	244
1297.06	290
1298.45	352
1299.83	442
1301.21	562
1302.59	672
1303.98	770
1305.36	830
1306.74	802
1308.12	674
1309.5	516
1310.88	438
1312.26	344
1313.64	300
1315.02	258
1316.4	238
1317.78	224
1319.16	214
1320.53	210
1321.91	184
1323.29	192
1324.67	182
1326.04	170
1327.42	190
1328.79	178
1330.17	176
1331.54	178
1332.92	170
1334.29	154
1335.67	150
1337.04	160
1338.42	150
1339.79	154
1341.16	150
1342.53	148
1343.91	154
1345.28	162
1346.65	154
1348.02	150
1349.39	162
1350.76	178
1352.13	174
1353.5	162
1354.87	176
1356.24	164
1357.61	160
1358.98	146
1360.34	142
1361.71	152
1363.08	152
1364.45	156
1365.81	168
1367.18	164
1368.54	174
1369.91	198
1371.28	196
1372.64	226
1374.01	286
1375.37	360
1376.73	406
1378.1	408
1379.46	436
1380.82	454
1382.19	436
1383.55	386
1384.91	318
1386.27	280
1387.63	206
1388.99	196
1390.35	180
1391.71	162
1393.07	142
1394.43	150
1395.79	134
1397.15	148
1398.51	152
1399.87	136
1401.23	136
1402.58	142
1403.94	132
1405.3	150
1406.65	138
1408.01	140
1409.37	142
1410.72	144
1412.08	134
1413.43	144
1414.79	150
1416.14	156
1417.49	164
1418.85	168
1420.2	164
1421.55	158
1422.91	184
1424.26	186
1425.61	178
1426.96	182
1428.31	202
1429.66	186
1431.01	198
1432.36	208
1433.71	194
1435.06	194
1436.41	208
1437.76	216
1439.11	222
1440.46	216
1441.81	216
1443.15	228
1444.5	206
1445.85	186
1447.19	198
1448.54	188
1449.89	168
1451.23	178
1452.58	162
1453.92	162
1455.27	170
1456.61	162
1457.95	164
1459.3	166
1460.64	170
1461.98	152
1463.33	156
1464.67	158
1466.01	164
1467.35	156
1468.69	162
1470.03	158
1471.37	160
1472.71	154
1474.05	150
1475.39	154
1476.73	138
1478.07	156
1479.41	152
1480.75	142
1482.09	146
1483.42	140
1484.76	136
1486.1	128
1487.43	118
1488.77	134
1490.11	134
1491.44	132
1492.78	124
1494.11	116
1495.45	126
1496.78	104
1498.12	114
1499.45	116
1500.78	122
1502.11	128
1503.45	130
1504.78	108
1506.11	112
1507.44	122
1508.77	106
1510.11	104
1511.44	116
1512.77	114
1514.1	116
1515.43	118
1516.76	114
1518.08	112
1519.41	114
1520.74	106
1522.07	110
1523.4	110
1524.72	106
1526.05	114
1527.38	110
1528.7	104
1530.03	110
1531.36	102
1532.68	110
1534.01	114
1535.33	102
1536.66	112
1537.98	114
1539.3	114
1540.63	112
1541.95	108
1543.27	114
1544.6	110
1545.92	116
1547.24	110
1548.56	112
1549.88	112
1551.2	112
1552.52	114
1553.84	112
1555.17	114
1556.48	112
1557.8	116
1559.12	112
1560.44	114
1561.76	114
1563.08	110
1564.4	116
1565.71	116
1567.03	114
1568.35	124
1569.66	120
1570.98	122
1572.29	124
1573.61	134
1574.93	136
1576.24	144
1577.55	138
1578.87	152
1580.18	150
1581.5	162
1582.81	166
1584.12	182
1585.43	186
1586.75	216
1588.06	222
1589.37	242
1590.68	272
1591.99	288
1593.3	320
1594.61	342
1595.92	380
1597.23	418
1598.54	468
1599.85	472
1601.16	466
1602.47	498
1603.78	482
1605.08	486
1606.39	442
1607.7	426
1609	388
1610.31	344
1611.62	352
1612.92	304
1614.23	286
1615.53	256
1616.84	236
1618.14	214
1619.45	190
1620.75	174
1622.06	156
1623.36	154
1624.66	140
1625.96	138
1627.27	120
1628.57	114
1629.87	118
1631.17	104
1632.47	112
1633.77	94
1635.07	112
1636.37	100
1637.67	100
1638.97	94
1640.27	90
1641.57	98
1642.87	86
1644.17	88
1645.47	94
1646.76	92
1648.06	88
1649.36	92
1650.66	86
1651.95	88
1653.25	76
1654.54	86
1655.84	86
1657.13	86
1658.43	90
1659.72	82
1661.02	78
1662.31	82
1663.6	74
1664.9	86
1666.19	84
1667.48	82
1668.78	78
1670.07	78
1671.36	78
1672.65	80
1673.94	86
1675.23	82
1676.52	78
1677.81	80
1679.1	78
1680.39	78
1681.68	80
1682.97	88
1684.26	82
1685.55	80
1686.83	84
1688.12	84
1689.41	76
1690.7	82
1691.98	82
1693.27	74
1694.55	82
1695.84	86
1697.13	70
1698.41	86
1699.69	82
1700.98	78
1702.26	80