File: Mixture_Classification/Jesse_Dataset_v2/Pure Raman/Polypropylene oxide/785nm/ps-ppo-6jan25-0,0000-map2_Y02_X09.txt
204.377	378
206.045	372
207.713	358
209.38	368
211.048	338
212.715	330
214.381	350
216.047	328
217.712	342
219.377	366
221.042	396
222.706	434
224.369	498
226.032	572
227.695	684
229.357	792
231.019	946
232.68	1012
234.341	1004
236.001	976
237.661	908
239.321	880
240.98	828
242.639	720
244.297	672
245.955	572
247.612	534
249.268	458
250.924	422
252.58	378
254.236	332
255.891	302
257.546	282
259.2	246
260.854	232
262.507	230
264.16	228
265.812	204
267.463	182
269.115	196
270.766	176
272.417	178
274.067	192
275.717	186
277.365	186
279.014	190
280.663	208
282.311	212
283.958	232
285.605	258
287.252	302
288.898	336
290.543	374
292.188	402
293.833	436
295.477	436
297.121	422
298.765	416
300.407	390
302.05	374
303.693	336
305.334	296
306.975	312
308.615	276
310.256	264
311.896	264
313.535	250
315.175	222
316.813	232
318.451	232
320.089	228
321.726	226
323.362	250
324.999	242
326.635	246
328.271	262
329.905	254
331.54	272
333.174	248
334.807	276
336.441	268
338.074	246
339.707	218
341.338	240
342.969	222
344.601	220
346.231	212
347.861	212
349.491	216
351.12	218
352.749	220
354.378	206
356.006	222
357.633	210
359.261	210
360.887	208
362.513	208
364.139	208
365.764	182
367.39	202
369.014	194
370.638	192
372.261	198
373.884	206
375.508	198
377.13	174
378.752	184
380.373	166
381.994	154
383.615	160
385.235	138
386.854	140
388.473	128
390.092	146
391.711	136
393.328	130
394.947	128
396.564	124
398.181	130
399.797	132
401.412	138
403.027	138
404.642	140
406.257	140
407.871	158
409.484	188
411.098	194
412.711	206
414.323	228
415.935	208
417.547	200
419.158	194
420.768	164
422.378	146
423.988	144
425.597	128
427.206	118
428.814	102
430.422	110
432.03	104
433.637	96
435.243	94
436.85	102
438.456	90
440.062	78
441.666	88
443.271	88
444.876	78
446.479	80
448.082	78
449.685	84
451.287	82
452.89	78
454.492	82
456.092	88
457.693	80
459.293	88
460.893	84
462.492	90
464.092	94
465.691	102
467.288	114
468.887	126
470.483	140
472.081	154
473.677	178
475.273	204
476.869	200
478.463	228
480.059	234
481.653	260
483.247	288
484.84	298
486.433	316
488.026	268
489.618	200
491.21	176
492.801	158
494.392	146
495.983	132
497.573	112
499.162	112
500.752	106
502.341	104
503.929	106
505.517	108
507.105	118
508.692	136
510.279	168
511.865	204
513.45	240
515.037	206
516.621	170
518.206	150
519.79	150
521.374	152
522.957	172
524.54	168
526.123	178
527.705	212
529.287	240
530.868	268
532.448	332
534.029	380
535.609	398
537.188	452
538.768	484
540.346	466
541.925	418
543.502	392
545.08	302
546.657	272
548.234	230
549.81	206
551.386	194
552.961	200
554.536	202
556.11	236
557.684	268
559.258	334
560.832	404
562.405	528
563.977	750
565.55	1036
567.12	1478
568.692	1990
570.263	2408
571.833	2374
573.403	2084
574.973	1486
576.542	1022
578.111	720
579.679	534
581.247	416
582.815	370
584.382	358
585.948	340
587.514	318
589.081	306
590.645	306
592.211	266
593.775	272
595.339	256
596.904	232
598.466	214
600.03	192
601.592	164
603.154	134
604.715	110
606.277	108
607.838	102
609.398	98
610.958	90
612.518	96
614.077	102
615.636	90
617.194	92
618.753	98
620.31	102
621.867	106
623.424	114
624.98	116
626.537	126
628.092	132
629.647	138
631.202	146
632.756	156
634.31	158
635.864	148
637.417	166
638.969	160
640.521	132
642.074	132
643.625	122
645.176	118
646.726	108
648.276	94
649.827	94
651.376	104
652.925	90
654.473	84
656.021	86
657.569	88
659.117	86
660.664	80
662.21	74
663.757	70
665.302	74
666.847	60
668.392	64
669.937	64
671.481	68
673.025	58
674.568	66
676.111	62
677.653	62
679.195	60
680.737	64
682.279	64
683.82	74
685.36	72
686.9	60
688.44	60
689.979	64
691.517	64
693.056	64
694.594	58
696.132	56
697.669	60
699.206	58
700.742	62
702.278	58
703.814	66
705.35	68
706.884	70
708.419	84
709.953	90
711.487	86
713.019	96
714.552	98
716.085	100
717.617	92
719.148	90
720.68	82
722.21	76
723.741	78
725.271	82
726.8	80
728.33	78
729.858	80
731.387	84
732.915	80
734.443	78
735.97	86
737.497	84
739.023	92
740.549	90
742.075	100
743.6	106
745.125	126
746.65	146
748.173	140
749.697	132
751.22	128
752.743	132
754.266	126
755.788	122
757.309	104
758.831	102
760.351	86
761.871	82
763.392	76
764.912	74
766.431	68
767.95	68
769.468	68
770.986	78
772.504	72
774.022	70
775.538	66
777.055	78
778.571	76
780.086	82
781.602	80
783.117	78
784.632	80
786.146	74
787.659	74
789.173	70
790.685	74
792.198	64
793.71	56
795.222	66
796.733	66
798.244	64
799.755	64
801.265	76
802.775	72
804.284	70
805.793	76
807.302	80
808.81	80
810.318	78
811.826	72
813.333	74
814.84	76
816.346	84
817.851	78
819.357	80
820.862	92
822.367	98
823.871	112
825.376	132
826.878	176
828.382	246
829.885	348
831.387	482
832.889	620
834.391	576
835.892	406
837.392	258
838.893	184
840.393	128
841.893	106
843.392	110
844.891	92
846.389	104
847.888	94
849.386	98
850.882	94
852.38	86
853.876	98
855.372	84
856.868	82
858.363	92
859.858	82
861.353	74
862.847	86
864.341	74
865.834	68
867.328	74
868.82	70
870.313	70
871.805	64
873.296	64
874.787	70
876.278	66
877.769	60
879.258	56
880.748	60
882.237	62
883.726	62
885.214	58
886.702	58
888.19	60
889.677	58
891.164	60
892.651	58
894.137	58
895.623	58
897.108	56
898.593	58
900.077	62
901.562	60
903.046	56
904.529	56
906.012	58
907.495	60
908.977	48
910.459	56
911.941	56
913.422	58
914.903	58
916.383	54
917.863	56
919.343	64
920.822	52
922.301	56
923.779	62
925.257	66
926.735	58
928.213	58
929.69	68
931.166	64
932.643	66
934.119	66
935.594	64
937.069	74
938.543	70
940.018	64
941.492	80
942.966	90
944.439	92
945.911	98
947.384	112
948.856	122
950.328	164
951.799	176
953.27	212
954.741	260
956.21	294
957.68	354
959.15	394
960.619	400
962.088	388
963.556	344
965.023	298
966.491	272
967.958	246
969.425	214
970.891	194
972.357	148
973.824	142
975.288	122
976.754	98
978.218	98
979.682	86
981.146	78
982.609	78
984.072	78
985.534	76
986.997	68
988.459	66
989.92	70
991.382	76
992.842	72
994.302	70
995.763	66
997.222	66
998.681	68
1000.14	62
1001.6	60
1003.06	60
1004.52	74
1005.97	64
1007.43	64
1008.89	70
1010.34	66
1011.8	70
1013.25	62
1014.71	72
1016.16	76
1017.62	72
1019.07	72
1020.53	82
1021.98	84
1023.43	86
1024.89	78
1026.34	84
1027.79	88
1029.24	100
1030.69	100
1032.14	106
1033.59	110
1035.04	84
1036.49	88
1037.94	96
1039.39	98
1040.84	90
1042.29	92
1043.73	82
1045.18	76
1046.63	74
1048.08	74
1049.52	64
1050.97	70
1052.41	72
1053.86	64
1055.3	68
1056.75	64
1058.19	64
1059.64	58
1061.08	60
1062.52	64
1063.96	68
1065.41	62
1066.85	68
1068.29	60
1069.73	68
1071.17	52
1072.61	58
1074.05	70
1075.49	66
1076.93	56
1078.37	64
1079.81	64
1081.25	62
1082.68	66
1084.12	74
1085.56	60
1087	66
1088.43	66
1089.87	64
1091.3	64
1092.74	70
1094.17	72
1095.61	74
1097.04	78
1098.48	70
1099.91	70
1101.34	82
1102.78	88
1104.21	96
1105.64	124
1107.07	134
1108.5	202
1109.93	276
1111.36	326
1112.8	370
1114.22	346
1115.65	268
1117.08	202
1118.51	166
1119.94	132
1121.37	120
1122.8	108
1124.22	106
1125.65	96
1127.08	92
1128.5	92
1129.93	94
1131.35	86
1132.78	80
1134.2	86
1135.63	88
1137.05	78
1138.48	92
1139.9	90
1141.32	84
1142.75	92
1144.17	82
1145.59	90
1147.01	78
1148.43	78
1149.85	76
1151.27	74
1152.69	76
1154.11	80
1155.53	80
1156.95	84
1158.37	76
1159.79	84
1161.21	108
1162.62	94
1164.04	94
1165.46	98
1166.87	94
1168.29	92
1169.71	86
1171.12	86
1172.54	86
1173.95	90
1175.37	108
1176.78	116
1178.19	124
1179.61	124
1181.02	140
1182.43	170
1183.84	212
1185.26	226
1186.67	242
1188.08	230
1189.49	214
1190.9	182
1192.31	180
1193.72	164
1195.13	166
1196.54	152
1197.95	166
1199.36	164
1200.76	174
1202.17	186
1203.58	182
1204.99	170
1206.39	162
1207.8	150
1209.2	120
1210.61	112
1212.01	120
1213.42	104
1214.82	90
1216.23	92
1217.63	88
1219.03	90
1220.44	86
1221.84	98
1223.24	88
1224.64	106
1226.05	116
1227.45	118
1228.85	138
1230.25	134
1231.65	138
1233.05	128
1234.45	114
1235.85	104
1237.25	104
1238.64	90
1240.04	90
1241.44	88
1242.84	84
1244.23	82
1245.63	76
1247.03	96
1248.42	84
1249.82	84
1251.21	94
1252.61	88
1254	86
1255.4	78
1256.79	98
1258.19	90
1259.58	94
1260.97	90
1262.36	90
1263.76	82
1265.15	94
1266.54	104
1267.93	108
1269.32	102
1270.71	106
1272.1	96
1273.49	100
1274.88	96
1276.27	100
1277.66	120
1279.05	118
1280.43	120
1281.82	134
1283.21	140
1284.6	142
1285.98	150
1287.37	168
1288.75	174
1290.14	180
1291.53	184
1292.91	200
1294.29	230
1295.68	260
1297.06	296
1298.45	368
1299.83	438
1301.21	556
1302.59	694
1303.98	776
1305.36	808
1306.74	784
1308.12	662
1309.5	524
1310.88	448
1312.26	362
1313.64	302
1315.02	278
1316.4	248
1317.78	236
1319.16	222
1320.53	176
1321.91	196
1323.29	184
1324.67	186
1326.04	194
1327.42	192
1328.79	172
1330.17	188
1331.54	172
1332.92	164
1334.29	162
1335.67	156
1337.04	146
1338.42	150
1339.79	154
1341.16	148
1342.53	152
1343.91	168
1345.28	174
1346.65	164
1348.02	172
1349.39	170
1350.76	160
1352.13	188
1353.5	168
1354.87	162
1356.24	168
1357.61	162
1358.98	160
1360.34	156
1361.71	138
1363.08	154
1364.45	162
1365.81	156
1367.18	168
1368.54	172
1369.91	168
1371.28	216
1372.64	260
1374.01	308
1375.37	356
1376.73	402
1378.1	430
1379.46	418
1380.82	438
1382.19	420
1383.55	378
1384.91	338
1386.27	284
1387.63	244
1388.99	210
1390.35	178
1391.71	172
1393.07	150
1394.43	154
1395.79	134
1397.15	134
1398.51	134
1399.87	140
1401.23	138
1402.58	138
1403.94	140
1405.3	130
1406.65	134
1408.01	142
1409.37	144
1410.72	140
1412.08	144
1413.43	142
1414.79	152
1416.14	162
1417.49	152
1418.85	166
1420.2	174
1421.55	162
1422.91	186
1424.26	190
1425.61	192
1426.96	182
1428.31	200
1429.66	208
1431.01	190
1432.36	206
1433.71	194
1435.06	196
1436.41	220
1437.76	220
1439.11	222
1440.46	208
1441.81	236
1443.15	226
1444.5	212
1445.85	202
1447.19	188
1448.54	176
1449.89	188
1451.23	170
1452.58	170
1453.92	164
1455.27	162
1456.61	164
1457.95	162
1459.3	162
1460.64	160
1461.98	162
1463.33	156
1464.67	166
1466.01	154
1467.35	158
1468.69	156
1470.03	152
1471.37	158
1472.71	160
1474.05	144
1475.39	150
1476.73	152
1478.07	154
1479.41	148
1480.75	146
1482.09	148
1483.42	142
1484.76	138
1486.1	138
1487.43	130
1488.77	126
1490.11	132
1491.44	124
1492.78	120
1494.11	122
1495.45	120
1496.78	112
1498.12	124
1499.45	132
1500.78	120
1502.11	120
1503.45	122
1504.78	116
1506.11	120
1507.44	108
1508.77	124
1510.11	122
1511.44	114
1512.77	124
1514.1	110
1515.43	112
1516.76	116
1518.08	124
1519.41	112
1520.74	108
1522.07	106
1523.4	110
1524.72	114
1526.05	116
1527.38	110
1528.7	104
1530.03	116
1531.36	106
1532.68	114
1534.01	106
1535.33	106
1536.66	116
1537.98	114
1539.3	120
1540.63	112
1541.95	108
1543.27	114
1544.6	114
1545.92	126
1547.24	110
1548.56	110
1549.88	108
1551.2	110
1552.52	118
1553.84	118
1555.17	120
1556.48	106
1557.8	118
1559.12	114
1560.44	114
1561.76	116
1563.08	132
1564.4	116
1565.71	118
1567.03	108
1568.35	114
1569.66	116
1570.98	134
1572.29	126
1573.61	136
1574.93	138
1576.24	136
1577.55	136
1578.87	156
1580.18	148
1581.5	168
1582.81	166
1584.12	182
1585.43	196
1586.75	210
1588.06	222
1589.37	256
1590.68	254
1591.99	286
1593.3	326
1594.61	366
1595.92	374
1597.23	422
1598.54	454
1599.85	482
1601.16	478
1602.47	486
1603.78	508
1605.08	458
1606.39	440
1607.7	428
1609	382
1610.31	378
1611.62	344
1612.92	322
1614.23	274
1615.53	264
1616.84	224
1618.14	214
1619.45	196
1620.75	176
1622.06	162
1623.36	140
1624.66	138
1625.96	130
1627.27	128
1628.57	120
1629.87	120
1631.17	110
1632.47	112
1633.77	108
1635.07	100
1636.37	100
1637.67	98
1638.97	92
1640.27	100
1641.57	92
1642.87	84
1644.17	92
1645.47	84
1646.76	86
1648.06	88
1649.36	96
1650.66	86
1651.95	82
1653.25	88
1654.54	72
1655.84	90
1657.13	78
1658.43	82
1659.72	86
1661.02	92
1662.31	82
1663.6	78
1664.9	84
1666.19	84
1667.48	80
1668.78	76
1670.07	80
1671.36	82
1672.65	84
1673.94	82
1675.23	76
1676.52	84
1677.81	80
1679.1	70
1680.39	74
1681.68	88
1682.97	80
1684.26	74
1685.55	76
1686.83	78
1688.12	78
1689.41	72
1690.7	80
1691.98	76
1693.27	90
1694.55	90
1695.84	88
1697.13	76
1698.41	80
1699.69	76
1700.98	80
1702.26	84