File: Mixture_Classification/Jesse_Dataset_v2/Pure Raman/Polypropylene oxide/785nm/ps-ppo-6jan25-0,0000-map2_Y00_X07.txt
204.377	398
206.045	372
207.713	368
209.38	358
211.048	364
212.715	350
214.381	336
216.047	340
217.712	338
219.377	366
221.042	398
222.706	422
224.369	484
226.032	546
227.695	638
229.357	800
231.019	912
232.68	1002
234.341	1022
236.001	978
237.661	924
239.321	884
240.98	790
242.639	708
244.297	616
245.955	594
247.612	512
249.268	480
250.924	420
252.58	358
254.236	348
255.891	308
257.546	278
259.2	246
260.854	250
262.507	208
264.16	212
265.812	214
267.463	180
269.115	196
270.766	202
272.417	182
274.067	192
275.717	180
277.365	194
279.014	190
280.663	210
282.311	218
283.958	220
285.605	254
287.252	310
288.898	324
290.543	350
292.188	424
293.833	436
295.477	448
297.121	438
298.765	428
300.407	412
302.05	366
303.693	334
305.334	314
306.975	300
308.615	288
310.256	282
311.896	256
313.535	250
315.175	246
316.813	232
318.451	242
320.089	236
321.726	248
323.362	238
324.999	242
326.635	248
328.271	234
329.905	264
331.54	252
333.174	282
334.807	272
336.441	240
338.074	252
339.707	250
341.338	232
342.969	220
344.601	236
346.231	214
347.861	216
349.491	190
351.12	228
352.749	210
354.378	218
356.006	216
357.633	230
359.261	212
360.887	194
362.513	200
364.139	198
365.764	190
367.39	190
369.014	186
370.638	204
372.261	204
373.884	194
375.508	188
377.13	180
378.752	162
380.373	168
381.994	150
383.615	148
385.235	138
386.854	156
388.473	132
390.092	136
391.711	132
393.328	126
394.947	120
396.564	128
398.181	130
399.797	132
401.412	122
403.027	132
404.642	150
406.257	156
407.871	164
409.484	188
411.098	180
412.711	224
414.323	214
415.935	206
417.547	204
419.158	192
420.768	168
422.378	160
423.988	154
425.597	138
427.206	124
428.814	128
430.422	118
432.03	108
433.637	100
435.243	92
436.85	84
438.456	88
440.062	84
441.666	88
443.271	92
444.876	86
446.479	72
448.082	80
449.685	78
451.287	86
452.89	80
454.492	80
456.092	80
457.693	72
459.293	90
460.893	88
462.492	94
464.092	98
465.691	106
467.288	118
468.887	130
470.483	140
472.081	160
473.677	178
475.273	204
476.869	198
478.463	220
480.059	254
481.653	264
483.247	298
484.84	294
486.433	284
488.026	256
489.618	196
491.21	184
492.801	162
494.392	146
495.983	146
497.573	118
499.162	112
500.752	102
502.341	102
503.929	110
505.517	108
507.105	114
508.692	126
510.279	168
511.865	226
513.45	214
515.037	218
516.621	184
518.206	166
519.79	134
521.374	150
522.957	156
524.54	170
526.123	178
527.705	204
529.287	230
530.868	258
532.448	304
534.029	380
535.609	412
537.188	414
538.768	454
540.346	462
541.925	412
543.502	364
545.08	328
546.657	270
548.234	212
549.81	208
551.386	206
552.961	206
554.536	220
556.11	230
557.684	274
559.258	330
560.832	402
562.405	528
563.977	734
565.55	1000
567.12	1440
568.692	1948
570.263	2366
571.833	2400
573.403	1984
574.973	1484
576.542	1014
578.111	726
579.679	498
581.247	394
582.815	388
584.382	348
585.948	326
587.514	334
589.081	310
590.645	278
592.211	268
593.775	272
595.339	254
596.904	214
598.466	212
600.03	186
601.592	154
603.154	124
604.715	122
606.277	104
607.838	100
609.398	110
610.958	100
612.518	90
614.077	86
615.636	104
617.194	96
618.753	98
620.31	96
621.867	122
623.424	116
624.98	108
626.537	122
628.092	134
629.647	134
631.202	146
632.756	154
634.31	150
635.864	152
637.417	162
638.969	148
640.521	140
642.074	136
643.625	134
645.176	122
646.726	114
648.276	108
649.827	96
651.376	88
652.925	92
654.473	82
656.021	84
657.569	88
659.117	78
660.664	82
662.21	70
663.757	68
665.302	76
666.847	66
668.392	68
669.937	60
671.481	62
673.025	68
674.568	58
676.111	68
677.653	64
679.195	58
680.737	64
682.279	60
683.82	64
685.36	66
686.9	72
688.44	66
689.979	60
691.517	58
693.056	66
694.594	60
696.132	64
697.669	56
699.206	68
700.742	62
702.278	62
703.814	66
705.35	70
706.884	70
708.419	68
709.953	84
711.487	94
713.019	100
714.552	106
716.085	110
717.617	86
719.148	80
720.68	80
722.21	80
723.741	72
725.271	76
726.8	80
728.33	74
729.858	80
731.387	82
732.915	76
734.443	80
735.97	90
737.497	88
739.023	96
740.549	102
742.075	90
743.6	108
745.125	128
746.65	142
748.173	150
749.697	130
751.22	128
752.743	132
754.266	110
755.788	112
757.309	108
758.831	92
760.351	88
761.871	74
763.392	70
764.912	64
766.431	68
767.95	68
769.468	74
770.986	78
772.504	80
774.022	74
775.538	68
777.055	78
778.571	78
780.086	82
781.602	78
783.117	84
784.632	74
786.146	78
787.659	72
789.173	74
790.685	68
792.198	70
793.71	66
795.222	68
796.733	68
798.244	66
799.755	64
801.265	76
802.775	72
804.284	74
805.793	74
807.302	76
808.81	82
810.318	72
811.826	82
813.333	76
814.84	78
816.346	74
817.851	90
819.357	88
820.862	92
822.367	100
823.871	126
825.376	128
826.878	174
828.382	236
829.885	304
831.387	494
832.889	592
834.391	548
835.892	378
837.392	234
838.893	184
840.393	136
841.893	112
843.392	112
844.891	98
846.389	94
847.888	102
849.386	94
850.882	96
852.38	94
853.876	88
855.372	92
856.868	88
858.363	80
859.858	80
861.353	80
862.847	82
864.341	76
865.834	70
867.328	70
868.82	64
870.313	70
871.805	64
873.296	74
874.787	58
876.278	74
877.769	68
879.258	62
880.748	66
882.237	64
883.726	64
885.214	66
886.702	58
888.19	66
889.677	66
891.164	62
892.651	58
894.137	58
895.623	56
897.108	54
898.593	58
900.077	56
901.562	62
903.046	58
904.529	62
906.012	66
907.495	64
908.977	58
910.459	62
911.941	56
913.422	60
914.903	58
916.383	60
917.863	54
919.343	62
920.822	60
922.301	54
923.779	62
925.257	62
926.735	58
928.213	68
929.69	62
931.166	62
932.643	66
934.119	64
935.594	66
937.069	72
938.543	62
940.018	78
941.492	82
942.966	78
944.439	96
945.911	102
947.384	114
948.856	128
950.328	158
951.799	184
953.27	210
954.741	256
956.21	300
957.68	332
959.15	384
960.619	390
962.088	366
963.556	336
965.023	314
966.491	250
967.958	240
969.425	212
970.891	174
972.357	160
973.824	134
975.288	116
976.754	112
978.218	94
979.682	80
981.146	84
982.609	74
984.072	72
985.534	76
986.997	74
988.459	74
989.92	78
991.382	80
992.842	64
994.302	68
995.763	70
997.222	68
998.681	64
1000.14	68
1001.6	68
1003.06	62
1004.52	62
1005.97	66
1007.43	66
1008.89	62
1010.34	56
1011.8	76
1013.25	70
1014.71	66
1016.16	72
1017.62	74
1019.07	78
1020.53	82
1021.98	80
1023.43	84
1024.89	88
1026.34	86
1027.79	90
1029.24	88
1030.69	92
1032.14	98
1033.59	104
1035.04	92
1036.49	110
1037.94	94
1039.39	100
1040.84	96
1042.29	88
1043.73	88
1045.18	78
1046.63	74
1048.08	76
1049.52	74
1050.97	72
1052.41	66
1053.86	68
1055.3	68
1056.75	68
1058.19	64
1059.64	64
1061.08	68
1062.52	68
1063.96	64
1065.41	66
1066.85	64
1068.29	60
1069.73	70
1071.17	66
1072.61	64
1074.05	66
1075.49	60
1076.93	62
1078.37	66
1079.81	64
1081.25	62
1082.68	62
1084.12	66
1085.56	68
1087	72
1088.43	68
1089.87	64
1091.3	68
1092.74	74
1094.17	68
1095.61	68
1097.04	72
1098.48	72
1099.91	78
1101.34	84
1102.78	88
1104.21	98
1105.64	120
1107.07	142
1108.5	180
1109.93	264
1111.36	330
1112.8	354
1114.22	348
1115.65	272
1117.08	196
1118.51	170
1119.94	132
1121.37	124
1122.8	106
1124.22	100
1125.65	102
1127.08	94
1128.5	86
1129.93	90
1131.35	92
1132.78	84
1134.2	80
1135.63	84
1137.05	88
1138.48	76
1139.9	86
1141.32	96
1142.75	88
1144.17	78
1145.59	78
1147.01	78
1148.43	80
1149.85	74
1151.27	70
1152.69	72
1154.11	78
1155.53	84
1156.95	80
1158.37	80
1159.79	88
1161.21	102
1162.62	100
1164.04	96
1165.46	88
1166.87	96
1168.29	94
1169.71	94
1171.12	88
1172.54	90
1173.95	100
1175.37	106
1176.78	108
1178.19	124
1179.61	124
1181.02	132
1182.43	166
1183.84	198
1185.26	228
1186.67	252
1188.08	226
1189.49	206
1190.9	196
1192.31	172
1193.72	164
1195.13	150
1196.54	158
1197.95	174
1199.36	162
1200.76	166
1202.17	178
1203.58	186
1204.99	184
1206.39	154
1207.8	160
1209.2	136
1210.61	122
1212.01	108
1213.42	98
1214.82	92
1216.23	96
1217.63	90
1219.03	84
1220.44	94
1221.84	96
1223.24	96
1224.64	98
1226.05	110
1227.45	122
1228.85	150
1230.25	134
1231.65	136
1233.05	116
1234.45	118
1235.85	106
1237.25	108
1238.64	88
1240.04	92
1241.44	86
1242.84	102
1244.23	94
1245.63	90
1247.03	88
1248.42	88
1249.82	94
1251.21	88
1252.61	92
1254	88
1255.4	88
1256.79	90
1258.19	80
1259.58	86
1260.97	92
1262.36	94
1263.76	104
1265.15	96
1266.54	100
1267.93	98
1269.32	80
1270.71	100
1272.1	98
1273.49	98
1274.88	118
1276.27	100
1277.66	112
1279.05	126
1280.43	138
1281.82	134
1283.21	142
1284.6	154
1285.98	156
1287.37	154
1288.75	170
1290.14	170
1291.53	186
1292.91	192
1294.29	218
1295.68	252
1297.06	298
1298.45	348
1299.83	448
1301.21	550
1302.59	676
1303.98	804
1305.36	838
1306.74	746
1308.12	646
1309.5	518
1310.88	408
1312.26	362
1313.64	280
1315.02	254
1316.4	244
1317.78	238
1319.16	214
1320.53	194
1321.91	190
1323.29	184
1324.67	182
1326.04	190
1327.42	186
1328.79	184
1330.17	180
1331.54	170
1332.92	160
1334.29	162
1335.67	160
1337.04	144
1338.42	162
1339.79	166
1341.16	152
1342.53	150
1343.91	154
1345.28	162
1346.65	166
1348.02	158
1349.39	148
1350.76	154
1352.13	162
1353.5	156
1354.87	170
1356.24	160
1357.61	144
1358.98	148
1360.34	136
1361.71	148
1363.08	152
1364.45	142
1365.81	166
1367.18	162
1368.54	170
1369.91	178
1371.28	190
1372.64	236
1374.01	298
1375.37	342
1376.73	396
1378.1	424
1379.46	430
1380.82	430
1382.19	402
1383.55	348
1384.91	330
1386.27	278
1387.63	222
1388.99	212
1390.35	184
1391.71	172
1393.07	160
1394.43	146
1395.79	164
1397.15	146
1398.51	130
1399.87	124
1401.23	142
1402.58	144
1403.94	134
1405.3	138
1406.65	140
1408.01	154
1409.37	148
1410.72	128
1412.08	142
1413.43	144
1414.79	144
1416.14	142
1417.49	150
1418.85	164
1420.2	166
1421.55	172
1422.91	172
1424.26	180
1425.61	176
1426.96	184
1428.31	190
1429.66	200
1431.01	186
1432.36	190
1433.71	196
1435.06	204
1436.41	210
1437.76	212
1439.11	206
1440.46	204
1441.81	220
1443.15	214
1444.5	194
1445.85	202
1447.19	196
1448.54	192
1449.89	172
1451.23	156
1452.58	158
1453.92	164
1455.27	160
1456.61	158
1457.95	162
1459.3	160
1460.64	156
1461.98	168
1463.33	156
1464.67	154
1466.01	144
1467.35	152
1468.69	144
1470.03	156
1471.37	142
1472.71	148
1474.05	152
1475.39	136
1476.73	154
1478.07	146
1479.41	146
1480.75	140
1482.09	150
1483.42	132
1484.76	132
1486.1	134
1487.43	136
1488.77	122
1490.11	120
1491.44	130
1492.78	122
1494.11	116
1495.45	112
1496.78	108
1498.12	112
1499.45	118
1500.78	116
1502.11	122
1503.45	108
1504.78	120
1506.11	112
1507.44	108
1508.77	116
1510.11	110
1511.44	114
1512.77	98
1514.1	108
1515.43	118
1516.76	114
1518.08	106
1519.41	106
1520.74	106
1522.07	110
1523.4	110
1524.72	104
1526.05	108
1527.38	108
1528.7	110
1530.03	112
1531.36	114
1532.68	112
1534.01	106
1535.33	116
1536.66	102
1537.98	110
1539.3	106
1540.63	108
1541.95	110
1543.27	112
1544.6	102
1545.92	104
1547.24	116
1548.56	108
1549.88	110
1551.2	110
1552.52	112
1553.84	118
1555.17	116
1556.48	112
1557.8	108
1559.12	114
1560.44	120
1561.76	112
1563.08	120
1564.4	112
1565.71	112
1567.03	114
1568.35	116
1569.66	122
1570.98	114
1572.29	124
1573.61	126
1574.93	140
1576.24	130
1577.55	140
1578.87	154
1580.18	156
1581.5	162
1582.81	172
1584.12	172
1585.43	200
1586.75	208
1588.06	220
1589.37	244
1590.68	266
1591.99	298
1593.3	310
1594.61	344
1595.92	364
1597.23	408
1598.54	436
1599.85	474
1601.16	488
1602.47	490
1603.78	472
1605.08	474
1606.39	448
1607.7	406
1609	384
1610.31	384
1611.62	330
1612.92	300
1614.23	288
1615.53	256
1616.84	230
1618.14	210
1619.45	176
1620.75	170
1622.06	154
1623.36	146
1624.66	142
1625.96	138
1627.27	120
1628.57	120
1629.87	120
1631.17	114
1632.47	110
1633.77	94
1635.07	108
1636.37	102
1637.67	96
1638.97	104
1640.27	94
1641.57	88
1642.87	94
1644.17	98
1645.47	90
1646.76	92
1648.06	92
1649.36	88
1650.66	70
1651.95	80
1653.25	82
1654.54	88
1655.84	86
1657.13	88
1658.43	92
1659.72	78
1661.02	88
1662.31	84
1663.6	86
1664.9	84
1666.19	72
1667.48	74
1668.78	80
1670.07	80
1671.36	82
1672.65	78
1673.94	84
1675.23	78
1676.52	74
1677.81	76
1679.1	78
1680.39	70
1681.68	82
1682.97	78
1684.26	82
1685.55	76
1686.83	86
1688.12	86
1689.41	80
1690.7	80
1691.98	84
1693.27	92
1694.55	80
1695.84	92
1697.13	76
1698.41	86
1699.69	76
1700.98	80
1702.26	80