File: Mixture_Classification/Jesse_Dataset_v2/Pure Raman/Polypropylene oxide/785nm/ps-ppo-6jan25-0,0000-map2_Y01_X09.txt
204.377	398
206.045	386
207.713	386
209.38	352
211.048	336
212.715	322
214.381	324
216.047	334
217.712	352
219.377	364
221.042	356
222.706	416
224.369	484
226.032	566
227.695	688
229.357	802
231.019	884
232.68	970
234.341	1006
236.001	976
237.661	912
239.321	862
240.98	806
242.639	724
244.297	646
245.955	556
247.612	508
249.268	468
250.924	400
252.58	360
254.236	330
255.891	294
257.546	274
259.2	246
260.854	226
262.507	220
264.16	210
265.812	198
267.463	196
269.115	190
270.766	186
272.417	178
274.067	174
275.717	176
277.365	176
279.014	194
280.663	196
282.311	214
283.958	236
285.605	258
287.252	290
288.898	340
290.543	382
292.188	412
293.833	438
295.477	432
297.121	416
298.765	412
300.407	376
302.05	362
303.693	336
305.334	320
306.975	284
308.615	282
310.256	252
311.896	256
313.535	242
315.175	232
316.813	232
318.451	230
320.089	228
321.726	208
323.362	232
324.999	230
326.635	242
328.271	240
329.905	250
331.54	258
333.174	262
334.807	276
336.441	262
338.074	256
339.707	236
341.338	216
342.969	234
344.601	218
346.231	216
347.861	200
349.491	216
351.12	212
352.749	224
354.378	204
356.006	218
357.633	220
359.261	208
360.887	204
362.513	198
364.139	192
365.764	180
367.39	192
369.014	202
370.638	218
372.261	194
373.884	196
375.508	174
377.13	170
378.752	180
380.373	168
381.994	164
383.615	152
385.235	146
386.854	142
388.473	138
390.092	134
391.711	134
393.328	120
394.947	122
396.564	134
398.181	126
399.797	134
401.412	126
403.027	132
404.642	136
406.257	142
407.871	148
409.484	170
411.098	190
412.711	218
414.323	214
415.935	210
417.547	186
419.158	188
420.768	156
422.378	144
423.988	140
425.597	126
427.206	116
428.814	118
430.422	118
432.03	110
433.637	102
435.243	84
436.85	92
438.456	88
440.062	92
441.666	84
443.271	80
444.876	72
446.479	74
448.082	82
449.685	68
451.287	78
452.89	82
454.492	82
456.092	82
457.693	90
459.293	82
460.893	88
462.492	92
464.092	94
465.691	98
467.288	120
468.887	114
470.483	142
472.081	160
473.677	166
475.273	186
476.869	214
478.463	234
480.059	242
481.653	262
483.247	288
484.84	290
486.433	292
488.026	260
489.618	206
491.21	188
492.801	156
494.392	142
495.983	124
497.573	112
499.162	100
500.752	98
502.341	102
503.929	94
505.517	100
507.105	112
508.692	126
510.279	160
511.865	198
513.45	214
515.037	194
516.621	180
518.206	150
519.79	152
521.374	140
522.957	160
524.54	166
526.123	182
527.705	202
529.287	232
530.868	274
532.448	296
534.029	368
535.609	434
537.188	444
538.768	464
540.346	432
541.925	428
543.502	368
545.08	304
546.657	250
548.234	206
549.81	204
551.386	208
552.961	200
554.536	208
556.11	250
557.684	276
559.258	338
560.832	408
562.405	554
563.977	726
565.55	1022
567.12	1472
568.692	1950
570.263	2358
571.833	2352
573.403	2014
574.973	1526
576.542	1036
578.111	704
579.679	530
581.247	414
582.815	354
584.382	334
585.948	330
587.514	306
589.081	276
590.645	280
592.211	264
593.775	264
595.339	252
596.904	232
598.466	220
600.03	196
601.592	166
603.154	146
604.715	118
606.277	120
607.838	102
609.398	102
610.958	94
612.518	90
614.077	92
615.636	96
617.194	94
618.753	98
620.31	110
621.867	106
623.424	104
624.98	110
626.537	128
628.092	130
629.647	134
631.202	160
632.756	134
634.31	154
635.864	150
637.417	148
638.969	148
640.521	134
642.074	132
643.625	132
645.176	110
646.726	118
648.276	102
649.827	100
651.376	94
652.925	86
654.473	86
656.021	88
657.569	68
659.117	74
660.664	74
662.21	74
663.757	78
665.302	68
666.847	66
668.392	62
669.937	62
671.481	62
673.025	70
674.568	64
676.111	58
677.653	66
679.195	60
680.737	58
682.279	62
683.82	62
685.36	64
686.9	64
688.44	66
689.979	60
691.517	58
693.056	62
694.594	56
696.132	64
697.669	62
699.206	60
700.742	66
702.278	56
703.814	66
705.35	64
706.884	72
708.419	82
709.953	82
711.487	96
713.019	92
714.552	100
716.085	100
717.617	96
719.148	92
720.68	80
722.21	78
723.741	70
725.271	70
726.8	70
728.33	80
729.858	72
731.387	74
732.915	78
734.443	70
735.97	86
737.497	86
739.023	86
740.549	92
742.075	94
743.6	114
745.125	128
746.65	142
748.173	152
749.697	122
751.22	124
752.743	120
754.266	118
755.788	114
757.309	110
758.831	90
760.351	84
761.871	74
763.392	76
764.912	64
766.431	66
767.95	70
769.468	68
770.986	70
772.504	66
774.022	70
775.538	66
777.055	76
778.571	76
780.086	84
781.602	86
783.117	80
784.632	84
786.146	82
787.659	78
789.173	70
790.685	66
792.198	64
793.71	70
795.222	60
796.733	64
798.244	62
799.755	76
801.265	70
802.775	68
804.284	72
805.793	80
807.302	74
808.81	80
810.318	80
811.826	64
813.333	72
814.84	68
816.346	78
817.851	82
819.357	90
820.862	84
822.367	98
823.871	122
825.376	136
826.878	168
828.382	230
829.885	324
831.387	496
832.889	596
834.391	558
835.892	388
837.392	256
838.893	178
840.393	138
841.893	118
843.392	100
844.891	106
846.389	102
847.888	98
849.386	96
850.882	96
852.38	94
853.876	82
855.372	96
856.868	88
858.363	82
859.858	72
861.353	82
862.847	76
864.341	86
865.834	70
867.328	76
868.82	66
870.313	74
871.805	64
873.296	66
874.787	66
876.278	64
877.769	58
879.258	62
880.748	66
882.237	60
883.726	66
885.214	64
886.702	62
888.19	60
889.677	58
891.164	60
892.651	54
894.137	58
895.623	56
897.108	56
898.593	54
900.077	62
901.562	62
903.046	60
904.529	60
906.012	60
907.495	62
908.977	54
910.459	56
911.941	62
913.422	60
914.903	54
916.383	62
917.863	54
919.343	62
920.822	56
922.301	60
923.779	56
925.257	62
926.735	60
928.213	62
929.69	60
931.166	62
932.643	60
934.119	72
935.594	74
937.069	64
938.543	68
940.018	70
941.492	84
942.966	96
944.439	94
945.911	90
947.384	114
948.856	132
950.328	158
951.799	172
953.27	218
954.741	248
956.21	290
957.68	352
959.15	380
960.619	408
962.088	374
963.556	328
965.023	290
966.491	268
967.958	244
969.425	200
970.891	182
972.357	162
973.824	134
975.288	114
976.754	108
978.218	96
979.682	82
981.146	80
982.609	80
984.072	78
985.534	66
986.997	68
988.459	76
989.92	70
991.382	76
992.842	76
994.302	68
995.763	68
997.222	70
998.681	60
1000.14	62
1001.6	62
1003.06	68
1004.52	58
1005.97	72
1007.43	64
1008.89	64
1010.34	64
1011.8	62
1013.25	60
1014.71	66
1016.16	68
1017.62	60
1019.07	76
1020.53	76
1021.98	68
1023.43	80
1024.89	84
1026.34	88
1027.79	80
1029.24	100
1030.69	88
1032.14	92
1033.59	96
1035.04	94
1036.49	94
1037.94	94
1039.39	98
1040.84	90
1042.29	78
1043.73	82
1045.18	76
1046.63	74
1048.08	74
1049.52	66
1050.97	72
1052.41	70
1053.86	64
1055.3	62
1056.75	66
1058.19	62
1059.64	60
1061.08	66
1062.52	64
1063.96	70
1065.41	66
1066.85	62
1068.29	62
1069.73	64
1071.17	70
1072.61	68
1074.05	60
1075.49	60
1076.93	70
1078.37	54
1079.81	64
1081.25	62
1082.68	68
1084.12	64
1085.56	66
1087	60
1088.43	66
1089.87	62
1091.3	68
1092.74	68
1094.17	78
1095.61	70
1097.04	72
1098.48	80
1099.91	70
1101.34	86
1102.78	88
1104.21	92
1105.64	108
1107.07	136
1108.5	200
1109.93	246
1111.36	322
1112.8	354
1114.22	336
1115.65	252
1117.08	206
1118.51	152
1119.94	134
1121.37	112
1122.8	110
1124.22	110
1125.65	96
1127.08	94
1128.5	88
1129.93	90
1131.35	88
1132.78	82
1134.2	80
1135.63	80
1137.05	88
1138.48	82
1139.9	94
1141.32	92
1142.75	92
1144.17	80
1145.59	76
1147.01	76
1148.43	80
1149.85	76
1151.27	66
1152.69	66
1154.11	68
1155.53	82
1156.95	82
1158.37	78
1159.79	92
1161.21	96
1162.62	92
1164.04	90
1165.46	88
1166.87	82
1168.29	80
1169.71	90
1171.12	86
1172.54	90
1173.95	88
1175.37	88
1176.78	104
1178.19	118
1179.61	128
1181.02	134
1182.43	178
1183.84	202
1185.26	230
1186.67	256
1188.08	236
1189.49	220
1190.9	184
1192.31	170
1193.72	156
1195.13	144
1196.54	146
1197.95	162
1199.36	166
1200.76	178
1202.17	164
1203.58	162
1204.99	170
1206.39	164
1207.8	152
1209.2	126
1210.61	122
1212.01	100
1213.42	92
1214.82	90
1216.23	96
1217.63	86
1219.03	96
1220.44	84
1221.84	86
1223.24	92
1224.64	104
1226.05	116
1227.45	114
1228.85	148
1230.25	136
1231.65	138
1233.05	118
1234.45	104
1235.85	106
1237.25	100
1238.64	92
1240.04	90
1241.44	90
1242.84	94
1244.23	90
1245.63	86
1247.03	84
1248.42	84
1249.82	82
1251.21	88
1252.61	90
1254	90
1255.4	92
1256.79	90
1258.19	92
1259.58	90
1260.97	96
1262.36	90
1263.76	92
1265.15	90
1266.54	86
1267.93	106
1269.32	98
1270.71	92
1272.1	100
1273.49	100
1274.88	114
1276.27	112
1277.66	110
1279.05	124
1280.43	126
1281.82	136
1283.21	132
1284.6	140
1285.98	162
1287.37	160
1288.75	148
1290.14	166
1291.53	176
1292.91	188
1294.29	212
1295.68	246
1297.06	288
1298.45	338
1299.83	428
1301.21	560
1302.59	650
1303.98	784
1305.36	798
1306.74	750
1308.12	630
1309.5	534
1310.88	394
1312.26	358
1313.64	294
1315.02	270
1316.4	242
1317.78	214
1319.16	212
1320.53	198
1321.91	198
1323.29	194
1324.67	184
1326.04	178
1327.42	184
1328.79	178
1330.17	200
1331.54	170
1332.92	158
1334.29	164
1335.67	152
1337.04	146
1338.42	156
1339.79	152
1341.16	144
1342.53	160
1343.91	150
1345.28	152
1346.65	154
1348.02	146
1349.39	186
1350.76	164
1352.13	180
1353.5	154
1354.87	158
1356.24	156
1357.61	160
1358.98	150
1360.34	140
1361.71	144
1363.08	156
1364.45	144
1365.81	156
1367.18	154
1368.54	170
1369.91	182
1371.28	196
1372.64	244
1374.01	280
1375.37	356
1376.73	388
1378.1	414
1379.46	440
1380.82	432
1382.19	386
1383.55	372
1384.91	318
1386.27	262
1387.63	224
1388.99	198
1390.35	182
1391.71	152
1393.07	154
1394.43	150
1395.79	150
1397.15	140
1398.51	140
1399.87	144
1401.23	138
1402.58	142
1403.94	134
1405.3	142
1406.65	132
1408.01	132
1409.37	132
1410.72	138
1412.08	142
1413.43	142
1414.79	140
1416.14	146
1417.49	154
1418.85	158
1420.2	158
1421.55	182
1422.91	194
1424.26	188
1425.61	182
1426.96	192
1428.31	202
1429.66	198
1431.01	190
1432.36	202
1433.71	204
1435.06	200
1436.41	214
1437.76	196
1439.11	224
1440.46	210
1441.81	212
1443.15	214
1444.5	220
1445.85	190
1447.19	196
1448.54	178
1449.89	168
1451.23	168
1452.58	164
1453.92	166
1455.27	160
1456.61	172
1457.95	168
1459.3	154
1460.64	158
1461.98	162
1463.33	158
1464.67	156
1466.01	158
1467.35	150
1468.69	160
1470.03	150
1471.37	158
1472.71	152
1474.05	154
1475.39	154
1476.73	144
1478.07	146
1479.41	146
1480.75	140
1482.09	136
1483.42	128
1484.76	136
1486.1	134
1487.43	130
1488.77	130
1490.11	124
1491.44	120
1492.78	126
1494.11	124
1495.45	116
1496.78	122
1498.12	120
1499.45	108
1500.78	116
1502.11	114
1503.45	102
1504.78	118
1506.11	118
1507.44	116
1508.77	110
1510.11	118
1511.44	122
1512.77	116
1514.1	110
1515.43	108
1516.76	110
1518.08	108
1519.41	108
1520.74	120
1522.07	104
1523.4	104
1524.72	108
1526.05	106
1527.38	120
1528.7	110
1530.03	110
1531.36	122
1532.68	114
1534.01	112
1535.33	114
1536.66	104
1537.98	94
1539.3	112
1540.63	112
1541.95	106
1543.27	96
1544.6	112
1545.92	106
1547.24	112
1548.56	112
1549.88	108
1551.2	110
1552.52	108
1553.84	114
1555.17	108
1556.48	106
1557.8	104
1559.12	116
1560.44	108
1561.76	106
1563.08	108
1564.4	112
1565.71	116
1567.03	114
1568.35	118
1569.66	124
1570.98	128
1572.29	128
1573.61	126
1574.93	128
1576.24	136
1577.55	136
1578.87	138
1580.18	162
1581.5	160
1582.81	176
1584.12	176
1585.43	184
1586.75	194
1588.06	218
1589.37	230
1590.68	268
1591.99	292
1593.3	324
1594.61	340
1595.92	384
1597.23	396
1598.54	436
1599.85	470
1601.16	488
1602.47	494
1603.78	460
1605.08	438
1606.39	450
1607.7	414
1609	374
1610.31	364
1611.62	332
1612.92	312
1614.23	260
1615.53	258
1616.84	218
1618.14	208
1619.45	198
1620.75	168
1622.06	154
1623.36	148
1624.66	128
1625.96	130
1627.27	124
1628.57	112
1629.87	108
1631.17	116
1632.47	94
1633.77	106
1635.07	108
1636.37	104
1637.67	94
1638.97	96
1640.27	98
1641.57	84
1642.87	86
1644.17	86
1645.47	92
1646.76	96
1648.06	84
1649.36	92
1650.66	82
1651.95	80
1653.25	88
1654.54	86
1655.84	78
1657.13	86
1658.43	84
1659.72	84
1661.02	76
1662.31	80
1663.6	82
1664.9	88
1666.19	78
1667.48	78
1668.78	80
1670.07	82
1671.36	78
1672.65	84
1673.94	80
1675.23	72
1676.52	80
1677.81	80
1679.1	88
1680.39	80
1681.68	82
1682.97	78
1684.26	68
1685.55	82
1686.83	84
1688.12	86
1689.41	68
1690.7	86
1691.98	86
1693.27	76
1694.55	82
1695.84	82
1697.13	78
1698.41	80
1699.69	64
1700.98	74
1702.26	74