File: Mixture_Classification/Jesse_Dataset_v2/Pure Raman/Polypropylene oxide/785nm/ps-ppo-6jan25-0,0000-map2_Y04_X10.txt
204.377	404
206.045	374
207.713	396
209.38	374
211.048	352
212.715	358
214.381	320
216.047	332
217.712	352
219.377	346
221.042	390
222.706	456
224.369	498
226.032	584
227.695	706
229.357	808
231.019	932
232.68	1016
234.341	1022
236.001	966
237.661	926
239.321	870
240.98	774
242.639	716
244.297	624
245.955	600
247.612	522
249.268	466
250.924	414
252.58	362
254.236	302
255.891	320
257.546	294
259.2	252
260.854	240
262.507	210
264.16	208
265.812	212
267.463	200
269.115	184
270.766	186
272.417	186
274.067	184
275.717	168
277.365	192
279.014	182
280.663	204
282.311	228
283.958	254
285.605	258
287.252	304
288.898	342
290.543	374
292.188	418
293.833	470
295.477	450
297.121	450
298.765	410
300.407	382
302.05	380
303.693	354
305.334	330
306.975	314
308.615	284
310.256	272
311.896	270
313.535	252
315.175	236
316.813	246
318.451	242
320.089	236
321.726	248
323.362	236
324.999	236
326.635	240
328.271	250
329.905	272
331.54	260
333.174	274
334.807	268
336.441	264
338.074	232
339.707	246
341.338	234
342.969	212
344.601	224
346.231	212
347.861	212
349.491	224
351.12	200
352.749	214
354.378	218
356.006	216
357.633	214
359.261	212
360.887	202
362.513	188
364.139	192
365.764	186
367.39	184
369.014	200
370.638	206
372.261	196
373.884	210
375.508	194
377.13	182
378.752	174
380.373	170
381.994	152
383.615	158
385.235	136
386.854	138
388.473	136
390.092	134
391.711	140
393.328	130
394.947	124
396.564	120
398.181	120
399.797	126
401.412	138
403.027	144
404.642	148
406.257	152
407.871	166
409.484	172
411.098	194
412.711	224
414.323	212
415.935	220
417.547	218
419.158	182
420.768	172
422.378	152
423.988	146
425.597	134
427.206	122
428.814	110
430.422	118
432.03	106
433.637	102
435.243	108
436.85	96
438.456	88
440.062	78
441.666	76
443.271	90
444.876	74
446.479	70
448.082	74
449.685	82
451.287	78
452.89	82
454.492	82
456.092	72
457.693	78
459.293	86
460.893	90
462.492	94
464.092	98
465.691	98
467.288	112
468.887	124
470.483	138
472.081	154
473.677	168
475.273	192
476.869	208
478.463	220
480.059	240
481.653	272
483.247	296
484.84	300
486.433	292
488.026	260
489.618	204
491.21	166
492.801	160
494.392	156
495.983	126
497.573	108
499.162	100
500.752	100
502.341	94
503.929	108
505.517	112
507.105	118
508.692	120
510.279	164
511.865	202
513.45	222
515.037	218
516.621	184
518.206	148
519.79	146
521.374	150
522.957	168
524.54	162
526.123	192
527.705	188
529.287	246
530.868	268
532.448	314
534.029	368
535.609	404
537.188	462
538.768	466
540.346	460
541.925	416
543.502	378
545.08	324
546.657	244
548.234	216
549.81	210
551.386	202
552.961	196
554.536	220
556.11	246
557.684	258
559.258	318
560.832	384
562.405	530
563.977	720
565.55	1060
567.12	1500
568.692	2026
570.263	2438
571.833	2380
573.403	2050
574.973	1526
576.542	1040
578.111	714
579.679	506
581.247	404
582.815	350
584.382	348
585.948	342
587.514	322
589.081	290
590.645	288
592.211	276
593.775	264
595.339	248
596.904	250
598.466	222
600.03	186
601.592	158
603.154	124
604.715	114
606.277	118
607.838	108
609.398	102
610.958	96
612.518	96
614.077	86
615.636	94
617.194	92
618.753	92
620.31	100
621.867	104
623.424	124
624.98	120
626.537	120
628.092	138
629.647	134
631.202	152
632.756	154
634.31	152
635.864	156
637.417	156
638.969	144
640.521	144
642.074	128
643.625	124
645.176	120
646.726	112
648.276	98
649.827	100
651.376	102
652.925	86
654.473	86
656.021	88
657.569	80
659.117	80
660.664	78
662.21	78
663.757	62
665.302	64
666.847	70
668.392	64
669.937	60
671.481	68
673.025	54
674.568	58
676.111	60
677.653	60
679.195	56
680.737	64
682.279	62
683.82	66
685.36	54
686.9	68
688.44	54
689.979	62
691.517	58
693.056	60
694.594	62
696.132	64
697.669	64
699.206	66
700.742	62
702.278	64
703.814	66
705.35	70
706.884	74
708.419	76
709.953	86
711.487	80
713.019	100
714.552	104
716.085	98
717.617	94
719.148	86
720.68	84
722.21	70
723.741	78
725.271	86
726.8	74
728.33	82
729.858	76
731.387	80
732.915	74
734.443	78
735.97	86
737.497	86
739.023	94
740.549	90
742.075	98
743.6	104
745.125	134
746.65	144
748.173	148
749.697	134
751.22	130
752.743	124
754.266	114
755.788	124
757.309	106
758.831	96
760.351	82
761.871	76
763.392	76
764.912	62
766.431	72
767.95	66
769.468	68
770.986	66
772.504	68
774.022	86
775.538	74
777.055	76
778.571	82
780.086	78
781.602	76
783.117	82
784.632	80
786.146	72
787.659	72
789.173	68
790.685	64
792.198	68
793.71	72
795.222	70
796.733	70
798.244	74
799.755	64
801.265	68
802.775	70
804.284	76
805.793	82
807.302	80
808.81	62
810.318	78
811.826	74
813.333	72
814.84	70
816.346	68
817.851	84
819.357	84
820.862	100
822.367	98
823.871	122
825.376	126
826.878	178
828.382	238
829.885	348
831.387	500
832.889	624
834.391	574
835.892	420
837.392	250
838.893	188
840.393	142
841.893	120
843.392	102
844.891	102
846.389	96
847.888	96
849.386	98
850.882	90
852.38	98
853.876	86
855.372	88
856.868	98
858.363	86
859.858	90
861.353	86
862.847	82
864.341	70
865.834	72
867.328	64
868.82	74
870.313	68
871.805	70
873.296	70
874.787	66
876.278	62
877.769	64
879.258	62
880.748	66
882.237	62
883.726	58
885.214	68
886.702	62
888.19	56
889.677	52
891.164	56
892.651	60
894.137	52
895.623	58
897.108	60
898.593	56
900.077	56
901.562	62
903.046	60
904.529	58
906.012	56
907.495	60
908.977	60
910.459	62
911.941	58
913.422	54
914.903	62
916.383	58
917.863	60
919.343	58
920.822	52
922.301	62
923.779	62
925.257	66
926.735	64
928.213	64
929.69	56
931.166	60
932.643	62
934.119	64
935.594	66
937.069	68
938.543	72
940.018	72
941.492	88
942.966	94
944.439	92
945.911	106
947.384	110
948.856	132
950.328	152
951.799	176
953.27	212
954.741	262
956.21	326
957.68	360
959.15	398
960.619	402
962.088	392
963.556	340
965.023	308
966.491	264
967.958	240
969.425	214
970.891	186
972.357	144
973.824	142
975.288	114
976.754	100
978.218	90
979.682	88
981.146	80
982.609	86
984.072	72
985.534	74
986.997	74
988.459	76
989.92	74
991.382	72
992.842	72
994.302	70
995.763	66
997.222	68
998.681	64
1000.14	66
1001.6	68
1003.06	70
1004.52	62
1005.97	74
1007.43	66
1008.89	66
1010.34	62
1011.8	70
1013.25	70
1014.71	68
1016.16	70
1017.62	76
1019.07	80
1020.53	78
1021.98	80
1023.43	78
1024.89	92
1026.34	98
1027.79	88
1029.24	92
1030.69	98
1032.14	88
1033.59	102
1035.04	96
1036.49	102
1037.94	94
1039.39	94
1040.84	90
1042.29	88
1043.73	86
1045.18	84
1046.63	80
1048.08	80
1049.52	78
1050.97	74
1052.41	66
1053.86	70
1055.3	76
1056.75	60
1058.19	62
1059.64	68
1061.08	64
1062.52	64
1063.96	70
1065.41	62
1066.85	68
1068.29	66
1069.73	60
1071.17	64
1072.61	60
1074.05	72
1075.49	62
1076.93	60
1078.37	64
1079.81	66
1081.25	64
1082.68	64
1084.12	64
1085.56	60
1087	60
1088.43	68
1089.87	74
1091.3	70
1092.74	72
1094.17	72
1095.61	72
1097.04	74
1098.48	66
1099.91	82
1101.34	74
1102.78	94
1104.21	100
1105.64	110
1107.07	142
1108.5	198
1109.93	278
1111.36	346
1112.8	356
1114.22	326
1115.65	260
1117.08	212
1118.51	164
1119.94	132
1121.37	110
1122.8	110
1124.22	112
1125.65	98
1127.08	84
1128.5	82
1129.93	92
1131.35	88
1132.78	92
1134.2	94
1135.63	86
1137.05	90
1138.48	78
1139.9	82
1141.32	94
1142.75	84
1144.17	86
1145.59	88
1147.01	76
1148.43	72
1149.85	78
1151.27	74
1152.69	78
1154.11	72
1155.53	76
1156.95	78
1158.37	86
1159.79	88
1161.21	94
1162.62	78
1164.04	100
1165.46	98
1166.87	82
1168.29	86
1169.71	86
1171.12	94
1172.54	80
1173.95	96
1175.37	106
1176.78	108
1178.19	116
1179.61	132
1181.02	148
1182.43	178
1183.84	204
1185.26	228
1186.67	230
1188.08	248
1189.49	224
1190.9	188
1192.31	166
1193.72	166
1195.13	160
1196.54	158
1197.95	168
1199.36	174
1200.76	168
1202.17	186
1203.58	184
1204.99	186
1206.39	158
1207.8	150
1209.2	130
1210.61	118
1212.01	116
1213.42	102
1214.82	92
1216.23	96
1217.63	80
1219.03	88
1220.44	82
1221.84	90
1223.24	94
1224.64	98
1226.05	116
1227.45	128
1228.85	134
1230.25	138
1231.65	132
1233.05	124
1234.45	114
1235.85	94
1237.25	100
1238.64	100
1240.04	84
1241.44	86
1242.84	94
1244.23	84
1245.63	76
1247.03	92
1248.42	86
1249.82	82
1251.21	82
1252.61	90
1254	84
1255.4	86
1256.79	94
1258.19	94
1259.58	90
1260.97	96
1262.36	88
1263.76	90
1265.15	86
1266.54	102
1267.93	94
1269.32	90
1270.71	94
1272.1	94
1273.49	96
1274.88	112
1276.27	120
1277.66	108
1279.05	124
1280.43	110
1281.82	138
1283.21	130
1284.6	140
1285.98	148
1287.37	154
1288.75	156
1290.14	154
1291.53	172
1292.91	186
1294.29	200
1295.68	248
1297.06	292
1298.45	362
1299.83	456
1301.21	568
1302.59	682
1303.98	782
1305.36	828
1306.74	786
1308.12	674
1309.5	540
1310.88	432
1312.26	364
1313.64	306
1315.02	284
1316.4	242
1317.78	212
1319.16	216
1320.53	198
1321.91	182
1323.29	182
1324.67	188
1326.04	180
1327.42	186
1328.79	182
1330.17	186
1331.54	184
1332.92	174
1334.29	160
1335.67	156
1337.04	146
1338.42	142
1339.79	150
1341.16	152
1342.53	148
1343.91	166
1345.28	160
1346.65	172
1348.02	166
1349.39	170
1350.76	172
1352.13	182
1353.5	174
1354.87	172
1356.24	168
1357.61	154
1358.98	144
1360.34	146
1361.71	156
1363.08	150
1364.45	160
1365.81	156
1367.18	160
1368.54	162
1369.91	174
1371.28	208
1372.64	212
1374.01	296
1375.37	334
1376.73	412
1378.1	452
1379.46	440
1380.82	436
1382.19	420
1383.55	370
1384.91	300
1386.27	288
1387.63	258
1388.99	212
1390.35	192
1391.71	160
1393.07	152
1394.43	154
1395.79	138
1397.15	142
1398.51	140
1399.87	138
1401.23	144
1402.58	134
1403.94	140
1405.3	144
1406.65	136
1408.01	136
1409.37	136
1410.72	134
1412.08	142
1413.43	144
1414.79	132
1416.14	152
1417.49	160
1418.85	156
1420.2	164
1421.55	168
1422.91	156
1424.26	194
1425.61	192
1426.96	188
1428.31	188
1429.66	202
1431.01	188
1432.36	194
1433.71	200
1435.06	210
1436.41	208
1437.76	222
1439.11	222
1440.46	232
1441.81	216
1443.15	222
1444.5	208
1445.85	194
1447.19	212
1448.54	180
1449.89	180
1451.23	180
1452.58	176
1453.92	170
1455.27	152
1456.61	172
1457.95	162
1459.3	164
1460.64	168
1461.98	160
1463.33	154
1464.67	174
1466.01	142
1467.35	146
1468.69	154
1470.03	158
1471.37	156
1472.71	162
1474.05	148
1475.39	160
1476.73	150
1478.07	146
1479.41	138
1480.75	148
1482.09	132
1483.42	146
1484.76	136
1486.1	132
1487.43	126
1488.77	130
1490.11	122
1491.44	130
1492.78	118
1494.11	114
1495.45	120
1496.78	112
1498.12	102
1499.45	120
1500.78	112
1502.11	110
1503.45	110
1504.78	114
1506.11	118
1507.44	118
1508.77	118
1510.11	118
1511.44	118
1512.77	110
1514.1	108
1515.43	112
1516.76	120
1518.08	108
1519.41	110
1520.74	120
1522.07	102
1523.4	132
1524.72	120
1526.05	112
1527.38	108
1528.7	102
1530.03	112
1531.36	112
1532.68	102
1534.01	120
1535.33	110
1536.66	102
1537.98	100
1539.3	116
1540.63	102
1541.95	114
1543.27	112
1544.6	104
1545.92	102
1547.24	112
1548.56	104
1549.88	102
1551.2	114
1552.52	116
1553.84	112
1555.17	108
1556.48	106
1557.8	110
1559.12	110
1560.44	118
1561.76	110
1563.08	116
1564.4	108
1565.71	116
1567.03	114
1568.35	116
1569.66	118
1570.98	134
1572.29	122
1573.61	128
1574.93	126
1576.24	140
1577.55	142
1578.87	146
1580.18	148
1581.5	154
1582.81	182
1584.12	158
1585.43	190
1586.75	210
1588.06	220
1589.37	240
1590.68	264
1591.99	290
1593.3	312
1594.61	364
1595.92	368
1597.23	404
1598.54	432
1599.85	442
1601.16	494
1602.47	482
1603.78	462
1605.08	458
1606.39	426
1607.7	412
1609	380
1610.31	374
1611.62	334
1612.92	308
1614.23	262
1615.53	268
1616.84	232
1618.14	220
1619.45	196
1620.75	172
1622.06	166
1623.36	158
1624.66	142
1625.96	132
1627.27	130
1628.57	118
1629.87	112
1631.17	108
1632.47	102
1633.77	106
1635.07	104
1636.37	102
1637.67	86
1638.97	96
1640.27	98
1641.57	102
1642.87	96
1644.17	88
1645.47	90
1646.76	84
1648.06	98
1649.36	88
1650.66	82
1651.95	86
1653.25	86
1654.54	80
1655.84	84
1657.13	84
1658.43	88
1659.72	86
1661.02	74
1662.31	78
1663.6	74
1664.9	82
1666.19	80
1667.48	80
1668.78	82
1670.07	86
1671.36	78
1672.65	78
1673.94	80
1675.23	80
1676.52	80
1677.81	76
1679.1	78
1680.39	80
1681.68	86
1682.97	86
1684.26	82
1685.55	72
1686.83	76
1688.12	82
1689.41	80
1690.7	82
1691.98	84
1693.27	82
1694.55	86
1695.84	86
1697.13	78
1698.41	78
1699.69	82
1700.98	76
1702.26	80