File: Mixture_Classification/Jesse_Dataset_v2/Pure Raman/Polypropylene oxide/785nm/ps-ppo-6jan25-0,0000-map2_Y07_X06.txt
204.377	388
206.045	384
207.713	376
209.38	354
211.048	340
212.715	328
214.381	344
216.047	342
217.712	342
219.377	362
221.042	390
222.706	418
224.369	514
226.032	552
227.695	658
229.357	808
231.019	902
232.68	982
234.341	974
236.001	964
237.661	918
239.321	820
240.98	794
242.639	702
244.297	630
245.955	554
247.612	524
249.268	458
250.924	414
252.58	366
254.236	324
255.891	300
257.546	272
259.2	242
260.854	230
262.507	212
264.16	208
265.812	186
267.463	192
269.115	174
270.766	190
272.417	186
274.067	182
275.717	180
277.365	184
279.014	188
280.663	200
282.311	218
283.958	232
285.605	264
287.252	292
288.898	334
290.543	364
292.188	394
293.833	430
295.477	438
297.121	426
298.765	414
300.407	374
302.05	358
303.693	330
305.334	308
306.975	274
308.615	260
310.256	272
311.896	244
313.535	258
315.175	244
316.813	236
318.451	230
320.089	224
321.726	230
323.362	234
324.999	232
326.635	240
328.271	240
329.905	246
331.54	250
333.174	260
334.807	260
336.441	250
338.074	238
339.707	234
341.338	234
342.969	216
344.601	212
346.231	212
347.861	210
349.491	198
351.12	226
352.749	212
354.378	216
356.006	208
357.633	206
359.261	202
360.887	192
362.513	194
364.139	192
365.764	188
367.39	196
369.014	196
370.638	190
372.261	198
373.884	198
375.508	192
377.13	180
378.752	172
380.373	156
381.994	154
383.615	132
385.235	144
386.854	134
388.473	128
390.092	136
391.711	130
393.328	130
394.947	124
396.564	122
398.181	128
399.797	120
401.412	134
403.027	144
404.642	142
406.257	154
407.871	160
409.484	180
411.098	194
412.711	210
414.323	232
415.935	202
417.547	194
419.158	176
420.768	166
422.378	142
423.988	140
425.597	120
427.206	124
428.814	118
430.422	104
432.03	92
433.637	100
435.243	92
436.85	90
438.456	86
440.062	88
441.666	84
443.271	80
444.876	84
446.479	80
448.082	82
449.685	72
451.287	72
452.89	78
454.492	78
456.092	84
457.693	82
459.293	90
460.893	86
462.492	94
464.092	90
465.691	104
467.288	118
468.887	136
470.483	138
472.081	162
473.677	178
475.273	192
476.869	218
478.463	226
480.059	234
481.653	256
483.247	284
484.84	282
486.433	280
488.026	250
489.618	206
491.21	174
492.801	152
494.392	148
495.983	122
497.573	114
499.162	110
500.752	100
502.341	100
503.929	90
505.517	104
507.105	116
508.692	124
510.279	168
511.865	196
513.45	216
515.037	204
516.621	170
518.206	162
519.79	150
521.374	146
522.957	160
524.54	166
526.123	184
527.705	214
529.287	238
530.868	274
532.448	304
534.029	362
535.609	400
537.188	456
538.768	454
540.346	432
541.925	422
543.502	374
545.08	310
546.657	250
548.234	228
549.81	200
551.386	210
552.961	194
554.536	216
556.11	234
557.684	264
559.258	324
560.832	412
562.405	550
563.977	736
565.55	1050
567.12	1450
568.692	1966
570.263	2268
571.833	2368
573.403	1982
574.973	1486
576.542	994
578.111	704
579.679	510
581.247	408
582.815	356
584.382	358
585.948	324
587.514	310
589.081	296
590.645	294
592.211	258
593.775	272
595.339	228
596.904	228
598.466	220
600.03	176
601.592	166
603.154	122
604.715	118
606.277	106
607.838	96
609.398	102
610.958	96
612.518	94
614.077	74
615.636	94
617.194	102
618.753	102
620.31	96
621.867	96
623.424	110
624.98	116
626.537	120
628.092	134
629.647	142
631.202	136
632.756	146
634.31	148
635.864	160
637.417	152
638.969	146
640.521	138
642.074	128
643.625	130
645.176	104
646.726	112
648.276	100
649.827	96
651.376	94
652.925	92
654.473	88
656.021	88
657.569	82
659.117	76
660.664	76
662.21	76
663.757	72
665.302	64
666.847	68
668.392	64
669.937	62
671.481	58
673.025	58
674.568	58
676.111	62
677.653	64
679.195	60
680.737	64
682.279	60
683.82	62
685.36	64
686.9	68
688.44	62
689.979	64
691.517	60
693.056	60
694.594	62
696.132	60
697.669	62
699.206	54
700.742	66
702.278	64
703.814	68
705.35	60
706.884	72
708.419	74
709.953	72
711.487	86
713.019	96
714.552	104
716.085	96
717.617	88
719.148	84
720.68	76
722.21	78
723.741	78
725.271	78
726.8	72
728.33	76
729.858	80
731.387	78
732.915	78
734.443	84
735.97	86
737.497	86
739.023	90
740.549	86
742.075	104
743.6	112
745.125	124
746.65	134
748.173	146
749.697	134
751.22	118
752.743	118
754.266	118
755.788	118
757.309	102
758.831	94
760.351	78
761.871	80
763.392	80
764.912	66
766.431	62
767.95	76
769.468	60
770.986	70
772.504	68
774.022	72
775.538	78
777.055	80
778.571	76
780.086	80
781.602	86
783.117	78
784.632	80
786.146	74
787.659	72
789.173	60
790.685	66
792.198	70
793.71	62
795.222	70
796.733	60
798.244	66
799.755	68
801.265	60
802.775	64
804.284	76
805.793	76
807.302	70
808.81	76
810.318	66
811.826	70
813.333	78
814.84	70
816.346	80
817.851	86
819.357	82
820.862	90
822.367	98
823.871	104
825.376	140
826.878	182
828.382	236
829.885	340
831.387	484
832.889	586
834.391	558
835.892	374
837.392	246
838.893	150
840.393	130
841.893	118
843.392	102
844.891	102
846.389	98
847.888	98
849.386	98
850.882	100
852.38	94
853.876	90
855.372	84
856.868	88
858.363	86
859.858	86
861.353	88
862.847	82
864.341	72
865.834	74
867.328	68
868.82	64
870.313	62
871.805	66
873.296	64
874.787	70
876.278	62
877.769	70
879.258	68
880.748	70
882.237	58
883.726	62
885.214	64
886.702	64
888.19	68
889.677	56
891.164	54
892.651	56
894.137	58
895.623	52
897.108	56
898.593	52
900.077	60
901.562	64
903.046	62
904.529	56
906.012	64
907.495	62
908.977	52
910.459	60
911.941	64
913.422	62
914.903	56
916.383	56
917.863	54
919.343	58
920.822	60
922.301	56
923.779	62
925.257	58
926.735	62
928.213	62
929.69	60
931.166	70
932.643	68
934.119	60
935.594	70
937.069	70
938.543	72
940.018	76
941.492	78
942.966	82
944.439	94
945.911	94
947.384	110
948.856	124
950.328	150
951.799	162
953.27	210
954.741	270
956.21	294
957.68	340
959.15	370
960.619	386
962.088	378
963.556	332
965.023	294
966.491	252
967.958	226
969.425	210
970.891	176
972.357	160
973.824	142
975.288	116
976.754	92
978.218	90
979.682	88
981.146	80
982.609	74
984.072	70
985.534	64
986.997	64
988.459	74
989.92	72
991.382	82
992.842	78
994.302	60
995.763	68
997.222	66
998.681	70
1000.14	64
1001.6	66
1003.06	62
1004.52	58
1005.97	70
1007.43	62
1008.89	58
1010.34	60
1011.8	64
1013.25	60
1014.71	64
1016.16	70
1017.62	70
1019.07	76
1020.53	78
1021.98	74
1023.43	76
1024.89	86
1026.34	90
1027.79	94
1029.24	96
1030.69	98
1032.14	94
1033.59	92
1035.04	92
1036.49	100
1037.94	88
1039.39	98
1040.84	96
1042.29	82
1043.73	84
1045.18	84
1046.63	80
1048.08	70
1049.52	74
1050.97	62
1052.41	62
1053.86	64
1055.3	68
1056.75	72
1058.19	62
1059.64	62
1061.08	68
1062.52	60
1063.96	66
1065.41	62
1066.85	52
1068.29	58
1069.73	64
1071.17	62
1072.61	62
1074.05	60
1075.49	68
1076.93	58
1078.37	62
1079.81	66
1081.25	70
1082.68	66
1084.12	70
1085.56	60
1087	68
1088.43	68
1089.87	66
1091.3	66
1092.74	74
1094.17	70
1095.61	70
1097.04	68
1098.48	74
1099.91	76
1101.34	86
1102.78	88
1104.21	90
1105.64	104
1107.07	148
1108.5	174
1109.93	268
1111.36	312
1112.8	342
1114.22	324
1115.65	266
1117.08	196
1118.51	176
1119.94	134
1121.37	102
1122.8	104
1124.22	100
1125.65	98
1127.08	92
1128.5	94
1129.93	80
1131.35	76
1132.78	96
1134.2	78
1135.63	84
1137.05	92
1138.48	88
1139.9	92
1141.32	92
1142.75	96
1144.17	86
1145.59	80
1147.01	80
1148.43	74
1149.85	74
1151.27	68
1152.69	76
1154.11	74
1155.53	76
1156.95	70
1158.37	84
1159.79	94
1161.21	90
1162.62	98
1164.04	84
1165.46	94
1166.87	96
1168.29	86
1169.71	86
1171.12	88
1172.54	96
1173.95	98
1175.37	92
1176.78	104
1178.19	118
1179.61	122
1181.02	148
1182.43	162
1183.84	180
1185.26	234
1186.67	250
1188.08	218
1189.49	206
1190.9	190
1192.31	160
1193.72	162
1195.13	156
1196.54	152
1197.95	156
1199.36	170
1200.76	168
1202.17	172
1203.58	178
1204.99	168
1206.39	146
1207.8	138
1209.2	122
1210.61	108
1212.01	100
1213.42	100
1214.82	102
1216.23	84
1217.63	92
1219.03	90
1220.44	96
1221.84	100
1223.24	94
1224.64	102
1226.05	114
1227.45	122
1228.85	122
1230.25	134
1231.65	146
1233.05	124
1234.45	108
1235.85	102
1237.25	100
1238.64	86
1240.04	88
1241.44	98
1242.84	98
1244.23	82
1245.63	84
1247.03	86
1248.42	80
1249.82	84
1251.21	86
1252.61	86
1254	86
1255.4	78
1256.79	92
1258.19	84
1259.58	84
1260.97	96
1262.36	90
1263.76	94
1265.15	92
1266.54	108
1267.93	88
1269.32	88
1270.71	104
1272.1	100
1273.49	104
1274.88	96
1276.27	106
1277.66	112
1279.05	130
1280.43	108
1281.82	122
1283.21	136
1284.6	146
1285.98	150
1287.37	154
1288.75	160
1290.14	162
1291.53	168
1292.91	184
1294.29	212
1295.68	242
1297.06	278
1298.45	360
1299.83	456
1301.21	548
1302.59	700
1303.98	770
1305.36	774
1306.74	768
1308.12	646
1309.5	520
1310.88	406
1312.26	340
1313.64	294
1315.02	252
1316.4	224
1317.78	216
1319.16	198
1320.53	200
1321.91	188
1323.29	178
1324.67	174
1326.04	194
1327.42	188
1328.79	182
1330.17	178
1331.54	176
1332.92	166
1334.29	156
1335.67	152
1337.04	132
1338.42	146
1339.79	156
1341.16	156
1342.53	144
1343.91	128
1345.28	142
1346.65	162
1348.02	168
1349.39	174
1350.76	174
1352.13	170
1353.5	160
1354.87	170
1356.24	146
1357.61	154
1358.98	140
1360.34	154
1361.71	150
1363.08	146
1364.45	144
1365.81	160
1367.18	156
1368.54	156
1369.91	172
1371.28	202
1372.64	234
1374.01	294
1375.37	316
1376.73	388
1378.1	436
1379.46	440
1380.82	426
1382.19	402
1383.55	374
1384.91	318
1386.27	280
1387.63	222
1388.99	204
1390.35	182
1391.71	148
1393.07	142
1394.43	144
1395.79	140
1397.15	132
1398.51	128
1399.87	136
1401.23	130
1402.58	132
1403.94	140
1405.3	136
1406.65	138
1408.01	126
1409.37	146
1410.72	132
1412.08	144
1413.43	136
1414.79	148
1416.14	146
1417.49	154
1418.85	148
1420.2	160
1421.55	168
1422.91	172
1424.26	174
1425.61	176
1426.96	180
1428.31	172
1429.66	186
1431.01	196
1432.36	192
1433.71	194
1435.06	206
1436.41	210
1437.76	224
1439.11	210
1440.46	218
1441.81	206
1443.15	210
1444.5	210
1445.85	178
1447.19	182
1448.54	184
1449.89	178
1451.23	168
1452.58	162
1453.92	164
1455.27	166
1456.61	162
1457.95	160
1459.3	160
1460.64	162
1461.98	164
1463.33	160
1464.67	142
1466.01	154
1467.35	158
1468.69	148
1470.03	144
1471.37	144
1472.71	154
1474.05	146
1475.39	148
1476.73	142
1478.07	142
1479.41	142
1480.75	152
1482.09	144
1483.42	136
1484.76	124
1486.1	124
1487.43	116
1488.77	126
1490.11	118
1491.44	116
1492.78	108
1494.11	108
1495.45	112
1496.78	112
1498.12	114
1499.45	118
1500.78	116
1502.11	114
1503.45	112
1504.78	106
1506.11	124
1507.44	114
1508.77	114
1510.11	124
1511.44	106
1512.77	114
1514.1	120
1515.43	120
1516.76	108
1518.08	112
1519.41	104
1520.74	112
1522.07	112
1523.4	100
1524.72	106
1526.05	104
1527.38	102
1528.7	120
1530.03	108
1531.36	104
1532.68	98
1534.01	104
1535.33	104
1536.66	108
1537.98	108
1539.3	104
1540.63	110
1541.95	100
1543.27	106
1544.6	114
1545.92	106
1547.24	112
1548.56	108
1549.88	108
1551.2	106
1552.52	100
1553.84	110
1555.17	110
1556.48	112
1557.8	110
1559.12	118
1560.44	110
1561.76	100
1563.08	116
1564.4	116
1565.71	118
1567.03	104
1568.35	112
1569.66	108
1570.98	108
1572.29	124
1573.61	134
1574.93	128
1576.24	132
1577.55	136
1578.87	142
1580.18	154
1581.5	152
1582.81	174
1584.12	184
1585.43	194
1586.75	204
1588.06	222
1589.37	244
1590.68	266
1591.99	284
1593.3	306
1594.61	334
1595.92	376
1597.23	408
1598.54	424
1599.85	452
1601.16	474
1602.47	440
1603.78	472
1605.08	456
1606.39	440
1607.7	406
1609	380
1610.31	342
1611.62	324
1612.92	300
1614.23	274
1615.53	258
1616.84	230
1618.14	208
1619.45	180
1620.75	170
1622.06	168
1623.36	144
1624.66	126
1625.96	128
1627.27	122
1628.57	118
1629.87	122
1631.17	110
1632.47	106
1633.77	104
1635.07	94
1636.37	94
1637.67	96
1638.97	90
1640.27	90
1641.57	92
1642.87	92
1644.17	94
1645.47	82
1646.76	78
1648.06	84
1649.36	84
1650.66	84
1651.95	82
1653.25	82
1654.54	80
1655.84	84
1657.13	82
1658.43	84
1659.72	82
1661.02	84
1662.31	78
1663.6	72
1664.9	80
1666.19	76
1667.48	78
1668.78	78
1670.07	82
1671.36	82
1672.65	76
1673.94	74
1675.23	66
1676.52	80
1677.81	82
1679.1	72
1680.39	74
1681.68	80
1682.97	72
1684.26	80
1685.55	74
1686.83	78
1688.12	80
1689.41	74
1690.7	76
1691.98	84
1693.27	86
1694.55	82
1695.84	76
1697.13	78
1698.41	76
1699.69	72
1700.98	82
1702.26	72