File: Mixture_Classification/Jesse_Dataset_v2/Pure Raman/Polypropylene oxide/785nm/ps-ppo-6jan25-0,0000-map2_Y09_X01.txt
204.377	354
206.045	342
207.713	340
209.38	332
211.048	320
212.715	308
214.381	306
216.047	310
217.712	308
219.377	306
221.042	336
222.706	400
224.369	420
226.032	514
227.695	620
229.357	752
231.019	852
232.68	920
234.341	936
236.001	890
237.661	840
239.321	768
240.98	716
242.639	636
244.297	588
245.955	510
247.612	476
249.268	422
250.924	390
252.58	336
254.236	322
255.891	276
257.546	236
259.2	228
260.854	218
262.507	212
264.16	198
265.812	194
267.463	182
269.115	174
270.766	174
272.417	162
274.067	176
275.717	170
277.365	184
279.014	170
280.663	186
282.311	214
283.958	218
285.605	256
287.252	272
288.898	314
290.543	366
292.188	362
293.833	390
295.477	412
297.121	404
298.765	388
300.407	366
302.05	344
303.693	290
305.334	288
306.975	284
308.615	260
310.256	256
311.896	230
313.535	220
315.175	232
316.813	216
318.451	212
320.089	232
321.726	212
323.362	216
324.999	242
326.635	232
328.271	228
329.905	232
331.54	230
333.174	240
334.807	252
336.441	250
338.074	218
339.707	216
341.338	214
342.969	206
344.601	206
346.231	200
347.861	180
349.491	200
351.12	198
352.749	200
354.378	210
356.006	220
357.633	200
359.261	198
360.887	172
362.513	180
364.139	176
365.764	180
367.39	182
369.014	182
370.638	190
372.261	184
373.884	190
375.508	182
377.13	170
378.752	160
380.373	156
381.994	144
383.615	152
385.235	128
386.854	138
388.473	126
390.092	132
391.711	116
393.328	118
394.947	120
396.564	114
398.181	96
399.797	122
401.412	118
403.027	128
404.642	134
406.257	128
407.871	140
409.484	168
411.098	188
412.711	198
414.323	204
415.935	200
417.547	176
419.158	160
420.768	156
422.378	146
423.988	126
425.597	128
427.206	104
428.814	114
430.422	106
432.03	106
433.637	100
435.243	78
436.85	86
438.456	80
440.062	76
441.666	82
443.271	80
444.876	86
446.479	74
448.082	74
449.685	80
451.287	70
452.89	78
454.492	74
456.092	76
457.693	80
459.293	78
460.893	84
462.492	88
464.092	96
465.691	96
467.288	108
468.887	134
470.483	124
472.081	140
473.677	154
475.273	156
476.869	200
478.463	204
480.059	214
481.653	246
483.247	248
484.84	278
486.433	272
488.026	230
489.618	176
491.21	158
492.801	150
494.392	130
495.983	114
497.573	108
499.162	100
500.752	92
502.341	90
503.929	96
505.517	104
507.105	102
508.692	126
510.279	160
511.865	196
513.45	214
515.037	182
516.621	158
518.206	148
519.79	136
521.374	138
522.957	156
524.54	164
526.123	174
527.705	198
529.287	228
530.868	260
532.448	298
534.029	348
535.609	370
537.188	408
538.768	422
540.346	434
541.925	398
543.502	344
545.08	294
546.657	236
548.234	214
549.81	190
551.386	188
552.961	190
554.536	194
556.11	200
557.684	254
559.258	306
560.832	392
562.405	496
563.977	694
565.55	962
567.12	1372
568.692	1840
570.263	2142
571.833	2142
573.403	1828
574.973	1316
576.542	932
578.111	598
579.679	474
581.247	370
582.815	320
584.382	316
585.948	312
587.514	298
589.081	286
590.645	256
592.211	260
593.775	242
595.339	232
596.904	232
598.466	196
600.03	172
601.592	146
603.154	126
604.715	110
606.277	102
607.838	90
609.398	98
610.958	86
612.518	88
614.077	86
615.636	84
617.194	88
618.753	84
620.31	94
621.867	104
623.424	106
624.98	114
626.537	118
628.092	114
629.647	130
631.202	130
632.756	150
634.31	138
635.864	140
637.417	136
638.969	128
640.521	120
642.074	116
643.625	118
645.176	104
646.726	100
648.276	104
649.827	84
651.376	94
652.925	86
654.473	86
656.021	74
657.569	82
659.117	70
660.664	68
662.21	70
663.757	66
665.302	58
666.847	66
668.392	64
669.937	64
671.481	64
673.025	60
674.568	64
676.111	58
677.653	66
679.195	56
680.737	60
682.279	66
683.82	60
685.36	58
686.9	58
688.44	64
689.979	58
691.517	58
693.056	58
694.594	56
696.132	58
697.669	54
699.206	56
700.742	60
702.278	64
703.814	66
705.35	64
706.884	70
708.419	76
709.953	80
711.487	84
713.019	86
714.552	96
716.085	90
717.617	84
719.148	80
720.68	74
722.21	80
723.741	78
725.271	72
726.8	72
728.33	70
729.858	72
731.387	80
732.915	76
734.443	82
735.97	82
737.497	74
739.023	80
740.549	84
742.075	92
743.6	98
745.125	112
746.65	134
748.173	132
749.697	118
751.22	112
752.743	118
754.266	114
755.788	108
757.309	88
758.831	88
760.351	78
761.871	68
763.392	70
764.912	70
766.431	72
767.95	68
769.468	68
770.986	72
772.504	68
774.022	70
775.538	70
777.055	80
778.571	82
780.086	72
781.602	80
783.117	68
784.632	76
786.146	76
787.659	74
789.173	66
790.685	64
792.198	68
793.71	66
795.222	56
796.733	66
798.244	58
799.755	62
801.265	72
802.775	66
804.284	64
805.793	70
807.302	70
808.81	62
810.318	66
811.826	70
813.333	76
814.84	74
816.346	82
817.851	84
819.357	86
820.862	82
822.367	88
823.871	108
825.376	126
826.878	170
828.382	230
829.885	312
831.387	450
832.889	562
834.391	522
835.892	366
837.392	234
838.893	158
840.393	126
841.893	106
843.392	102
844.891	96
846.389	106
847.888	90
849.386	100
850.882	88
852.38	82
853.876	86
855.372	76
856.868	88
858.363	84
859.858	74
861.353	80
862.847	76
864.341	72
865.834	66
867.328	70
868.82	62
870.313	62
871.805	56
873.296	62
874.787	58
876.278	66
877.769	62
879.258	58
880.748	62
882.237	60
883.726	60
885.214	56
886.702	56
888.19	52
889.677	56
891.164	56
892.651	58
894.137	54
895.623	56
897.108	46
898.593	54
900.077	56
901.562	54
903.046	54
904.529	54
906.012	56
907.495	58
908.977	50
910.459	56
911.941	54
913.422	56
914.903	56
916.383	54
917.863	60
919.343	54
920.822	50
922.301	56
923.779	56
925.257	54
926.735	50
928.213	52
929.69	62
931.166	54
932.643	70
934.119	56
935.594	72
937.069	68
938.543	70
940.018	74
941.492	70
942.966	84
944.439	84
945.911	92
947.384	112
948.856	120
950.328	138
951.799	166
953.27	196
954.741	236
956.21	276
957.68	314
959.15	352
960.619	348
962.088	340
963.556	316
965.023	278
966.491	254
967.958	208
969.425	184
970.891	170
972.357	136
973.824	128
975.288	106
976.754	94
978.218	88
979.682	88
981.146	76
982.609	66
984.072	66
985.534	62
986.997	56
988.459	70
989.92	66
991.382	72
992.842	62
994.302	66
995.763	58
997.222	60
998.681	62
1000.14	58
1001.6	48
1003.06	64
1004.52	62
1005.97	64
1007.43	62
1008.89	58
1010.34	64
1011.8	62
1013.25	60
1014.71	66
1016.16	58
1017.62	66
1019.07	68
1020.53	64
1021.98	74
1023.43	74
1024.89	84
1026.34	82
1027.79	86
1029.24	96
1030.69	92
1032.14	100
1033.59	86
1035.04	98
1036.49	92
1037.94	82
1039.39	90
1040.84	78
1042.29	78
1043.73	78
1045.18	76
1046.63	74
1048.08	64
1049.52	68
1050.97	62
1052.41	66
1053.86	68
1055.3	66
1056.75	60
1058.19	68
1059.64	60
1061.08	64
1062.52	60
1063.96	60
1065.41	64
1066.85	64
1068.29	58
1069.73	60
1071.17	62
1072.61	64
1074.05	58
1075.49	60
1076.93	58
1078.37	54
1079.81	68
1081.25	62
1082.68	60
1084.12	62
1085.56	60
1087	58
1088.43	62
1089.87	68
1091.3	68
1092.74	62
1094.17	64
1095.61	66
1097.04	64
1098.48	60
1099.91	70
1101.34	80
1102.78	84
1104.21	94
1105.64	110
1107.07	134
1108.5	182
1109.93	254
1111.36	310
1112.8	332
1114.22	292
1115.65	226
1117.08	182
1118.51	150
1119.94	124
1121.37	110
1122.8	102
1124.22	102
1125.65	96
1127.08	82
1128.5	76
1129.93	90
1131.35	82
1132.78	84
1134.2	82
1135.63	84
1137.05	82
1138.48	82
1139.9	86
1141.32	88
1142.75	84
1144.17	82
1145.59	78
1147.01	70
1148.43	76
1149.85	74
1151.27	68
1152.69	70
1154.11	74
1155.53	74
1156.95	78
1158.37	86
1159.79	88
1161.21	86
1162.62	90
1164.04	88
1165.46	86
1166.87	82
1168.29	82
1169.71	76
1171.12	78
1172.54	82
1173.95	86
1175.37	90
1176.78	98
1178.19	106
1179.61	124
1181.02	140
1182.43	166
1183.84	186
1185.26	210
1186.67	228
1188.08	212
1189.49	196
1190.9	172
1192.31	158
1193.72	158
1195.13	154
1196.54	142
1197.95	160
1199.36	154
1200.76	160
1202.17	170
1203.58	170
1204.99	150
1206.39	144
1207.8	122
1209.2	132
1210.61	116
1212.01	100
1213.42	96
1214.82	92
1216.23	88
1217.63	88
1219.03	86
1220.44	90
1221.84	80
1223.24	96
1224.64	100
1226.05	102
1227.45	96
1228.85	132
1230.25	124
1231.65	114
1233.05	112
1234.45	106
1235.85	106
1237.25	98
1238.64	86
1240.04	92
1241.44	84
1242.84	90
1244.23	82
1245.63	80
1247.03	74
1248.42	84
1249.82	86
1251.21	82
1252.61	78
1254	80
1255.4	86
1256.79	90
1258.19	88
1259.58	86
1260.97	90
1262.36	86
1263.76	92
1265.15	94
1266.54	90
1267.93	88
1269.32	90
1270.71	86
1272.1	86
1273.49	94
1274.88	98
1276.27	108
1277.66	102
1279.05	112
1280.43	118
1281.82	124
1283.21	128
1284.6	144
1285.98	132
1287.37	148
1288.75	156
1290.14	162
1291.53	172
1292.91	184
1294.29	208
1295.68	222
1297.06	254
1298.45	318
1299.83	412
1301.21	508
1302.59	628
1303.98	710
1305.36	730
1306.74	700
1308.12	594
1309.5	482
1310.88	388
1312.26	332
1313.64	280
1315.02	258
1316.4	234
1317.78	206
1319.16	192
1320.53	178
1321.91	186
1323.29	186
1324.67	164
1326.04	172
1327.42	176
1328.79	168
1330.17	164
1331.54	172
1332.92	152
1334.29	148
1335.67	148
1337.04	138
1338.42	146
1339.79	136
1341.16	130
1342.53	132
1343.91	140
1345.28	152
1346.65	154
1348.02	160
1349.39	168
1350.76	158
1352.13	144
1353.5	148
1354.87	160
1356.24	148
1357.61	150
1358.98	134
1360.34	140
1361.71	150
1363.08	136
1364.45	144
1365.81	142
1367.18	146
1368.54	160
1369.91	176
1371.28	190
1372.64	224
1374.01	272
1375.37	324
1376.73	364
1378.1	392
1379.46	416
1380.82	402
1382.19	386
1383.55	328
1384.91	300
1386.27	256
1387.63	216
1388.99	180
1390.35	180
1391.71	158
1393.07	134
1394.43	134
1395.79	132
1397.15	130
1398.51	140
1399.87	120
1401.23	128
1402.58	136
1403.94	138
1405.3	124
1406.65	128
1408.01	128
1409.37	122
1410.72	128
1412.08	130
1413.43	132
1414.79	136
1416.14	134
1417.49	148
1418.85	150
1420.2	150
1421.55	162
1422.91	166
1424.26	174
1425.61	176
1426.96	188
1428.31	180
1429.66	166
1431.01	166
1432.36	182
1433.71	174
1435.06	188
1436.41	196
1437.76	210
1439.11	212
1440.46	194
1441.81	204
1443.15	192
1444.5	194
1445.85	186
1447.19	168
1448.54	174
1449.89	162
1451.23	154
1452.58	150
1453.92	158
1455.27	156
1456.61	158
1457.95	156
1459.3	158
1460.64	148
1461.98	146
1463.33	138
1464.67	140
1466.01	146
1467.35	142
1468.69	126
1470.03	146
1471.37	140
1472.71	136
1474.05	152
1475.39	140
1476.73	128
1478.07	128
1479.41	130
1480.75	132
1482.09	132
1483.42	126
1484.76	120
1486.1	130
1487.43	114
1488.77	130
1490.11	112
1491.44	124
1492.78	112
1494.11	112
1495.45	110
1496.78	114
1498.12	114
1499.45	100
1500.78	114
1502.11	118
1503.45	108
1504.78	116
1506.11	110
1507.44	110
1508.77	106
1510.11	102
1511.44	110
1512.77	104
1514.1	102
1515.43	102
1516.76	92
1518.08	104
1519.41	104
1520.74	98
1522.07	110
1523.4	100
1524.72	98
1526.05	106
1527.38	98
1528.7	98
1530.03	96
1531.36	104
1532.68	106
1534.01	104
1535.33	110
1536.66	90
1537.98	98
1539.3	100
1540.63	108
1541.95	112
1543.27	106
1544.6	88
1545.92	100
1547.24	104
1548.56	106
1549.88	108
1551.2	92
1552.52	106
1553.84	106
1555.17	104
1556.48	110
1557.8	104
1559.12	90
1560.44	106
1561.76	102
1563.08	104
1564.4	106
1565.71	120
1567.03	102
1568.35	108
1569.66	110
1570.98	110
1572.29	112
1573.61	110
1574.93	124
1576.24	124
1577.55	134
1578.87	144
1580.18	144
1581.5	144
1582.81	162
1584.12	164
1585.43	170
1586.75	190
1588.06	216
1589.37	220
1590.68	248
1591.99	270
1593.3	284
1594.61	322
1595.92	352
1597.23	368
1598.54	414
1599.85	422
1601.16	442
1602.47	434
1603.78	434
1605.08	422
1606.39	388
1607.7	374
1609	356
1610.31	330
1611.62	308
1612.92	282
1614.23	254
1615.53	230
1616.84	218
1618.14	194
1619.45	170
1620.75	168
1622.06	146
1623.36	138
1624.66	128
1625.96	114
1627.27	108
1628.57	106
1629.87	96
1631.17	102
1632.47	94
1633.77	102
1635.07	92
1636.37	96
1637.67	88
1638.97	84
1640.27	86
1641.57	90
1642.87	90
1644.17	82
1645.47	88
1646.76	76
1648.06	80
1649.36	80
1650.66	72
1651.95	82
1653.25	80
1654.54	78
1655.84	76
1657.13	78
1658.43	86
1659.72	80
1661.02	84
1662.31	78
1663.6	78
1664.9	70
1666.19	76
1667.48	80
1668.78	80
1670.07	80
1671.36	78
1672.65	74
1673.94	74
1675.23	66
1676.52	78
1677.81	76
1679.1	70
1680.39	70
1681.68	72
1682.97	78
1684.26	68
1685.55	76
1686.83	76
1688.12	78
1689.41	78
1690.7	76
1691.98	78
1693.27	74
1694.55	86
1695.84	78
1697.13	78
1698.41	70
1699.69	70
1700.98	80
1702.26	76