File: Mixture_Classification/Jesse_Dataset_v2/Pure Raman/Polypropylene oxide/785nm/ps-ppo-6jan25-0,0000-map2_Y04_X08.txt
204.377	398
206.045	382
207.713	368
209.38	378
211.048	356
212.715	342
214.381	316
216.047	338
217.712	354
219.377	344
221.042	398
222.706	430
224.369	486
226.032	566
227.695	678
229.357	826
231.019	916
232.68	982
234.341	1048
236.001	1002
237.661	946
239.321	880
240.98	812
242.639	718
244.297	668
245.955	582
247.612	518
249.268	486
250.924	414
252.58	380
254.236	326
255.891	306
257.546	278
259.2	244
260.854	240
262.507	214
264.16	220
265.812	198
267.463	196
269.115	188
270.766	202
272.417	190
274.067	186
275.717	200
277.365	184
279.014	186
280.663	206
282.311	218
283.958	238
285.605	272
287.252	312
288.898	342
290.543	394
292.188	414
293.833	452
295.477	466
297.121	464
298.765	424
300.407	406
302.05	364
303.693	342
305.334	332
306.975	320
308.615	286
310.256	272
311.896	256
313.535	248
315.175	244
316.813	238
318.451	226
320.089	222
321.726	244
323.362	236
324.999	236
326.635	248
328.271	266
329.905	244
331.54	272
333.174	278
334.807	254
336.441	274
338.074	244
339.707	256
341.338	250
342.969	220
344.601	234
346.231	204
347.861	208
349.491	222
351.12	216
352.749	220
354.378	210
356.006	216
357.633	220
359.261	196
360.887	192
362.513	202
364.139	186
365.764	196
367.39	192
369.014	206
370.638	200
372.261	194
373.884	198
375.508	196
377.13	190
378.752	162
380.373	174
381.994	146
383.615	156
385.235	136
386.854	136
388.473	140
390.092	140
391.711	128
393.328	132
394.947	130
396.564	110
398.181	126
399.797	132
401.412	126
403.027	142
404.642	130
406.257	146
407.871	162
409.484	184
411.098	184
412.711	210
414.323	218
415.935	210
417.547	204
419.158	186
420.768	174
422.378	144
423.988	136
425.597	144
427.206	120
428.814	122
430.422	108
432.03	112
433.637	100
435.243	102
436.85	82
438.456	88
440.062	96
441.666	82
443.271	78
444.876	88
446.479	84
448.082	88
449.685	74
451.287	84
452.89	80
454.492	80
456.092	82
457.693	86
459.293	82
460.893	92
462.492	90
464.092	108
465.691	114
467.288	116
468.887	124
470.483	148
472.081	156
473.677	172
475.273	178
476.869	212
478.463	224
480.059	246
481.653	264
483.247	278
484.84	298
486.433	304
488.026	244
489.618	208
491.21	166
492.801	154
494.392	148
495.983	134
497.573	116
499.162	110
500.752	104
502.341	108
503.929	106
505.517	104
507.105	108
508.692	140
510.279	156
511.865	194
513.45	234
515.037	200
516.621	164
518.206	158
519.79	144
521.374	150
522.957	152
524.54	188
526.123	178
527.705	198
529.287	224
530.868	282
532.448	318
534.029	376
535.609	430
537.188	458
538.768	460
540.346	440
541.925	442
543.502	382
545.08	328
546.657	278
548.234	226
549.81	210
551.386	198
552.961	222
554.536	220
556.11	238
557.684	278
559.258	330
560.832	398
562.405	534
563.977	750
565.55	1036
567.12	1456
568.692	2016
570.263	2400
571.833	2396
573.403	2074
574.973	1488
576.542	1050
578.111	726
579.679	516
581.247	406
582.815	360
584.382	364
585.948	334
587.514	342
589.081	314
590.645	294
592.211	274
593.775	254
595.339	260
596.904	232
598.466	204
600.03	180
601.592	166
603.154	144
604.715	118
606.277	104
607.838	98
609.398	94
610.958	102
612.518	94
614.077	94
615.636	88
617.194	88
618.753	90
620.31	102
621.867	108
623.424	108
624.98	118
626.537	122
628.092	136
629.647	146
631.202	142
632.756	152
634.31	152
635.864	154
637.417	146
638.969	144
640.521	142
642.074	128
643.625	134
645.176	116
646.726	106
648.276	106
649.827	94
651.376	84
652.925	90
654.473	88
656.021	86
657.569	84
659.117	80
660.664	70
662.21	72
663.757	70
665.302	70
666.847	70
668.392	66
669.937	70
671.481	66
673.025	58
674.568	58
676.111	62
677.653	64
679.195	60
680.737	66
682.279	74
683.82	62
685.36	66
686.9	66
688.44	62
689.979	62
691.517	58
693.056	58
694.594	66
696.132	56
697.669	60
699.206	68
700.742	64
702.278	68
703.814	64
705.35	74
706.884	70
708.419	72
709.953	80
711.487	92
713.019	98
714.552	104
716.085	106
717.617	98
719.148	90
720.68	88
722.21	76
723.741	78
725.271	78
726.8	76
728.33	80
729.858	74
731.387	76
732.915	84
734.443	82
735.97	86
737.497	86
739.023	94
740.549	96
742.075	90
743.6	118
745.125	122
746.65	136
748.173	148
749.697	136
751.22	128
752.743	122
754.266	122
755.788	110
757.309	106
758.831	92
760.351	84
761.871	80
763.392	74
764.912	72
766.431	68
767.95	72
769.468	68
770.986	70
772.504	70
774.022	68
775.538	78
777.055	82
778.571	80
780.086	90
781.602	76
783.117	80
784.632	76
786.146	76
787.659	78
789.173	64
790.685	68
792.198	70
793.71	70
795.222	68
796.733	66
798.244	68
799.755	72
801.265	68
802.775	68
804.284	70
805.793	74
807.302	78
808.81	74
810.318	74
811.826	82
813.333	82
814.84	72
816.346	74
817.851	86
819.357	86
820.862	88
822.367	112
823.871	112
825.376	136
826.878	182
828.382	238
829.885	326
831.387	496
832.889	622
834.391	560
835.892	426
837.392	238
838.893	174
840.393	126
841.893	118
843.392	104
844.891	98
846.389	102
847.888	102
849.386	92
850.882	98
852.38	92
853.876	100
855.372	92
856.868	88
858.363	74
859.858	86
861.353	88
862.847	80
864.341	82
865.834	76
867.328	64
868.82	70
870.313	68
871.805	70
873.296	66
874.787	64
876.278	66
877.769	62
879.258	58
880.748	58
882.237	66
883.726	62
885.214	64
886.702	62
888.19	62
889.677	56
891.164	60
892.651	60
894.137	52
895.623	56
897.108	46
898.593	58
900.077	56
901.562	62
903.046	58
904.529	52
906.012	52
907.495	58
908.977	56
910.459	58
911.941	56
913.422	56
914.903	56
916.383	60
917.863	64
919.343	48
920.822	58
922.301	56
923.779	58
925.257	62
926.735	56
928.213	64
929.69	66
931.166	66
932.643	66
934.119	68
935.594	70
937.069	66
938.543	76
940.018	78
941.492	82
942.966	90
944.439	94
945.911	92
947.384	114
948.856	132
950.328	156
951.799	172
953.27	232
954.741	250
956.21	310
957.68	350
959.15	382
960.619	388
962.088	388
963.556	336
965.023	288
966.491	264
967.958	224
969.425	208
970.891	182
972.357	164
973.824	134
975.288	114
976.754	106
978.218	102
979.682	90
981.146	80
982.609	80
984.072	70
985.534	72
986.997	70
988.459	62
989.92	76
991.382	84
992.842	78
994.302	68
995.763	64
997.222	64
998.681	68
1000.14	72
1001.6	62
1003.06	68
1004.52	66
1005.97	64
1007.43	72
1008.89	62
1010.34	62
1011.8	64
1013.25	70
1014.71	62
1016.16	64
1017.62	74
1019.07	70
1020.53	74
1021.98	82
1023.43	82
1024.89	82
1026.34	90
1027.79	96
1029.24	94
1030.69	94
1032.14	100
1033.59	106
1035.04	98
1036.49	94
1037.94	88
1039.39	92
1040.84	96
1042.29	80
1043.73	84
1045.18	84
1046.63	78
1048.08	70
1049.52	72
1050.97	68
1052.41	64
1053.86	66
1055.3	70
1056.75	64
1058.19	70
1059.64	68
1061.08	68
1062.52	68
1063.96	66
1065.41	74
1066.85	54
1068.29	58
1069.73	68
1071.17	72
1072.61	60
1074.05	60
1075.49	66
1076.93	70
1078.37	68
1079.81	64
1081.25	58
1082.68	72
1084.12	60
1085.56	64
1087	72
1088.43	58
1089.87	72
1091.3	62
1092.74	70
1094.17	74
1095.61	68
1097.04	74
1098.48	78
1099.91	72
1101.34	78
1102.78	84
1104.21	100
1105.64	114
1107.07	134
1108.5	196
1109.93	264
1111.36	340
1112.8	368
1114.22	318
1115.65	258
1117.08	204
1118.51	158
1119.94	144
1121.37	106
1122.8	114
1124.22	108
1125.65	96
1127.08	94
1128.5	90
1129.93	86
1131.35	88
1132.78	86
1134.2	78
1135.63	86
1137.05	86
1138.48	92
1139.9	96
1141.32	92
1142.75	96
1144.17	86
1145.59	78
1147.01	76
1148.43	66
1149.85	76
1151.27	82
1152.69	72
1154.11	78
1155.53	84
1156.95	76
1158.37	90
1159.79	92
1161.21	98
1162.62	88
1164.04	88
1165.46	98
1166.87	86
1168.29	96
1169.71	82
1171.12	90
1172.54	96
1173.95	98
1175.37	104
1176.78	104
1178.19	116
1179.61	132
1181.02	144
1182.43	164
1183.84	208
1185.26	242
1186.67	232
1188.08	256
1189.49	212
1190.9	184
1192.31	172
1193.72	154
1195.13	164
1196.54	170
1197.95	154
1199.36	158
1200.76	176
1202.17	166
1203.58	180
1204.99	180
1206.39	166
1207.8	150
1209.2	128
1210.61	110
1212.01	112
1213.42	100
1214.82	94
1216.23	86
1217.63	88
1219.03	92
1220.44	82
1221.84	98
1223.24	100
1224.64	112
1226.05	112
1227.45	122
1228.85	138
1230.25	140
1231.65	134
1233.05	118
1234.45	112
1235.85	102
1237.25	104
1238.64	88
1240.04	84
1241.44	96
1242.84	82
1244.23	84
1245.63	88
1247.03	86
1248.42	90
1249.82	90
1251.21	84
1252.61	80
1254	86
1255.4	92
1256.79	92
1258.19	94
1259.58	100
1260.97	90
1262.36	92
1263.76	96
1265.15	98
1266.54	92
1267.93	82
1269.32	88
1270.71	94
1272.1	104
1273.49	98
1274.88	104
1276.27	104
1277.66	112
1279.05	118
1280.43	126
1281.82	128
1283.21	140
1284.6	138
1285.98	154
1287.37	158
1288.75	166
1290.14	180
1291.53	174
1292.91	194
1294.29	220
1295.68	254
1297.06	284
1298.45	366
1299.83	460
1301.21	566
1302.59	676
1303.98	772
1305.36	816
1306.74	786
1308.12	666
1309.5	516
1310.88	444
1312.26	354
1313.64	284
1315.02	272
1316.4	242
1317.78	224
1319.16	228
1320.53	190
1321.91	204
1323.29	186
1324.67	174
1326.04	188
1327.42	178
1328.79	186
1330.17	182
1331.54	172
1332.92	170
1334.29	162
1335.67	152
1337.04	150
1338.42	142
1339.79	148
1341.16	150
1342.53	156
1343.91	162
1345.28	166
1346.65	166
1348.02	174
1349.39	184
1350.76	168
1352.13	180
1353.5	174
1354.87	180
1356.24	152
1357.61	154
1358.98	160
1360.34	150
1361.71	158
1363.08	154
1364.45	158
1365.81	150
1367.18	154
1368.54	160
1369.91	182
1371.28	212
1372.64	238
1374.01	294
1375.37	336
1376.73	382
1378.1	426
1379.46	438
1380.82	444
1382.19	416
1383.55	390
1384.91	322
1386.27	294
1387.63	248
1388.99	208
1390.35	184
1391.71	168
1393.07	140
1394.43	150
1395.79	148
1397.15	142
1398.51	144
1399.87	146
1401.23	136
1402.58	144
1403.94	140
1405.3	142
1406.65	134
1408.01	150
1409.37	142
1410.72	142
1412.08	142
1413.43	140
1414.79	146
1416.14	156
1417.49	148
1418.85	154
1420.2	154
1421.55	176
1422.91	180
1424.26	188
1425.61	188
1426.96	190
1428.31	190
1429.66	188
1431.01	186
1432.36	196
1433.71	178
1435.06	202
1436.41	214
1437.76	222
1439.11	234
1440.46	224
1441.81	198
1443.15	206
1444.5	204
1445.85	198
1447.19	204
1448.54	190
1449.89	188
1451.23	168
1452.58	160
1453.92	172
1455.27	166
1456.61	162
1457.95	160
1459.3	158
1460.64	170
1461.98	168
1463.33	158
1464.67	150
1466.01	154
1467.35	142
1468.69	156
1470.03	150
1471.37	154
1472.71	144
1474.05	150
1475.39	152
1476.73	138
1478.07	150
1479.41	142
1480.75	150
1482.09	152
1483.42	152
1484.76	124
1486.1	134
1487.43	130
1488.77	134
1490.11	120
1491.44	122
1492.78	118
1494.11	116
1495.45	118
1496.78	122
1498.12	114
1499.45	122
1500.78	114
1502.11	112
1503.45	122
1504.78	116
1506.11	110
1507.44	116
1508.77	116
1510.11	120
1511.44	116
1512.77	120
1514.1	108
1515.43	112
1516.76	118
1518.08	106
1519.41	114
1520.74	100
1522.07	112
1523.4	106
1524.72	110
1526.05	108
1527.38	106
1528.7	102
1530.03	102
1531.36	106
1532.68	112
1534.01	90
1535.33	88
1536.66	114
1537.98	112
1539.3	120
1540.63	118
1541.95	110
1543.27	106
1544.6	108
1545.92	110
1547.24	114
1548.56	106
1549.88	104
1551.2	116
1552.52	102
1553.84	120
1555.17	114
1556.48	116
1557.8	108
1559.12	106
1560.44	114
1561.76	112
1563.08	116
1564.4	118
1565.71	112
1567.03	120
1568.35	106
1569.66	120
1570.98	114
1572.29	118
1573.61	130
1574.93	122
1576.24	142
1577.55	142
1578.87	140
1580.18	158
1581.5	150
1582.81	162
1584.12	186
1585.43	182
1586.75	202
1588.06	220
1589.37	232
1590.68	270
1591.99	294
1593.3	314
1594.61	344
1595.92	376
1597.23	410
1598.54	450
1599.85	496
1601.16	484
1602.47	496
1603.78	492
1605.08	466
1606.39	448
1607.7	416
1609	412
1610.31	358
1611.62	318
1612.92	310
1614.23	286
1615.53	266
1616.84	224
1618.14	212
1619.45	196
1620.75	176
1622.06	162
1623.36	160
1624.66	144
1625.96	128
1627.27	116
1628.57	124
1629.87	114
1631.17	112
1632.47	106
1633.77	106
1635.07	94
1636.37	98
1637.67	98
1638.97	92
1640.27	96
1641.57	98
1642.87	92
1644.17	92
1645.47	84
1646.76	98
1648.06	86
1649.36	84
1650.66	88
1651.95	88
1653.25	80
1654.54	96
1655.84	80
1657.13	82
1658.43	76
1659.72	84
1661.02	78
1662.31	92
1663.6	86
1664.9	80
1666.19	80
1667.48	80
1668.78	78
1670.07	76
1671.36	78
1672.65	78
1673.94	86
1675.23	78
1676.52	86
1677.81	70
1679.1	80
1680.39	86
1681.68	82
1682.97	70
1684.26	76
1685.55	80
1686.83	86
1688.12	76
1689.41	78
1690.7	78
1691.98	80
1693.27	84
1694.55	80
1695.84	76
1697.13	78
1698.41	80
1699.69	94
1700.98	76
1702.26	78