File: Mixture_Classification/Jesse_Dataset_v2/Pure Raman/Polypropylene oxide/785nm/ps-ppo-6jan25-0,0000-map2_Y03_X10.txt
204.377	382
206.045	386
207.713	366
209.38	368
211.048	356
212.715	330
214.381	344
216.047	346
217.712	358
219.377	338
221.042	392
222.706	444
224.369	484
226.032	600
227.695	688
229.357	806
231.019	906
232.68	1016
234.341	1026
236.001	980
237.661	924
239.321	894
240.98	812
242.639	730
244.297	662
245.955	584
247.612	534
249.268	464
250.924	406
252.58	390
254.236	334
255.891	280
257.546	284
259.2	268
260.854	240
262.507	228
264.16	218
265.812	194
267.463	188
269.115	192
270.766	188
272.417	194
274.067	184
275.717	196
277.365	196
279.014	194
280.663	208
282.311	206
283.958	246
285.605	262
287.252	310
288.898	336
290.543	380
292.188	412
293.833	452
295.477	442
297.121	440
298.765	426
300.407	412
302.05	354
303.693	322
305.334	318
306.975	302
308.615	292
310.256	266
311.896	258
313.535	242
315.175	242
316.813	238
318.451	254
320.089	240
321.726	248
323.362	228
324.999	230
326.635	252
328.271	262
329.905	250
331.54	272
333.174	282
334.807	266
336.441	262
338.074	250
339.707	238
341.338	240
342.969	224
344.601	222
346.231	218
347.861	222
349.491	226
351.12	214
352.749	230
354.378	222
356.006	224
357.633	218
359.261	198
360.887	206
362.513	208
364.139	190
365.764	188
367.39	204
369.014	192
370.638	196
372.261	202
373.884	214
375.508	200
377.13	194
378.752	176
380.373	162
381.994	150
383.615	160
385.235	146
386.854	138
388.473	144
390.092	136
391.711	136
393.328	136
394.947	132
396.564	134
398.181	136
399.797	130
401.412	132
403.027	146
404.642	146
406.257	146
407.871	160
409.484	182
411.098	192
412.711	206
414.323	224
415.935	220
417.547	206
419.158	180
420.768	168
422.378	156
423.988	146
425.597	134
427.206	130
428.814	118
430.422	112
432.03	108
433.637	106
435.243	98
436.85	90
438.456	98
440.062	88
441.666	92
443.271	90
444.876	84
446.479	82
448.082	82
449.685	90
451.287	86
452.89	84
454.492	88
456.092	84
457.693	92
459.293	92
460.893	96
462.492	92
464.092	106
465.691	100
467.288	124
468.887	142
470.483	136
472.081	158
473.677	158
475.273	204
476.869	206
478.463	230
480.059	252
481.653	266
483.247	284
484.84	308
486.433	294
488.026	246
489.618	208
491.21	188
492.801	170
494.392	152
495.983	138
497.573	112
499.162	102
500.752	104
502.341	112
503.929	92
505.517	110
507.105	122
508.692	130
510.279	166
511.865	206
513.45	238
515.037	218
516.621	166
518.206	160
519.79	152
521.374	156
522.957	164
524.54	176
526.123	190
527.705	204
529.287	226
530.868	278
532.448	326
534.029	364
535.609	398
537.188	454
538.768	456
540.346	464
541.925	420
543.502	368
545.08	306
546.657	260
548.234	222
549.81	200
551.386	196
552.961	210
554.536	220
556.11	238
557.684	282
559.258	326
560.832	418
562.405	532
563.977	742
565.55	1052
567.12	1500
568.692	2032
570.263	2372
571.833	2404
573.403	2028
574.973	1488
576.542	1060
578.111	684
579.679	500
581.247	404
582.815	380
584.382	352
585.948	354
587.514	326
589.081	300
590.645	278
592.211	264
593.775	268
595.339	264
596.904	232
598.466	208
600.03	198
601.592	158
603.154	132
604.715	116
606.277	114
607.838	98
609.398	102
610.958	102
612.518	96
614.077	92
615.636	96
617.194	100
618.753	96
620.31	108
621.867	110
623.424	108
624.98	116
626.537	112
628.092	126
629.647	136
631.202	140
632.756	170
634.31	148
635.864	172
637.417	150
638.969	156
640.521	136
642.074	132
643.625	120
645.176	126
646.726	110
648.276	110
649.827	100
651.376	98
652.925	94
654.473	84
656.021	86
657.569	86
659.117	80
660.664	66
662.21	64
663.757	72
665.302	70
666.847	64
668.392	68
669.937	60
671.481	66
673.025	64
674.568	56
676.111	60
677.653	68
679.195	62
680.737	62
682.279	60
683.82	58
685.36	66
686.9	62
688.44	66
689.979	56
691.517	58
693.056	62
694.594	60
696.132	62
697.669	60
699.206	62
700.742	62
702.278	62
703.814	66
705.35	64
706.884	76
708.419	74
709.953	88
711.487	92
713.019	92
714.552	102
716.085	104
717.617	98
719.148	88
720.68	84
722.21	78
723.741	78
725.271	78
726.8	78
728.33	86
729.858	82
731.387	82
732.915	80
734.443	78
735.97	84
737.497	86
739.023	96
740.549	96
742.075	96
743.6	112
745.125	126
746.65	144
748.173	148
749.697	134
751.22	120
752.743	124
754.266	128
755.788	114
757.309	102
758.831	104
760.351	84
761.871	86
763.392	84
764.912	72
766.431	72
767.95	64
769.468	72
770.986	72
772.504	74
774.022	76
775.538	84
777.055	78
778.571	88
780.086	86
781.602	80
783.117	82
784.632	70
786.146	78
787.659	78
789.173	74
790.685	78
792.198	74
793.71	70
795.222	62
796.733	70
798.244	76
799.755	70
801.265	66
802.775	68
804.284	74
805.793	78
807.302	78
808.81	76
810.318	74
811.826	76
813.333	70
814.84	82
816.346	78
817.851	86
819.357	84
820.862	92
822.367	96
823.871	116
825.376	136
826.878	174
828.382	250
829.885	342
831.387	522
832.889	580
834.391	576
835.892	418
837.392	274
838.893	180
840.393	140
841.893	112
843.392	104
844.891	106
846.389	100
847.888	100
849.386	94
850.882	94
852.38	82
853.876	90
855.372	94
856.868	86
858.363	92
859.858	84
861.353	86
862.847	76
864.341	66
865.834	74
867.328	74
868.82	66
870.313	70
871.805	66
873.296	70
874.787	62
876.278	72
877.769	64
879.258	60
880.748	62
882.237	68
883.726	56
885.214	62
886.702	56
888.19	62
889.677	58
891.164	60
892.651	52
894.137	54
895.623	58
897.108	58
898.593	58
900.077	60
901.562	48
903.046	56
904.529	52
906.012	56
907.495	60
908.977	62
910.459	56
911.941	60
913.422	62
914.903	58
916.383	56
917.863	58
919.343	60
920.822	60
922.301	62
923.779	62
925.257	64
926.735	64
928.213	72
929.69	66
931.166	60
932.643	68
934.119	68
935.594	70
937.069	74
938.543	72
940.018	84
941.492	74
942.966	82
944.439	98
945.911	106
947.384	102
948.856	126
950.328	158
951.799	172
953.27	214
954.741	276
956.21	296
957.68	348
959.15	392
960.619	390
962.088	380
963.556	322
965.023	302
966.491	236
967.958	240
969.425	222
970.891	188
972.357	166
973.824	134
975.288	104
976.754	112
978.218	96
979.682	82
981.146	78
982.609	76
984.072	74
985.534	78
986.997	80
988.459	74
989.92	82
991.382	74
992.842	62
994.302	72
995.763	68
997.222	68
998.681	60
1000.14	56
1001.6	62
1003.06	62
1004.52	68
1005.97	66
1007.43	64
1008.89	62
1010.34	56
1011.8	66
1013.25	64
1014.71	68
1016.16	76
1017.62	68
1019.07	78
1020.53	76
1021.98	82
1023.43	78
1024.89	86
1026.34	80
1027.79	82
1029.24	86
1030.69	98
1032.14	90
1033.59	100
1035.04	102
1036.49	98
1037.94	96
1039.39	102
1040.84	88
1042.29	90
1043.73	84
1045.18	86
1046.63	74
1048.08	68
1049.52	70
1050.97	74
1052.41	58
1053.86	56
1055.3	70
1056.75	60
1058.19	54
1059.64	74
1061.08	62
1062.52	70
1063.96	70
1065.41	60
1066.85	68
1068.29	72
1069.73	66
1071.17	64
1072.61	68
1074.05	72
1075.49	60
1076.93	68
1078.37	68
1079.81	64
1081.25	66
1082.68	64
1084.12	66
1085.56	72
1087	72
1088.43	78
1089.87	70
1091.3	66
1092.74	64
1094.17	72
1095.61	74
1097.04	68
1098.48	72
1099.91	76
1101.34	80
1102.78	92
1104.21	96
1105.64	108
1107.07	144
1108.5	196
1109.93	284
1111.36	322
1112.8	384
1114.22	336
1115.65	282
1117.08	204
1118.51	160
1119.94	124
1121.37	120
1122.8	114
1124.22	98
1125.65	102
1127.08	88
1128.5	90
1129.93	82
1131.35	86
1132.78	90
1134.2	88
1135.63	78
1137.05	82
1138.48	78
1139.9	88
1141.32	92
1142.75	92
1144.17	80
1145.59	88
1147.01	76
1148.43	70
1149.85	68
1151.27	70
1152.69	82
1154.11	76
1155.53	86
1156.95	74
1158.37	88
1159.79	98
1161.21	94
1162.62	94
1164.04	94
1165.46	94
1166.87	98
1168.29	88
1169.71	84
1171.12	92
1172.54	96
1173.95	90
1175.37	106
1176.78	114
1178.19	114
1179.61	140
1181.02	142
1182.43	176
1183.84	212
1185.26	240
1186.67	236
1188.08	230
1189.49	210
1190.9	196
1192.31	166
1193.72	158
1195.13	158
1196.54	160
1197.95	164
1199.36	168
1200.76	184
1202.17	180
1203.58	172
1204.99	180
1206.39	158
1207.8	146
1209.2	136
1210.61	118
1212.01	102
1213.42	104
1214.82	94
1216.23	98
1217.63	92
1219.03	90
1220.44	102
1221.84	92
1223.24	102
1224.64	106
1226.05	116
1227.45	126
1228.85	138
1230.25	144
1231.65	132
1233.05	128
1234.45	116
1235.85	114
1237.25	100
1238.64	94
1240.04	98
1241.44	88
1242.84	80
1244.23	94
1245.63	84
1247.03	94
1248.42	84
1249.82	88
1251.21	82
1252.61	86
1254	86
1255.4	82
1256.79	92
1258.19	90
1259.58	86
1260.97	94
1262.36	92
1263.76	94
1265.15	94
1266.54	104
1267.93	96
1269.32	102
1270.71	96
1272.1	102
1273.49	92
1274.88	108
1276.27	102
1277.66	114
1279.05	128
1280.43	140
1281.82	122
1283.21	130
1284.6	142
1285.98	152
1287.37	140
1288.75	162
1290.14	170
1291.53	180
1292.91	196
1294.29	208
1295.68	252
1297.06	304
1298.45	344
1299.83	438
1301.21	550
1302.59	674
1303.98	764
1305.36	802
1306.74	742
1308.12	636
1309.5	532
1310.88	436
1312.26	360
1313.64	300
1315.02	276
1316.4	254
1317.78	224
1319.16	226
1320.53	198
1321.91	198
1323.29	184
1324.67	180
1326.04	184
1327.42	190
1328.79	186
1330.17	178
1331.54	178
1332.92	172
1334.29	160
1335.67	162
1337.04	158
1338.42	152
1339.79	144
1341.16	154
1342.53	158
1343.91	150
1345.28	166
1346.65	160
1348.02	166
1349.39	164
1350.76	166
1352.13	160
1353.5	164
1354.87	158
1356.24	168
1357.61	152
1358.98	156
1360.34	152
1361.71	150
1363.08	150
1364.45	150
1365.81	142
1367.18	160
1368.54	168
1369.91	190
1371.28	192
1372.64	226
1374.01	276
1375.37	348
1376.73	400
1378.1	426
1379.46	432
1380.82	430
1382.19	394
1383.55	370
1384.91	316
1386.27	278
1387.63	240
1388.99	198
1390.35	178
1391.71	160
1393.07	146
1394.43	152
1395.79	140
1397.15	146
1398.51	146
1399.87	142
1401.23	138
1402.58	140
1403.94	134
1405.3	140
1406.65	138
1408.01	134
1409.37	136
1410.72	144
1412.08	144
1413.43	148
1414.79	142
1416.14	158
1417.49	150
1418.85	160
1420.2	160
1421.55	172
1422.91	182
1424.26	172
1425.61	178
1426.96	182
1428.31	176
1429.66	194
1431.01	196
1432.36	184
1433.71	200
1435.06	206
1436.41	208
1437.76	220
1439.11	232
1440.46	230
1441.81	216
1443.15	196
1444.5	208
1445.85	198
1447.19	188
1448.54	184
1449.89	168
1451.23	186
1452.58	180
1453.92	168
1455.27	160
1456.61	160
1457.95	160
1459.3	156
1460.64	170
1461.98	170
1463.33	156
1464.67	152
1466.01	160
1467.35	146
1468.69	152
1470.03	158
1471.37	152
1472.71	146
1474.05	146
1475.39	158
1476.73	148
1478.07	148
1479.41	150
1480.75	148
1482.09	152
1483.42	146
1484.76	130
1486.1	124
1487.43	122
1488.77	124
1490.11	126
1491.44	120
1492.78	130
1494.11	118
1495.45	118
1496.78	116
1498.12	120
1499.45	132
1500.78	110
1502.11	106
1503.45	110
1504.78	116
1506.11	108
1507.44	116
1508.77	116
1510.11	118
1511.44	104
1512.77	118
1514.1	108
1515.43	120
1516.76	110
1518.08	112
1519.41	116
1520.74	104
1522.07	114
1523.4	108
1524.72	110
1526.05	112
1527.38	102
1528.7	114
1530.03	118
1531.36	100
1532.68	104
1534.01	106
1535.33	114
1536.66	110
1537.98	110
1539.3	110
1540.63	102
1541.95	114
1543.27	108
1544.6	108
1545.92	110
1547.24	120
1548.56	112
1549.88	112
1551.2	106
1552.52	112
1553.84	104
1555.17	112
1556.48	116
1557.8	112
1559.12	114
1560.44	112
1561.76	122
1563.08	116
1564.4	108
1565.71	120
1567.03	102
1568.35	126
1569.66	120
1570.98	114
1572.29	116
1573.61	136
1574.93	132
1576.24	122
1577.55	150
1578.87	152
1580.18	146
1581.5	166
1582.81	172
1584.12	192
1585.43	190
1586.75	196
1588.06	222
1589.37	254
1590.68	264
1591.99	290
1593.3	324
1594.61	342
1595.92	370
1597.23	396
1598.54	440
1599.85	450
1601.16	464
1602.47	474
1603.78	478
1605.08	454
1606.39	426
1607.7	408
1609	394
1610.31	346
1611.62	330
1612.92	302
1614.23	274
1615.53	250
1616.84	226
1618.14	208
1619.45	178
1620.75	174
1622.06	150
1623.36	140
1624.66	118
1625.96	122
1627.27	124
1628.57	116
1629.87	114
1631.17	110
1632.47	114
1633.77	102
1635.07	106
1636.37	94
1637.67	90
1638.97	102
1640.27	98
1641.57	92
1642.87	92
1644.17	92
1645.47	86
1646.76	82
1648.06	80
1649.36	78
1650.66	94
1651.95	88
1653.25	84
1654.54	84
1655.84	86
1657.13	74
1658.43	78
1659.72	86
1661.02	86
1662.31	88
1663.6	82
1664.9	80
1666.19	82
1667.48	80
1668.78	70
1670.07	80
1671.36	78
1672.65	84
1673.94	86
1675.23	78
1676.52	76
1677.81	80
1679.1	78
1680.39	76
1681.68	78
1682.97	76
1684.26	76
1685.55	78
1686.83	76
1688.12	76
1689.41	82
1690.7	76
1691.98	76
1693.27	70
1694.55	82
1695.84	86
1697.13	82
1698.41	86
1699.69	84
1700.98	74
1702.26	78