File: Mixture_Classification/Jesse_Dataset_v2/Pure Raman/Polypropylene oxide/785nm/ps-ppo-6jan25-0,0000-map2_Y07_X00.txt
204.377	382
206.045	366
207.713	366
209.38	344
211.048	350
212.715	340
214.381	340
216.047	320
217.712	366
219.377	372
221.042	384
222.706	432
224.369	466
226.032	552
227.695	652
229.357	804
231.019	892
232.68	950
234.341	972
236.001	950
237.661	884
239.321	882
240.98	776
242.639	724
244.297	606
245.955	554
247.612	522
249.268	462
250.924	390
252.58	354
254.236	322
255.891	304
257.546	250
259.2	250
260.854	230
262.507	226
264.16	214
265.812	204
267.463	200
269.115	186
270.766	182
272.417	178
274.067	180
275.717	170
277.365	182
279.014	182
280.663	182
282.311	214
283.958	238
285.605	260
287.252	284
288.898	326
290.543	376
292.188	402
293.833	434
295.477	446
297.121	432
298.765	420
300.407	372
302.05	356
303.693	312
305.334	316
306.975	290
308.615	272
310.256	250
311.896	256
313.535	242
315.175	216
316.813	232
318.451	232
320.089	244
321.726	220
323.362	248
324.999	224
326.635	220
328.271	248
329.905	234
331.54	260
333.174	262
334.807	274
336.441	244
338.074	238
339.707	236
341.338	218
342.969	228
344.601	210
346.231	202
347.861	198
349.491	208
351.12	216
352.749	222
354.378	222
356.006	214
357.633	220
359.261	206
360.887	198
362.513	184
364.139	186
365.764	196
367.39	196
369.014	190
370.638	210
372.261	190
373.884	198
375.508	188
377.13	178
378.752	162
380.373	164
381.994	156
383.615	150
385.235	136
386.854	152
388.473	140
390.092	130
391.711	134
393.328	130
394.947	130
396.564	130
398.181	120
399.797	120
401.412	132
403.027	126
404.642	138
406.257	148
407.871	154
409.484	172
411.098	186
412.711	206
414.323	208
415.935	198
417.547	204
419.158	194
420.768	176
422.378	142
423.988	140
425.597	124
427.206	126
428.814	114
430.422	112
432.03	106
433.637	92
435.243	94
436.85	94
438.456	88
440.062	82
441.666	88
443.271	78
444.876	80
446.479	76
448.082	84
449.685	80
451.287	70
452.89	78
454.492	78
456.092	72
457.693	78
459.293	82
460.893	80
462.492	92
464.092	90
465.691	92
467.288	114
468.887	112
470.483	144
472.081	162
473.677	168
475.273	176
476.869	198
478.463	228
480.059	230
481.653	262
483.247	264
484.84	294
486.433	278
488.026	234
489.618	202
491.21	174
492.801	152
494.392	154
495.983	130
497.573	114
499.162	110
500.752	102
502.341	94
503.929	100
505.517	104
507.105	116
508.692	128
510.279	162
511.865	204
513.45	210
515.037	198
516.621	164
518.206	158
519.79	142
521.374	154
522.957	152
524.54	158
526.123	178
527.705	206
529.287	240
530.868	276
532.448	308
534.029	362
535.609	418
537.188	446
538.768	444
540.346	430
541.925	414
543.502	358
545.08	302
546.657	250
548.234	214
549.81	208
551.386	202
552.961	198
554.536	210
556.11	230
557.684	252
559.258	326
560.832	400
562.405	534
563.977	720
565.55	1042
567.12	1400
568.692	1930
570.263	2316
571.833	2304
573.403	1922
574.973	1456
576.542	998
578.111	684
579.679	504
581.247	402
582.815	348
584.382	348
585.948	324
587.514	296
589.081	298
590.645	272
592.211	266
593.775	268
595.339	242
596.904	234
598.466	200
600.03	184
601.592	156
603.154	132
604.715	112
606.277	106
607.838	102
609.398	98
610.958	84
612.518	94
614.077	92
615.636	92
617.194	88
618.753	102
620.31	102
621.867	108
623.424	118
624.98	110
626.537	108
628.092	116
629.647	130
631.202	138
632.756	154
634.31	156
635.864	156
637.417	156
638.969	146
640.521	132
642.074	134
643.625	120
645.176	116
646.726	108
648.276	100
649.827	98
651.376	96
652.925	80
654.473	84
656.021	78
657.569	80
659.117	70
660.664	74
662.21	78
663.757	70
665.302	72
666.847	70
668.392	56
669.937	66
671.481	64
673.025	64
674.568	62
676.111	58
677.653	50
679.195	62
680.737	56
682.279	58
683.82	64
685.36	62
686.9	60
688.44	62
689.979	66
691.517	58
693.056	56
694.594	64
696.132	64
697.669	56
699.206	56
700.742	54
702.278	56
703.814	62
705.35	74
706.884	74
708.419	80
709.953	78
711.487	76
713.019	90
714.552	98
716.085	84
717.617	94
719.148	84
720.68	76
722.21	70
723.741	72
725.271	78
726.8	76
728.33	74
729.858	76
731.387	72
732.915	82
734.443	86
735.97	84
737.497	84
739.023	86
740.549	102
742.075	88
743.6	106
745.125	130
746.65	144
748.173	138
749.697	130
751.22	124
752.743	110
754.266	120
755.788	118
757.309	100
758.831	102
760.351	84
761.871	74
763.392	74
764.912	66
766.431	72
767.95	68
769.468	66
770.986	66
772.504	84
774.022	76
775.538	74
777.055	76
778.571	72
780.086	74
781.602	78
783.117	76
784.632	78
786.146	70
787.659	66
789.173	72
790.685	74
792.198	70
793.71	70
795.222	60
796.733	70
798.244	72
799.755	64
801.265	66
802.775	68
804.284	72
805.793	78
807.302	68
808.81	70
810.318	76
811.826	64
813.333	70
814.84	80
816.346	78
817.851	82
819.357	88
820.862	92
822.367	92
823.871	112
825.376	134
826.878	164
828.382	240
829.885	350
831.387	466
832.889	590
834.391	566
835.892	388
837.392	238
838.893	170
840.393	132
841.893	106
843.392	104
844.891	100
846.389	104
847.888	98
849.386	96
850.882	98
852.38	94
853.876	86
855.372	92
856.868	78
858.363	86
859.858	76
861.353	82
862.847	74
864.341	74
865.834	72
867.328	70
868.82	72
870.313	64
871.805	66
873.296	66
874.787	66
876.278	60
877.769	66
879.258	62
880.748	62
882.237	66
883.726	52
885.214	66
886.702	58
888.19	58
889.677	64
891.164	62
892.651	54
894.137	60
895.623	56
897.108	56
898.593	46
900.077	58
901.562	56
903.046	52
904.529	56
906.012	56
907.495	54
908.977	58
910.459	60
911.941	56
913.422	58
914.903	56
916.383	56
917.863	62
919.343	64
920.822	58
922.301	54
923.779	62
925.257	62
926.735	64
928.213	62
929.69	60
931.166	68
932.643	68
934.119	70
935.594	60
937.069	72
938.543	76
940.018	68
941.492	70
942.966	82
944.439	96
945.911	102
947.384	112
948.856	128
950.328	150
951.799	170
953.27	210
954.741	264
956.21	292
957.68	352
959.15	372
960.619	384
962.088	388
963.556	324
965.023	276
966.491	260
967.958	238
969.425	208
970.891	178
972.357	152
973.824	122
975.288	106
976.754	102
978.218	86
979.682	86
981.146	86
982.609	66
984.072	70
985.534	80
986.997	78
988.459	70
989.92	74
991.382	88
992.842	70
994.302	80
995.763	68
997.222	60
998.681	58
1000.14	68
1001.6	62
1003.06	58
1004.52	58
1005.97	62
1007.43	62
1008.89	70
1010.34	62
1011.8	64
1013.25	64
1014.71	70
1016.16	72
1017.62	72
1019.07	80
1020.53	72
1021.98	78
1023.43	72
1024.89	84
1026.34	82
1027.79	84
1029.24	80
1030.69	94
1032.14	98
1033.59	100
1035.04	98
1036.49	84
1037.94	90
1039.39	90
1040.84	94
1042.29	78
1043.73	80
1045.18	74
1046.63	72
1048.08	76
1049.52	66
1050.97	68
1052.41	74
1053.86	64
1055.3	64
1056.75	64
1058.19	60
1059.64	66
1061.08	60
1062.52	62
1063.96	66
1065.41	60
1066.85	60
1068.29	56
1069.73	58
1071.17	68
1072.61	64
1074.05	62
1075.49	54
1076.93	66
1078.37	66
1079.81	66
1081.25	64
1082.68	68
1084.12	66
1085.56	60
1087	58
1088.43	64
1089.87	62
1091.3	66
1092.74	64
1094.17	74
1095.61	66
1097.04	74
1098.48	68
1099.91	80
1101.34	80
1102.78	90
1104.21	94
1105.64	120
1107.07	138
1108.5	190
1109.93	270
1111.36	342
1112.8	336
1114.22	330
1115.65	258
1117.08	190
1118.51	154
1119.94	140
1121.37	120
1122.8	104
1124.22	102
1125.65	102
1127.08	88
1128.5	88
1129.93	82
1131.35	88
1132.78	88
1134.2	78
1135.63	90
1137.05	86
1138.48	82
1139.9	76
1141.32	98
1142.75	80
1144.17	92
1145.59	78
1147.01	86
1148.43	70
1149.85	80
1151.27	70
1152.69	76
1154.11	74
1155.53	82
1156.95	78
1158.37	88
1159.79	88
1161.21	94
1162.62	86
1164.04	94
1165.46	86
1166.87	88
1168.29	88
1169.71	90
1171.12	80
1172.54	94
1173.95	98
1175.37	98
1176.78	104
1178.19	110
1179.61	126
1181.02	142
1182.43	164
1183.84	186
1185.26	226
1186.67	254
1188.08	230
1189.49	216
1190.9	194
1192.31	170
1193.72	156
1195.13	144
1196.54	146
1197.95	144
1199.36	162
1200.76	168
1202.17	172
1203.58	174
1204.99	154
1206.39	162
1207.8	142
1209.2	130
1210.61	116
1212.01	106
1213.42	98
1214.82	88
1216.23	92
1217.63	94
1219.03	94
1220.44	86
1221.84	94
1223.24	94
1224.64	94
1226.05	112
1227.45	124
1228.85	132
1230.25	130
1231.65	134
1233.05	124
1234.45	108
1235.85	104
1237.25	96
1238.64	88
1240.04	90
1241.44	96
1242.84	94
1244.23	92
1245.63	90
1247.03	82
1248.42	88
1249.82	78
1251.21	86
1252.61	82
1254	72
1255.4	88
1256.79	90
1258.19	92
1259.58	90
1260.97	90
1262.36	88
1263.76	96
1265.15	90
1266.54	98
1267.93	90
1269.32	96
1270.71	90
1272.1	100
1273.49	96
1274.88	108
1276.27	108
1277.66	106
1279.05	126
1280.43	114
1281.82	126
1283.21	140
1284.6	124
1285.98	156
1287.37	156
1288.75	170
1290.14	164
1291.53	176
1292.91	182
1294.29	204
1295.68	244
1297.06	296
1298.45	320
1299.83	458
1301.21	532
1302.59	648
1303.98	738
1305.36	800
1306.74	736
1308.12	654
1309.5	514
1310.88	414
1312.26	360
1313.64	288
1315.02	262
1316.4	240
1317.78	214
1319.16	208
1320.53	192
1321.91	192
1323.29	194
1324.67	182
1326.04	180
1327.42	194
1328.79	188
1330.17	186
1331.54	150
1332.92	154
1334.29	156
1335.67	142
1337.04	156
1338.42	146
1339.79	144
1341.16	154
1342.53	150
1343.91	154
1345.28	158
1346.65	166
1348.02	164
1349.39	160
1350.76	162
1352.13	178
1353.5	164
1354.87	166
1356.24	152
1357.61	146
1358.98	158
1360.34	136
1361.71	146
1363.08	156
1364.45	144
1365.81	146
1367.18	160
1368.54	168
1369.91	176
1371.28	194
1372.64	242
1374.01	264
1375.37	336
1376.73	374
1378.1	422
1379.46	438
1380.82	426
1382.19	394
1383.55	370
1384.91	302
1386.27	280
1387.63	222
1388.99	190
1390.35	172
1391.71	152
1393.07	152
1394.43	142
1395.79	150
1397.15	128
1398.51	136
1399.87	148
1401.23	132
1402.58	132
1403.94	122
1405.3	136
1406.65	128
1408.01	132
1409.37	136
1410.72	130
1412.08	144
1413.43	142
1414.79	148
1416.14	146
1417.49	154
1418.85	150
1420.2	164
1421.55	170
1422.91	172
1424.26	176
1425.61	174
1426.96	194
1428.31	188
1429.66	182
1431.01	180
1432.36	200
1433.71	198
1435.06	206
1436.41	206
1437.76	224
1439.11	208
1440.46	224
1441.81	208
1443.15	204
1444.5	198
1445.85	182
1447.19	190
1448.54	182
1449.89	170
1451.23	168
1452.58	160
1453.92	166
1455.27	160
1456.61	164
1457.95	164
1459.3	148
1460.64	152
1461.98	148
1463.33	148
1464.67	142
1466.01	140
1467.35	154
1468.69	162
1470.03	140
1471.37	140
1472.71	148
1474.05	150
1475.39	148
1476.73	130
1478.07	144
1479.41	132
1480.75	132
1482.09	142
1483.42	140
1484.76	130
1486.1	132
1487.43	124
1488.77	130
1490.11	108
1491.44	122
1492.78	120
1494.11	124
1495.45	106
1496.78	110
1498.12	114
1499.45	112
1500.78	110
1502.11	122
1503.45	104
1504.78	112
1506.11	114
1507.44	112
1508.77	104
1510.11	114
1511.44	110
1512.77	108
1514.1	118
1515.43	110
1516.76	108
1518.08	114
1519.41	118
1520.74	100
1522.07	108
1523.4	112
1524.72	108
1526.05	112
1527.38	106
1528.7	112
1530.03	104
1531.36	106
1532.68	108
1534.01	108
1535.33	96
1536.66	104
1537.98	110
1539.3	104
1540.63	100
1541.95	108
1543.27	106
1544.6	104
1545.92	108
1547.24	104
1548.56	110
1549.88	112
1551.2	106
1552.52	112
1553.84	110
1555.17	108
1556.48	106
1557.8	114
1559.12	110
1560.44	126
1561.76	100
1563.08	110
1564.4	108
1565.71	114
1567.03	116
1568.35	120
1569.66	114
1570.98	114
1572.29	128
1573.61	128
1574.93	120
1576.24	132
1577.55	128
1578.87	142
1580.18	150
1581.5	164
1582.81	170
1584.12	168
1585.43	198
1586.75	192
1588.06	226
1589.37	248
1590.68	268
1591.99	292
1593.3	322
1594.61	338
1595.92	374
1597.23	398
1598.54	426
1599.85	468
1601.16	460
1602.47	468
1603.78	470
1605.08	470
1606.39	414
1607.7	400
1609	364
1610.31	348
1611.62	310
1612.92	326
1614.23	276
1615.53	242
1616.84	228
1618.14	190
1619.45	184
1620.75	168
1622.06	154
1623.36	148
1624.66	136
1625.96	146
1627.27	122
1628.57	124
1629.87	114
1631.17	104
1632.47	108
1633.77	102
1635.07	92
1636.37	94
1637.67	90
1638.97	104
1640.27	88
1641.57	98
1642.87	88
1644.17	82
1645.47	92
1646.76	88
1648.06	86
1649.36	86
1650.66	78
1651.95	86
1653.25	82
1654.54	84
1655.84	82
1657.13	74
1658.43	84
1659.72	78
1661.02	80
1662.31	80
1663.6	86
1664.9	86
1666.19	70
1667.48	82
1668.78	78
1670.07	76
1671.36	84
1672.65	76
1673.94	76
1675.23	82
1676.52	72
1677.81	74
1679.1	70
1680.39	72
1681.68	76
1682.97	82
1684.26	72
1685.55	82
1686.83	78
1688.12	74
1689.41	76
1690.7	80
1691.98	84
1693.27	84
1694.55	82
1695.84	72
1697.13	80
1698.41	86
1699.69	72
1700.98	76
1702.26	80