File: Mixture_Classification/Jesse_Dataset_v2/Pure Raman/Polypropylene oxide/785nm/ps-ppo-6jan25-0,0000-map2_Y03_X01.txt
204.377	400
206.045	394
207.713	378
209.38	352
211.048	338
212.715	352
214.381	340
216.047	342
217.712	350
219.377	362
221.042	382
222.706	432
224.369	490
226.032	594
227.695	696
229.357	814
231.019	942
232.68	1026
234.341	1034
236.001	974
237.661	956
239.321	894
240.98	788
242.639	746
244.297	658
245.955	600
247.612	542
249.268	490
250.924	426
252.58	368
254.236	342
255.891	300
257.546	280
259.2	266
260.854	248
262.507	232
264.16	202
265.812	210
267.463	198
269.115	182
270.766	178
272.417	184
274.067	180
275.717	198
277.365	202
279.014	202
280.663	200
282.311	216
283.958	246
285.605	264
287.252	298
288.898	344
290.543	382
292.188	426
293.833	450
295.477	440
297.121	448
298.765	440
300.407	380
302.05	356
303.693	338
305.334	312
306.975	308
308.615	294
310.256	270
311.896	266
313.535	252
315.175	242
316.813	228
318.451	226
320.089	222
321.726	246
323.362	230
324.999	236
326.635	248
328.271	236
329.905	268
331.54	266
333.174	280
334.807	256
336.441	262
338.074	236
339.707	244
341.338	240
342.969	230
344.601	222
346.231	224
347.861	230
349.491	218
351.12	224
352.749	220
354.378	222
356.006	232
357.633	218
359.261	214
360.887	204
362.513	196
364.139	194
365.764	204
367.39	196
369.014	192
370.638	198
372.261	196
373.884	202
375.508	200
377.13	192
378.752	176
380.373	160
381.994	152
383.615	146
385.235	140
386.854	134
388.473	144
390.092	140
391.711	144
393.328	132
394.947	138
396.564	140
398.181	120
399.797	136
401.412	136
403.027	140
404.642	140
406.257	144
407.871	156
409.484	172
411.098	202
412.711	220
414.323	212
415.935	202
417.547	204
419.158	186
420.768	174
422.378	140
423.988	140
425.597	128
427.206	110
428.814	122
430.422	112
432.03	102
433.637	106
435.243	108
436.85	94
438.456	84
440.062	86
441.666	90
443.271	90
444.876	82
446.479	90
448.082	92
449.685	90
451.287	86
452.89	88
454.492	72
456.092	82
457.693	90
459.293	82
460.893	98
462.492	94
464.092	98
465.691	118
467.288	104
468.887	128
470.483	146
472.081	162
473.677	180
475.273	192
476.869	212
478.463	244
480.059	260
481.653	262
483.247	294
484.84	296
486.433	282
488.026	264
489.618	206
491.21	164
492.801	168
494.392	146
495.983	124
497.573	122
499.162	112
500.752	100
502.341	100
503.929	104
505.517	106
507.105	110
508.692	132
510.279	160
511.865	206
513.45	228
515.037	212
516.621	182
518.206	170
519.79	142
521.374	152
522.957	164
524.54	172
526.123	182
527.705	204
529.287	234
530.868	282
532.448	324
534.029	390
535.609	420
537.188	432
538.768	468
540.346	450
541.925	414
543.502	376
545.08	326
546.657	270
548.234	226
549.81	218
551.386	200
552.961	206
554.536	204
556.11	244
557.684	286
559.258	320
560.832	428
562.405	550
563.977	748
565.55	1070
567.12	1494
568.692	1998
570.263	2406
571.833	2398
573.403	2066
574.973	1504
576.542	1086
578.111	726
579.679	498
581.247	420
582.815	346
584.382	364
585.948	352
587.514	318
589.081	316
590.645	268
592.211	276
593.775	270
595.339	250
596.904	248
598.466	208
600.03	184
601.592	160
603.154	140
604.715	120
606.277	108
607.838	106
609.398	104
610.958	94
612.518	96
614.077	90
615.636	102
617.194	92
618.753	100
620.31	102
621.867	108
623.424	106
624.98	116
626.537	120
628.092	128
629.647	138
631.202	156
632.756	152
634.31	174
635.864	160
637.417	154
638.969	144
640.521	138
642.074	144
643.625	126
645.176	124
646.726	114
648.276	102
649.827	98
651.376	94
652.925	92
654.473	92
656.021	80
657.569	84
659.117	82
660.664	72
662.21	76
663.757	66
665.302	70
666.847	70
668.392	72
669.937	64
671.481	62
673.025	64
674.568	62
676.111	58
677.653	62
679.195	62
680.737	62
682.279	70
683.82	62
685.36	68
686.9	62
688.44	60
689.979	64
691.517	70
693.056	64
694.594	56
696.132	58
697.669	60
699.206	58
700.742	62
702.278	56
703.814	72
705.35	64
706.884	66
708.419	82
709.953	74
711.487	88
713.019	94
714.552	102
716.085	110
717.617	96
719.148	84
720.68	74
722.21	80
723.741	70
725.271	74
726.8	82
728.33	72
729.858	78
731.387	84
732.915	80
734.443	82
735.97	78
737.497	90
739.023	96
740.549	94
742.075	100
743.6	106
745.125	124
746.65	140
748.173	152
749.697	134
751.22	116
752.743	132
754.266	112
755.788	118
757.309	106
758.831	108
760.351	80
761.871	76
763.392	72
764.912	76
766.431	62
767.95	66
769.468	66
770.986	70
772.504	72
774.022	78
775.538	84
777.055	88
778.571	80
780.086	86
781.602	80
783.117	78
784.632	76
786.146	74
787.659	72
789.173	74
790.685	78
792.198	68
793.71	72
795.222	64
796.733	60
798.244	68
799.755	70
801.265	68
802.775	72
804.284	80
805.793	76
807.302	84
808.81	78
810.318	86
811.826	76
813.333	72
814.84	78
816.346	74
817.851	84
819.357	88
820.862	98
822.367	110
823.871	116
825.376	130
826.878	172
828.382	238
829.885	350
831.387	488
832.889	606
834.391	578
835.892	402
837.392	260
838.893	178
840.393	136
841.893	118
843.392	112
844.891	106
846.389	110
847.888	102
849.386	100
850.882	90
852.38	88
853.876	88
855.372	90
856.868	82
858.363	78
859.858	86
861.353	78
862.847	76
864.341	80
865.834	66
867.328	72
868.82	68
870.313	62
871.805	66
873.296	68
874.787	66
876.278	66
877.769	60
879.258	64
880.748	60
882.237	64
883.726	60
885.214	66
886.702	58
888.19	54
889.677	60
891.164	60
892.651	60
894.137	56
895.623	64
897.108	56
898.593	60
900.077	54
901.562	58
903.046	58
904.529	54
906.012	62
907.495	62
908.977	58
910.459	56
911.941	56
913.422	60
914.903	58
916.383	58
917.863	64
919.343	54
920.822	52
922.301	56
923.779	62
925.257	60
926.735	62
928.213	64
929.69	60
931.166	62
932.643	70
934.119	62
935.594	74
937.069	66
938.543	82
940.018	80
941.492	82
942.966	80
944.439	94
945.911	108
947.384	110
948.856	136
950.328	152
951.799	188
953.27	222
954.741	262
956.21	284
957.68	362
959.15	404
960.619	396
962.088	390
963.556	354
965.023	308
966.491	272
967.958	230
969.425	210
970.891	192
972.357	170
973.824	146
975.288	130
976.754	104
978.218	92
979.682	92
981.146	74
982.609	74
984.072	74
985.534	74
986.997	68
988.459	66
989.92	74
991.382	80
992.842	68
994.302	72
995.763	68
997.222	68
998.681	64
1000.14	68
1001.6	62
1003.06	70
1004.52	56
1005.97	60
1007.43	64
1008.89	58
1010.34	66
1011.8	60
1013.25	64
1014.71	72
1016.16	70
1017.62	70
1019.07	74
1020.53	68
1021.98	80
1023.43	80
1024.89	88
1026.34	86
1027.79	90
1029.24	92
1030.69	98
1032.14	108
1033.59	90
1035.04	104
1036.49	106
1037.94	102
1039.39	88
1040.84	90
1042.29	86
1043.73	78
1045.18	80
1046.63	82
1048.08	76
1049.52	70
1050.97	68
1052.41	72
1053.86	60
1055.3	68
1056.75	70
1058.19	72
1059.64	60
1061.08	62
1062.52	60
1063.96	66
1065.41	64
1066.85	68
1068.29	66
1069.73	60
1071.17	64
1072.61	66
1074.05	58
1075.49	60
1076.93	64
1078.37	66
1079.81	60
1081.25	66
1082.68	64
1084.12	64
1085.56	60
1087	64
1088.43	68
1089.87	64
1091.3	70
1092.74	72
1094.17	70
1095.61	66
1097.04	70
1098.48	70
1099.91	70
1101.34	74
1102.78	88
1104.21	92
1105.64	112
1107.07	146
1108.5	204
1109.93	274
1111.36	344
1112.8	372
1114.22	332
1115.65	270
1117.08	210
1118.51	152
1119.94	134
1121.37	118
1122.8	102
1124.22	110
1125.65	96
1127.08	98
1128.5	88
1129.93	80
1131.35	82
1132.78	88
1134.2	86
1135.63	82
1137.05	86
1138.48	86
1139.9	84
1141.32	100
1142.75	86
1144.17	96
1145.59	76
1147.01	76
1148.43	72
1149.85	74
1151.27	72
1152.69	74
1154.11	72
1155.53	82
1156.95	80
1158.37	86
1159.79	86
1161.21	96
1162.62	94
1164.04	92
1165.46	88
1166.87	98
1168.29	80
1169.71	76
1171.12	88
1172.54	98
1173.95	100
1175.37	102
1176.78	108
1178.19	112
1179.61	124
1181.02	150
1182.43	172
1183.84	204
1185.26	242
1186.67	242
1188.08	250
1189.49	210
1190.9	190
1192.31	186
1193.72	150
1195.13	152
1196.54	162
1197.95	162
1199.36	174
1200.76	172
1202.17	190
1203.58	172
1204.99	184
1206.39	154
1207.8	150
1209.2	134
1210.61	112
1212.01	102
1213.42	108
1214.82	90
1216.23	88
1217.63	92
1219.03	90
1220.44	94
1221.84	92
1223.24	100
1224.64	104
1226.05	114
1227.45	122
1228.85	126
1230.25	130
1231.65	128
1233.05	132
1234.45	126
1235.85	98
1237.25	100
1238.64	102
1240.04	82
1241.44	92
1242.84	92
1244.23	82
1245.63	86
1247.03	90
1248.42	86
1249.82	88
1251.21	92
1252.61	90
1254	84
1255.4	88
1256.79	84
1258.19	88
1259.58	94
1260.97	92
1262.36	88
1263.76	90
1265.15	82
1266.54	104
1267.93	94
1269.32	96
1270.71	104
1272.1	106
1273.49	98
1274.88	106
1276.27	102
1277.66	108
1279.05	128
1280.43	130
1281.82	126
1283.21	134
1284.6	146
1285.98	150
1287.37	164
1288.75	162
1290.14	150
1291.53	176
1292.91	196
1294.29	204
1295.68	246
1297.06	284
1298.45	362
1299.83	438
1301.21	570
1302.59	688
1303.98	840
1305.36	820
1306.74	764
1308.12	694
1309.5	522
1310.88	426
1312.26	358
1313.64	302
1315.02	268
1316.4	250
1317.78	212
1319.16	206
1320.53	196
1321.91	204
1323.29	188
1324.67	188
1326.04	182
1327.42	186
1328.79	180
1330.17	182
1331.54	174
1332.92	158
1334.29	158
1335.67	170
1337.04	152
1338.42	146
1339.79	146
1341.16	154
1342.53	148
1343.91	164
1345.28	162
1346.65	162
1348.02	160
1349.39	168
1350.76	160
1352.13	168
1353.5	162
1354.87	152
1356.24	162
1357.61	162
1358.98	156
1360.34	140
1361.71	158
1363.08	142
1364.45	150
1365.81	162
1367.18	166
1368.54	176
1369.91	178
1371.28	202
1372.64	238
1374.01	280
1375.37	350
1376.73	404
1378.1	424
1379.46	448
1380.82	430
1382.19	422
1383.55	384
1384.91	318
1386.27	292
1387.63	246
1388.99	204
1390.35	180
1391.71	152
1393.07	150
1394.43	142
1395.79	148
1397.15	142
1398.51	144
1399.87	138
1401.23	144
1402.58	136
1403.94	146
1405.3	126
1406.65	138
1408.01	138
1409.37	138
1410.72	134
1412.08	150
1413.43	138
1414.79	142
1416.14	148
1417.49	162
1418.85	172
1420.2	172
1421.55	166
1422.91	186
1424.26	184
1425.61	180
1426.96	176
1428.31	190
1429.66	192
1431.01	206
1432.36	210
1433.71	202
1435.06	204
1436.41	206
1437.76	218
1439.11	218
1440.46	218
1441.81	216
1443.15	218
1444.5	198
1445.85	214
1447.19	198
1448.54	180
1449.89	188
1451.23	182
1452.58	178
1453.92	166
1455.27	164
1456.61	162
1457.95	168
1459.3	166
1460.64	156
1461.98	162
1463.33	166
1464.67	148
1466.01	154
1467.35	144
1468.69	160
1470.03	148
1471.37	152
1472.71	154
1474.05	142
1475.39	156
1476.73	148
1478.07	144
1479.41	144
1480.75	146
1482.09	142
1483.42	140
1484.76	140
1486.1	128
1487.43	126
1488.77	116
1490.11	118
1491.44	128
1492.78	112
1494.11	128
1495.45	128
1496.78	114
1498.12	124
1499.45	120
1500.78	120
1502.11	110
1503.45	118
1504.78	122
1506.11	116
1507.44	128
1508.77	110
1510.11	110
1511.44	106
1512.77	112
1514.1	114
1515.43	112
1516.76	120
1518.08	108
1519.41	116
1520.74	124
1522.07	122
1523.4	98
1524.72	110
1526.05	110
1527.38	100
1528.7	118
1530.03	110
1531.36	104
1532.68	114
1534.01	100
1535.33	112
1536.66	108
1537.98	114
1539.3	124
1540.63	106
1541.95	112
1543.27	110
1544.6	108
1545.92	116
1547.24	116
1548.56	98
1549.88	112
1551.2	110
1552.52	106
1553.84	112
1555.17	114
1556.48	114
1557.8	110
1559.12	106
1560.44	108
1561.76	118
1563.08	116
1564.4	112
1565.71	116
1567.03	120
1568.35	126
1569.66	106
1570.98	112
1572.29	118
1573.61	128
1574.93	136
1576.24	134
1577.55	142
1578.87	156
1580.18	148
1581.5	158
1582.81	170
1584.12	174
1585.43	190
1586.75	212
1588.06	228
1589.37	230
1590.68	274
1591.99	272
1593.3	312
1594.61	356
1595.92	370
1597.23	394
1598.54	412
1599.85	472
1601.16	484
1602.47	492
1603.78	488
1605.08	480
1606.39	420
1607.7	422
1609	392
1610.31	338
1611.62	332
1612.92	306
1614.23	274
1615.53	258
1616.84	240
1618.14	202
1619.45	200
1620.75	178
1622.06	154
1623.36	146
1624.66	134
1625.96	130
1627.27	124
1628.57	124
1629.87	110
1631.17	106
1632.47	100
1633.77	100
1635.07	94
1636.37	102
1637.67	98
1638.97	94
1640.27	92
1641.57	94
1642.87	90
1644.17	90
1645.47	96
1646.76	90
1648.06	88
1649.36	72
1650.66	100
1651.95	82
1653.25	84
1654.54	78
1655.84	76
1657.13	80
1658.43	86
1659.72	72
1661.02	86
1662.31	80
1663.6	86
1664.9	78
1666.19	80
1667.48	78
1668.78	70
1670.07	76
1671.36	78
1672.65	76
1673.94	72
1675.23	76
1676.52	82
1677.81	80
1679.1	82
1680.39	74
1681.68	66
1682.97	86
1684.26	80
1685.55	78
1686.83	82
1688.12	76
1689.41	84
1690.7	78
1691.98	82
1693.27	88
1694.55	78
1695.84	82
1697.13	80
1698.41	86
1699.69	80
1700.98	78
1702.26	74