File: Mixture_Classification/Jesse_Dataset_v2/Pure Raman/Polypropylene oxide/785nm/ps-ppo-6jan25-0,0000-map2_Y02_X02.txt
204.377	392
206.045	378
207.713	380
209.38	380
211.048	354
212.715	340
214.381	330
216.047	326
217.712	328
219.377	370
221.042	408
222.706	416
224.369	510
226.032	580
227.695	686
229.357	798
231.019	914
232.68	1022
234.341	1014
236.001	1004
237.661	934
239.321	886
240.98	762
242.639	736
244.297	670
245.955	566
247.612	524
249.268	468
250.924	388
252.58	372
254.236	320
255.891	322
257.546	278
259.2	242
260.854	236
262.507	232
264.16	206
265.812	212
267.463	194
269.115	186
270.766	184
272.417	180
274.067	178
275.717	182
277.365	182
279.014	200
280.663	196
282.311	220
283.958	236
285.605	254
287.252	302
288.898	340
290.543	386
292.188	426
293.833	442
295.477	444
297.121	454
298.765	412
300.407	400
302.05	358
303.693	330
305.334	316
306.975	300
308.615	258
310.256	264
311.896	268
313.535	226
315.175	252
316.813	238
318.451	234
320.089	236
321.726	226
323.362	240
324.999	240
326.635	234
328.271	252
329.905	270
331.54	286
333.174	266
334.807	260
336.441	246
338.074	258
339.707	232
341.338	232
342.969	226
344.601	220
346.231	214
347.861	214
349.491	216
351.12	206
352.749	232
354.378	208
356.006	234
357.633	210
359.261	206
360.887	198
362.513	182
364.139	198
365.764	198
367.39	200
369.014	188
370.638	192
372.261	212
373.884	204
375.508	196
377.13	176
378.752	178
380.373	158
381.994	164
383.615	152
385.235	152
386.854	134
388.473	126
390.092	148
391.711	132
393.328	132
394.947	122
396.564	122
398.181	124
399.797	122
401.412	126
403.027	134
404.642	138
406.257	142
407.871	160
409.484	178
411.098	194
412.711	210
414.323	232
415.935	220
417.547	210
419.158	184
420.768	172
422.378	152
423.988	144
425.597	132
427.206	118
428.814	114
430.422	110
432.03	108
433.637	104
435.243	96
436.85	92
438.456	88
440.062	86
441.666	80
443.271	92
444.876	80
446.479	86
448.082	84
449.685	86
451.287	80
452.89	82
454.492	84
456.092	88
457.693	80
459.293	86
460.893	92
462.492	94
464.092	94
465.691	110
467.288	108
468.887	130
470.483	136
472.081	166
473.677	176
475.273	194
476.869	204
478.463	240
480.059	246
481.653	274
483.247	294
484.84	290
486.433	294
488.026	244
489.618	210
491.21	184
492.801	158
494.392	152
495.983	130
497.573	118
499.162	96
500.752	108
502.341	96
503.929	106
505.517	104
507.105	116
508.692	130
510.279	168
511.865	206
513.45	226
515.037	216
516.621	186
518.206	148
519.79	150
521.374	162
522.957	154
524.54	176
526.123	188
527.705	206
529.287	236
530.868	272
532.448	318
534.029	392
535.609	426
537.188	474
538.768	494
540.346	448
541.925	426
543.502	370
545.08	336
546.657	256
548.234	226
549.81	200
551.386	206
552.961	204
554.536	212
556.11	234
557.684	270
559.258	334
560.832	410
562.405	554
563.977	712
565.55	1038
567.12	1486
568.692	2012
570.263	2392
571.833	2402
573.403	2032
574.973	1526
576.542	1062
578.111	722
579.679	532
581.247	436
582.815	362
584.382	356
585.948	334
587.514	334
589.081	312
590.645	288
592.211	286
593.775	268
595.339	256
596.904	224
598.466	212
600.03	186
601.592	168
603.154	136
604.715	128
606.277	114
607.838	96
609.398	92
610.958	94
612.518	96
614.077	94
615.636	88
617.194	94
618.753	100
620.31	102
621.867	106
623.424	108
624.98	116
626.537	128
628.092	130
629.647	138
631.202	150
632.756	150
634.31	150
635.864	164
637.417	148
638.969	142
640.521	138
642.074	138
643.625	124
645.176	116
646.726	104
648.276	104
649.827	102
651.376	96
652.925	88
654.473	80
656.021	86
657.569	82
659.117	72
660.664	74
662.21	74
663.757	66
665.302	64
666.847	66
668.392	62
669.937	62
671.481	66
673.025	64
674.568	64
676.111	58
677.653	58
679.195	62
680.737	56
682.279	62
683.82	70
685.36	66
686.9	64
688.44	62
689.979	56
691.517	50
693.056	60
694.594	62
696.132	60
697.669	62
699.206	60
700.742	66
702.278	58
703.814	66
705.35	60
706.884	78
708.419	82
709.953	76
711.487	94
713.019	94
714.552	102
716.085	96
717.617	98
719.148	88
720.68	78
722.21	78
723.741	74
725.271	84
726.8	76
728.33	80
729.858	78
731.387	72
732.915	84
734.443	84
735.97	88
737.497	88
739.023	90
740.549	96
742.075	94
743.6	116
745.125	122
746.65	146
748.173	150
749.697	130
751.22	120
752.743	126
754.266	116
755.788	110
757.309	108
758.831	88
760.351	90
761.871	78
763.392	68
764.912	76
766.431	70
767.95	68
769.468	74
770.986	74
772.504	80
774.022	80
775.538	78
777.055	82
778.571	80
780.086	80
781.602	80
783.117	78
784.632	78
786.146	76
787.659	68
789.173	74
790.685	66
792.198	70
793.71	66
795.222	56
796.733	62
798.244	64
799.755	62
801.265	66
802.775	76
804.284	80
805.793	80
807.302	68
808.81	80
810.318	70
811.826	70
813.333	78
814.84	78
816.346	78
817.851	78
819.357	84
820.862	94
822.367	104
823.871	112
825.376	138
826.878	166
828.382	242
829.885	356
831.387	520
832.889	590
834.391	574
835.892	428
837.392	252
838.893	180
840.393	148
841.893	112
843.392	104
844.891	104
846.389	102
847.888	98
849.386	98
850.882	86
852.38	90
853.876	88
855.372	84
856.868	84
858.363	88
859.858	76
861.353	78
862.847	88
864.341	78
865.834	72
867.328	72
868.82	66
870.313	70
871.805	66
873.296	62
874.787	66
876.278	66
877.769	58
879.258	60
880.748	68
882.237	60
883.726	62
885.214	60
886.702	60
888.19	66
889.677	62
891.164	52
892.651	60
894.137	58
895.623	60
897.108	60
898.593	58
900.077	62
901.562	58
903.046	54
904.529	62
906.012	62
907.495	60
908.977	58
910.459	62
911.941	54
913.422	58
914.903	50
916.383	60
917.863	60
919.343	48
920.822	58
922.301	64
923.779	60
925.257	60
926.735	64
928.213	64
929.69	58
931.166	68
932.643	68
934.119	68
935.594	64
937.069	72
938.543	72
940.018	84
941.492	84
942.966	84
944.439	92
945.911	100
947.384	106
948.856	132
950.328	152
951.799	190
953.27	218
954.741	244
956.21	314
957.68	370
959.15	366
960.619	396
962.088	368
963.556	340
965.023	304
966.491	260
967.958	232
969.425	192
970.891	182
972.357	170
973.824	138
975.288	120
976.754	100
978.218	86
979.682	80
981.146	82
982.609	74
984.072	78
985.534	74
986.997	74
988.459	74
989.92	80
991.382	76
992.842	76
994.302	76
995.763	68
997.222	70
998.681	60
1000.14	64
1001.6	60
1003.06	64
1004.52	70
1005.97	64
1007.43	68
1008.89	62
1010.34	66
1011.8	66
1013.25	64
1014.71	70
1016.16	66
1017.62	72
1019.07	78
1020.53	78
1021.98	82
1023.43	78
1024.89	82
1026.34	90
1027.79	92
1029.24	94
1030.69	100
1032.14	106
1033.59	102
1035.04	86
1036.49	88
1037.94	94
1039.39	98
1040.84	86
1042.29	78
1043.73	86
1045.18	88
1046.63	70
1048.08	68
1049.52	64
1050.97	72
1052.41	70
1053.86	74
1055.3	74
1056.75	68
1058.19	68
1059.64	72
1061.08	62
1062.52	68
1063.96	66
1065.41	60
1066.85	62
1068.29	74
1069.73	68
1071.17	58
1072.61	64
1074.05	62
1075.49	54
1076.93	64
1078.37	64
1079.81	58
1081.25	66
1082.68	54
1084.12	60
1085.56	66
1087	66
1088.43	74
1089.87	70
1091.3	70
1092.74	64
1094.17	72
1095.61	74
1097.04	78
1098.48	76
1099.91	72
1101.34	78
1102.78	86
1104.21	102
1105.64	118
1107.07	134
1108.5	204
1109.93	270
1111.36	346
1112.8	370
1114.22	332
1115.65	268
1117.08	208
1118.51	170
1119.94	140
1121.37	124
1122.8	108
1124.22	110
1125.65	94
1127.08	86
1128.5	88
1129.93	86
1131.35	84
1132.78	88
1134.2	82
1135.63	92
1137.05	88
1138.48	86
1139.9	86
1141.32	84
1142.75	90
1144.17	84
1145.59	80
1147.01	86
1148.43	72
1149.85	78
1151.27	74
1152.69	80
1154.11	80
1155.53	82
1156.95	90
1158.37	86
1159.79	90
1161.21	96
1162.62	90
1164.04	84
1165.46	88
1166.87	94
1168.29	92
1169.71	80
1171.12	82
1172.54	94
1173.95	104
1175.37	104
1176.78	112
1178.19	112
1179.61	132
1181.02	152
1182.43	176
1183.84	206
1185.26	230
1186.67	240
1188.08	236
1189.49	202
1190.9	190
1192.31	176
1193.72	158
1195.13	162
1196.54	150
1197.95	160
1199.36	170
1200.76	182
1202.17	174
1203.58	184
1204.99	174
1206.39	158
1207.8	152
1209.2	128
1210.61	114
1212.01	106
1213.42	98
1214.82	96
1216.23	74
1217.63	98
1219.03	86
1220.44	88
1221.84	92
1223.24	104
1224.64	104
1226.05	112
1227.45	134
1228.85	142
1230.25	138
1231.65	140
1233.05	126
1234.45	120
1235.85	106
1237.25	92
1238.64	92
1240.04	88
1241.44	92
1242.84	82
1244.23	84
1245.63	88
1247.03	88
1248.42	86
1249.82	88
1251.21	90
1252.61	90
1254	90
1255.4	84
1256.79	82
1258.19	92
1259.58	90
1260.97	92
1262.36	98
1263.76	100
1265.15	94
1266.54	94
1267.93	100
1269.32	108
1270.71	98
1272.1	96
1273.49	114
1274.88	110
1276.27	96
1277.66	104
1279.05	118
1280.43	118
1281.82	140
1283.21	124
1284.6	146
1285.98	144
1287.37	156
1288.75	170
1290.14	174
1291.53	188
1292.91	196
1294.29	212
1295.68	248
1297.06	308
1298.45	352
1299.83	448
1301.21	560
1302.59	672
1303.98	784
1305.36	848
1306.74	786
1308.12	652
1309.5	536
1310.88	420
1312.26	360
1313.64	300
1315.02	268
1316.4	248
1317.78	226
1319.16	202
1320.53	204
1321.91	200
1323.29	192
1324.67	196
1326.04	190
1327.42	186
1328.79	180
1330.17	174
1331.54	172
1332.92	164
1334.29	164
1335.67	170
1337.04	152
1338.42	148
1339.79	162
1341.16	156
1342.53	158
1343.91	152
1345.28	174
1346.65	178
1348.02	174
1349.39	174
1350.76	168
1352.13	166
1353.5	166
1354.87	162
1356.24	162
1357.61	152
1358.98	142
1360.34	158
1361.71	160
1363.08	148
1364.45	154
1365.81	158
1367.18	166
1368.54	170
1369.91	178
1371.28	214
1372.64	240
1374.01	286
1375.37	354
1376.73	388
1378.1	434
1379.46	426
1380.82	444
1382.19	428
1383.55	374
1384.91	320
1386.27	266
1387.63	244
1388.99	218
1390.35	174
1391.71	162
1393.07	158
1394.43	142
1395.79	144
1397.15	140
1398.51	144
1399.87	136
1401.23	140
1402.58	140
1403.94	132
1405.3	134
1406.65	142
1408.01	142
1409.37	140
1410.72	144
1412.08	138
1413.43	136
1414.79	168
1416.14	156
1417.49	150
1418.85	168
1420.2	158
1421.55	176
1422.91	184
1424.26	180
1425.61	202
1426.96	192
1428.31	188
1429.66	198
1431.01	204
1432.36	202
1433.71	214
1435.06	224
1436.41	220
1437.76	214
1439.11	226
1440.46	224
1441.81	216
1443.15	210
1444.5	198
1445.85	210
1447.19	190
1448.54	186
1449.89	170
1451.23	186
1452.58	164
1453.92	158
1455.27	160
1456.61	162
1457.95	172
1459.3	164
1460.64	166
1461.98	162
1463.33	172
1464.67	166
1466.01	158
1467.35	150
1468.69	148
1470.03	142
1471.37	162
1472.71	146
1474.05	144
1475.39	154
1476.73	146
1478.07	150
1479.41	130
1480.75	126
1482.09	142
1483.42	142
1484.76	136
1486.1	138
1487.43	126
1488.77	120
1490.11	120
1491.44	132
1492.78	118
1494.11	122
1495.45	108
1496.78	132
1498.12	120
1499.45	116
1500.78	120
1502.11	120
1503.45	110
1504.78	106
1506.11	110
1507.44	112
1508.77	116
1510.11	118
1511.44	106
1512.77	120
1514.1	108
1515.43	106
1516.76	110
1518.08	114
1519.41	106
1520.74	108
1522.07	110
1523.4	108
1524.72	118
1526.05	112
1527.38	106
1528.7	96
1530.03	112
1531.36	118
1532.68	116
1534.01	114
1535.33	110
1536.66	112
1537.98	114
1539.3	110
1540.63	114
1541.95	122
1543.27	122
1544.6	112
1545.92	114
1547.24	116
1548.56	102
1549.88	106
1551.2	114
1552.52	106
1553.84	106
1555.17	106
1556.48	116
1557.8	120
1559.12	118
1560.44	112
1561.76	120
1563.08	114
1564.4	108
1565.71	120
1567.03	118
1568.35	114
1569.66	118
1570.98	114
1572.29	118
1573.61	118
1574.93	126
1576.24	134
1577.55	136
1578.87	144
1580.18	152
1581.5	162
1582.81	176
1584.12	162
1585.43	186
1586.75	194
1588.06	216
1589.37	244
1590.68	274
1591.99	296
1593.3	316
1594.61	354
1595.92	372
1597.23	400
1598.54	416
1599.85	454
1601.16	504
1602.47	498
1603.78	490
1605.08	490
1606.39	440
1607.7	430
1609	394
1610.31	392
1611.62	344
1612.92	304
1614.23	274
1615.53	254
1616.84	230
1618.14	212
1619.45	202
1620.75	188
1622.06	164
1623.36	144
1624.66	136
1625.96	132
1627.27	134
1628.57	110
1629.87	108
1631.17	106
1632.47	102
1633.77	106
1635.07	98
1636.37	102
1637.67	94
1638.97	90
1640.27	92
1641.57	88
1642.87	94
1644.17	86
1645.47	98
1646.76	86
1648.06	88
1649.36	88
1650.66	78
1651.95	86
1653.25	80
1654.54	86
1655.84	84
1657.13	80
1658.43	76
1659.72	80
1661.02	84
1662.31	80
1663.6	90
1664.9	76
1666.19	84
1667.48	82
1668.78	74
1670.07	78
1671.36	70
1672.65	82
1673.94	68
1675.23	86
1676.52	70
1677.81	82
1679.1	84
1680.39	72
1681.68	84
1682.97	78
1684.26	78
1685.55	72
1686.83	84
1688.12	90
1689.41	82
1690.7	80
1691.98	80
1693.27	86
1694.55	80
1695.84	78
1697.13	84
1698.41	80
1699.69	72
1700.98	82
1702.26	80