File: Mixture_Classification/Jesse_Dataset_v2/Pure Raman/Polypropylene oxide/785nm/ps-ppo-6jan25-0,0000-map2_Y09_X02.txt
204.377	358
206.045	318
207.713	300
209.38	320
211.048	282
212.715	286
214.381	282
216.047	286
217.712	310
219.377	302
221.042	366
222.706	358
224.369	420
226.032	506
227.695	600
229.357	714
231.019	820
232.68	854
234.341	874
236.001	878
237.661	798
239.321	742
240.98	692
242.639	616
244.297	564
245.955	494
247.612	466
249.268	414
250.924	368
252.58	322
254.236	282
255.891	252
257.546	248
259.2	230
260.854	222
262.507	196
264.16	188
265.812	184
267.463	166
269.115	176
270.766	162
272.417	166
274.067	178
275.717	152
277.365	160
279.014	178
280.663	184
282.311	200
283.958	214
285.605	216
287.252	276
288.898	302
290.543	336
292.188	362
293.833	374
295.477	386
297.121	378
298.765	356
300.407	326
302.05	322
303.693	280
305.334	272
306.975	260
308.615	240
310.256	252
311.896	222
313.535	222
315.175	210
316.813	202
318.451	214
320.089	214
321.726	202
323.362	206
324.999	214
326.635	212
328.271	226
329.905	226
331.54	244
333.174	234
334.807	228
336.441	226
338.074	218
339.707	208
341.338	210
342.969	200
344.601	204
346.231	190
347.861	192
349.491	190
351.12	194
352.749	192
354.378	192
356.006	204
357.633	186
359.261	184
360.887	186
362.513	176
364.139	170
365.764	176
367.39	182
369.014	174
370.638	168
372.261	180
373.884	176
375.508	172
377.13	162
378.752	156
380.373	162
381.994	132
383.615	138
385.235	128
386.854	128
388.473	126
390.092	116
391.711	116
393.328	118
394.947	116
396.564	116
398.181	122
399.797	116
401.412	122
403.027	122
404.642	118
406.257	126
407.871	140
409.484	172
411.098	174
412.711	180
414.323	200
415.935	168
417.547	172
419.158	158
420.768	146
422.378	128
423.988	122
425.597	108
427.206	112
428.814	102
430.422	98
432.03	98
433.637	82
435.243	76
436.85	80
438.456	80
440.062	82
441.666	78
443.271	72
444.876	74
446.479	74
448.082	72
449.685	72
451.287	74
452.89	64
454.492	76
456.092	74
457.693	80
459.293	78
460.893	78
462.492	76
464.092	76
465.691	98
467.288	106
468.887	110
470.483	136
472.081	138
473.677	154
475.273	176
476.869	176
478.463	190
480.059	218
481.653	232
483.247	246
484.84	256
486.433	262
488.026	218
489.618	190
491.21	156
492.801	152
494.392	134
495.983	116
497.573	98
499.162	102
500.752	90
502.341	94
503.929	86
505.517	98
507.105	104
508.692	110
510.279	148
511.865	174
513.45	190
515.037	194
516.621	162
518.206	138
519.79	126
521.374	138
522.957	142
524.54	140
526.123	176
527.705	184
529.287	200
530.868	244
532.448	274
534.029	318
535.609	370
537.188	398
538.768	396
540.346	380
541.925	368
543.502	326
545.08	288
546.657	246
548.234	200
549.81	172
551.386	172
552.961	170
554.536	198
556.11	200
557.684	234
559.258	292
560.832	364
562.405	486
563.977	674
565.55	946
567.12	1292
568.692	1752
570.263	2084
571.833	2024
573.403	1740
574.973	1282
576.542	880
578.111	618
579.679	442
581.247	358
582.815	326
584.382	298
585.948	294
587.514	258
589.081	256
590.645	250
592.211	232
593.775	244
595.339	218
596.904	204
598.466	202
600.03	162
601.592	148
603.154	126
604.715	112
606.277	102
607.838	78
609.398	84
610.958	88
612.518	86
614.077	78
615.636	84
617.194	90
618.753	84
620.31	96
621.867	108
623.424	96
624.98	110
626.537	118
628.092	118
629.647	124
631.202	126
632.756	124
634.31	140
635.864	134
637.417	142
638.969	130
640.521	128
642.074	116
643.625	108
645.176	108
646.726	98
648.276	98
649.827	90
651.376	90
652.925	80
654.473	80
656.021	78
657.569	72
659.117	72
660.664	72
662.21	70
663.757	68
665.302	66
666.847	60
668.392	66
669.937	62
671.481	66
673.025	56
674.568	56
676.111	56
677.653	58
679.195	58
680.737	62
682.279	60
683.82	60
685.36	56
686.9	66
688.44	62
689.979	60
691.517	56
693.056	56
694.594	58
696.132	54
697.669	54
699.206	60
700.742	62
702.278	56
703.814	66
705.35	68
706.884	62
708.419	70
709.953	76
711.487	76
713.019	84
714.552	104
716.085	92
717.617	86
719.148	84
720.68	72
722.21	78
723.741	70
725.271	74
726.8	72
728.33	68
729.858	76
731.387	70
732.915	74
734.443	78
735.97	78
737.497	82
739.023	88
740.549	82
742.075	90
743.6	96
745.125	114
746.65	130
748.173	134
749.697	116
751.22	112
752.743	104
754.266	108
755.788	104
757.309	96
758.831	86
760.351	76
761.871	70
763.392	68
764.912	72
766.431	66
767.95	62
769.468	64
770.986	64
772.504	66
774.022	72
775.538	80
777.055	70
778.571	72
780.086	78
781.602	70
783.117	70
784.632	74
786.146	74
787.659	66
789.173	64
790.685	68
792.198	66
793.71	62
795.222	56
796.733	60
798.244	70
799.755	64
801.265	64
802.775	68
804.284	72
805.793	72
807.302	70
808.81	70
810.318	64
811.826	72
813.333	68
814.84	80
816.346	76
817.851	76
819.357	84
820.862	88
822.367	94
823.871	108
825.376	122
826.878	164
828.382	224
829.885	308
831.387	434
832.889	506
834.391	468
835.892	318
837.392	224
838.893	148
840.393	122
841.893	114
843.392	100
844.891	86
846.389	86
847.888	92
849.386	88
850.882	88
852.38	72
853.876	86
855.372	84
856.868	84
858.363	74
859.858	72
861.353	78
862.847	76
864.341	68
865.834	72
867.328	62
868.82	68
870.313	64
871.805	62
873.296	62
874.787	64
876.278	60
877.769	60
879.258	58
880.748	60
882.237	62
883.726	60
885.214	56
886.702	54
888.19	58
889.677	56
891.164	60
892.651	56
894.137	62
895.623	54
897.108	54
898.593	60
900.077	58
901.562	60
903.046	50
904.529	48
906.012	52
907.495	52
908.977	56
910.459	58
911.941	58
913.422	54
914.903	58
916.383	58
917.863	58
919.343	56
920.822	50
922.301	52
923.779	58
925.257	60
926.735	56
928.213	62
929.69	64
931.166	62
932.643	58
934.119	64
935.594	66
937.069	68
938.543	64
940.018	70
941.492	70
942.966	82
944.439	90
945.911	100
947.384	98
948.856	118
950.328	128
951.799	166
953.27	200
954.741	238
956.21	282
957.68	316
959.15	320
960.619	366
962.088	320
963.556	298
965.023	260
966.491	240
967.958	206
969.425	190
970.891	150
972.357	136
973.824	124
975.288	102
976.754	98
978.218	82
979.682	82
981.146	72
982.609	76
984.072	66
985.534	70
986.997	66
988.459	70
989.92	68
991.382	62
992.842	60
994.302	64
995.763	62
997.222	72
998.681	52
1000.14	60
1001.6	60
1003.06	66
1004.52	58
1005.97	54
1007.43	62
1008.89	60
1010.34	64
1011.8	60
1013.25	62
1014.71	60
1016.16	60
1017.62	68
1019.07	72
1020.53	74
1021.98	72
1023.43	78
1024.89	80
1026.34	84
1027.79	80
1029.24	84
1030.69	90
1032.14	82
1033.59	90
1035.04	72
1036.49	90
1037.94	90
1039.39	88
1040.84	86
1042.29	78
1043.73	80
1045.18	80
1046.63	78
1048.08	70
1049.52	70
1050.97	62
1052.41	60
1053.86	66
1055.3	68
1056.75	56
1058.19	60
1059.64	54
1061.08	60
1062.52	64
1063.96	66
1065.41	60
1066.85	52
1068.29	60
1069.73	62
1071.17	58
1072.61	62
1074.05	60
1075.49	60
1076.93	60
1078.37	68
1079.81	54
1081.25	60
1082.68	58
1084.12	62
1085.56	64
1087	56
1088.43	56
1089.87	58
1091.3	62
1092.74	72
1094.17	66
1095.61	68
1097.04	74
1098.48	70
1099.91	66
1101.34	72
1102.78	88
1104.21	88
1105.64	114
1107.07	134
1108.5	174
1109.93	260
1111.36	290
1112.8	310
1114.22	296
1115.65	238
1117.08	164
1118.51	142
1119.94	124
1121.37	98
1122.8	98
1124.22	90
1125.65	96
1127.08	92
1128.5	74
1129.93	82
1131.35	88
1132.78	72
1134.2	82
1135.63	80
1137.05	76
1138.48	82
1139.9	80
1141.32	84
1142.75	86
1144.17	78
1145.59	80
1147.01	68
1148.43	70
1149.85	70
1151.27	72
1152.69	66
1154.11	66
1155.53	74
1156.95	74
1158.37	76
1159.79	86
1161.21	88
1162.62	84
1164.04	82
1165.46	92
1166.87	82
1168.29	72
1169.71	78
1171.12	86
1172.54	76
1173.95	86
1175.37	96
1176.78	98
1178.19	104
1179.61	118
1181.02	116
1182.43	160
1183.84	178
1185.26	208
1186.67	220
1188.08	206
1189.49	180
1190.9	174
1192.31	140
1193.72	152
1195.13	134
1196.54	146
1197.95	148
1199.36	152
1200.76	164
1202.17	150
1203.58	164
1204.99	158
1206.39	142
1207.8	120
1209.2	116
1210.61	104
1212.01	96
1213.42	90
1214.82	86
1216.23	92
1217.63	86
1219.03	82
1220.44	88
1221.84	86
1223.24	92
1224.64	92
1226.05	102
1227.45	122
1228.85	122
1230.25	128
1231.65	114
1233.05	112
1234.45	110
1235.85	98
1237.25	88
1238.64	82
1240.04	80
1241.44	80
1242.84	82
1244.23	84
1245.63	80
1247.03	84
1248.42	72
1249.82	88
1251.21	86
1252.61	82
1254	76
1255.4	74
1256.79	88
1258.19	88
1259.58	80
1260.97	86
1262.36	84
1263.76	90
1265.15	90
1266.54	94
1267.93	80
1269.32	96
1270.71	90
1272.1	86
1273.49	92
1274.88	98
1276.27	104
1277.66	108
1279.05	102
1280.43	112
1281.82	110
1283.21	122
1284.6	142
1285.98	138
1287.37	142
1288.75	140
1290.14	164
1291.53	154
1292.91	176
1294.29	194
1295.68	214
1297.06	258
1298.45	310
1299.83	402
1301.21	496
1302.59	586
1303.98	686
1305.36	716
1306.74	666
1308.12	568
1309.5	490
1310.88	366
1312.26	304
1313.64	266
1315.02	248
1316.4	214
1317.78	190
1319.16	174
1320.53	176
1321.91	178
1323.29	176
1324.67	164
1326.04	170
1327.42	178
1328.79	166
1330.17	164
1331.54	162
1332.92	154
1334.29	146
1335.67	140
1337.04	134
1338.42	144
1339.79	142
1341.16	138
1342.53	132
1343.91	146
1345.28	148
1346.65	158
1348.02	154
1349.39	156
1350.76	154
1352.13	156
1353.5	154
1354.87	140
1356.24	138
1357.61	142
1358.98	144
1360.34	140
1361.71	132
1363.08	136
1364.45	134
1365.81	140
1367.18	142
1368.54	148
1369.91	168
1371.28	190
1372.64	198
1374.01	260
1375.37	316
1376.73	360
1378.1	378
1379.46	374
1380.82	376
1382.19	350
1383.55	322
1384.91	276
1386.27	246
1387.63	208
1388.99	190
1390.35	166
1391.71	150
1393.07	142
1394.43	138
1395.79	132
1397.15	128
1398.51	124
1399.87	120
1401.23	122
1402.58	124
1403.94	122
1405.3	130
1406.65	120
1408.01	122
1409.37	120
1410.72	128
1412.08	124
1413.43	140
1414.79	134
1416.14	136
1417.49	136
1418.85	154
1420.2	154
1421.55	158
1422.91	158
1424.26	172
1425.61	172
1426.96	176
1428.31	168
1429.66	172
1431.01	170
1432.36	164
1433.71	178
1435.06	190
1436.41	194
1437.76	194
1439.11	194
1440.46	196
1441.81	188
1443.15	192
1444.5	186
1445.85	166
1447.19	176
1448.54	158
1449.89	160
1451.23	146
1452.58	144
1453.92	146
1455.27	148
1456.61	146
1457.95	150
1459.3	140
1460.64	150
1461.98	138
1463.33	144
1464.67	130
1466.01	136
1467.35	144
1468.69	142
1470.03	140
1471.37	128
1472.71	140
1474.05	130
1475.39	126
1476.73	132
1478.07	130
1479.41	130
1480.75	128
1482.09	132
1483.42	120
1484.76	118
1486.1	122
1487.43	118
1488.77	110
1490.11	120
1491.44	116
1492.78	104
1494.11	110
1495.45	104
1496.78	112
1498.12	100
1499.45	102
1500.78	106
1502.11	104
1503.45	104
1504.78	106
1506.11	110
1507.44	100
1508.77	118
1510.11	104
1511.44	110
1512.77	94
1514.1	112
1515.43	106
1516.76	98
1518.08	98
1519.41	98
1520.74	110
1522.07	96
1523.4	100
1524.72	96
1526.05	102
1527.38	102
1528.7	104
1530.03	98
1531.36	108
1532.68	90
1534.01	96
1535.33	100
1536.66	104
1537.98	108
1539.3	100
1540.63	90
1541.95	104
1543.27	100
1544.6	102
1545.92	106
1547.24	94
1548.56	98
1549.88	102
1551.2	96
1552.52	100
1553.84	98
1555.17	108
1556.48	98
1557.8	94
1559.12	108
1560.44	100
1561.76	110
1563.08	106
1564.4	102
1565.71	102
1567.03	102
1568.35	114
1569.66	120
1570.98	114
1572.29	114
1573.61	112
1574.93	132
1576.24	120
1577.55	112
1578.87	132
1580.18	128
1581.5	142
1582.81	150
1584.12	148
1585.43	174
1586.75	178
1588.06	206
1589.37	216
1590.68	250
1591.99	258
1593.3	270
1594.61	302
1595.92	336
1597.23	370
1598.54	388
1599.85	412
1601.16	430
1602.47	420
1603.78	440
1605.08	424
1606.39	374
1607.7	370
1609	350
1610.31	332
1611.62	294
1612.92	274
1614.23	256
1615.53	212
1616.84	210
1618.14	196
1619.45	170
1620.75	150
1622.06	144
1623.36	122
1624.66	110
1625.96	120
1627.27	114
1628.57	110
1629.87	106
1631.17	114
1632.47	98
1633.77	94
1635.07	94
1636.37	102
1637.67	84
1638.97	86
1640.27	84
1641.57	78
1642.87	74
1644.17	86
1645.47	82
1646.76	78
1648.06	80
1649.36	80
1650.66	88
1651.95	74
1653.25	74
1654.54	78
1655.84	78
1657.13	82
1658.43	80
1659.72	78
1661.02	74
1662.31	70
1663.6	82
1664.9	80
1666.19	72
1667.48	80
1668.78	74
1670.07	74
1671.36	72
1672.65	72
1673.94	76
1675.23	74
1676.52	76
1677.81	72
1679.1	78
1680.39	66
1681.68	78
1682.97	80
1684.26	68
1685.55	76
1686.83	74
1688.12	86
1689.41	68
1690.7	70
1691.98	78
1693.27	68
1694.55	70
1695.84	72
1697.13	74
1698.41	74
1699.69	80
1700.98	76
1702.26	76