File: Mixture_Classification/Jesse_Dataset_v2/Pure Raman/Polypropylene oxide/785nm/ps-ppo-6jan25-0,0000-map2_Y00_X02.txt
204.377	394
206.045	364
207.713	366
209.38	330
211.048	364
212.715	336
214.381	332
216.047	332
217.712	346
219.377	364
221.042	394
222.706	436
224.369	480
226.032	568
227.695	666
229.357	748
231.019	920
232.68	1010
234.341	990
236.001	972
237.661	934
239.321	852
240.98	772
242.639	722
244.297	658
245.955	574
247.612	528
249.268	452
250.924	398
252.58	376
254.236	336
255.891	308
257.546	288
259.2	250
260.854	226
262.507	220
264.16	198
265.812	200
267.463	188
269.115	188
270.766	176
272.417	184
274.067	184
275.717	186
277.365	188
279.014	186
280.663	200
282.311	224
283.958	238
285.605	276
287.252	296
288.898	346
290.543	396
292.188	432
293.833	400
295.477	452
297.121	434
298.765	424
300.407	380
302.05	350
303.693	318
305.334	328
306.975	302
308.615	276
310.256	260
311.896	258
313.535	266
315.175	240
316.813	234
318.451	222
320.089	228
321.726	236
323.362	240
324.999	216
326.635	252
328.271	232
329.905	258
331.54	280
333.174	280
334.807	260
336.441	268
338.074	244
339.707	240
341.338	240
342.969	204
344.601	226
346.231	214
347.861	202
349.491	210
351.12	224
352.749	214
354.378	212
356.006	208
357.633	208
359.261	232
360.887	192
362.513	206
364.139	186
365.764	210
367.39	184
369.014	212
370.638	194
372.261	214
373.884	200
375.508	200
377.13	176
378.752	174
380.373	178
381.994	168
383.615	150
385.235	146
386.854	142
388.473	142
390.092	140
391.711	124
393.328	130
394.947	128
396.564	126
398.181	128
399.797	130
401.412	136
403.027	140
404.642	136
406.257	146
407.871	162
409.484	158
411.098	202
412.711	212
414.323	208
415.935	202
417.547	190
419.158	172
420.768	162
422.378	150
423.988	150
425.597	128
427.206	108
428.814	110
430.422	116
432.03	110
433.637	98
435.243	98
436.85	92
438.456	100
440.062	88
441.666	86
443.271	86
444.876	90
446.479	80
448.082	80
449.685	80
451.287	82
452.89	82
454.492	72
456.092	86
457.693	84
459.293	82
460.893	90
462.492	84
464.092	104
465.691	106
467.288	112
468.887	134
470.483	146
472.081	162
473.677	184
475.273	178
476.869	202
478.463	234
480.059	242
481.653	254
483.247	284
484.84	292
486.433	284
488.026	242
489.618	206
491.21	186
492.801	166
494.392	148
495.983	134
497.573	120
499.162	114
500.752	106
502.341	104
503.929	110
505.517	106
507.105	110
508.692	126
510.279	152
511.865	198
513.45	230
515.037	204
516.621	168
518.206	152
519.79	146
521.374	150
522.957	148
524.54	166
526.123	184
527.705	216
529.287	234
530.868	256
532.448	332
534.029	350
535.609	426
537.188	424
538.768	458
540.346	468
541.925	412
543.502	370
545.08	314
546.657	252
548.234	220
549.81	202
551.386	204
552.961	208
554.536	198
556.11	244
557.684	270
559.258	320
560.832	390
562.405	524
563.977	718
565.55	1002
567.12	1456
568.692	1924
570.263	2290
571.833	2380
573.403	2022
574.973	1482
576.542	1010
578.111	682
579.679	498
581.247	404
582.815	350
584.382	358
585.948	362
587.514	308
589.081	302
590.645	272
592.211	282
593.775	270
595.339	264
596.904	236
598.466	206
600.03	172
601.592	154
603.154	138
604.715	118
606.277	106
607.838	100
609.398	86
610.958	92
612.518	90
614.077	94
615.636	96
617.194	92
618.753	90
620.31	98
621.867	104
623.424	108
624.98	114
626.537	128
628.092	132
629.647	124
631.202	136
632.756	138
634.31	168
635.864	156
637.417	156
638.969	148
640.521	132
642.074	132
643.625	118
645.176	120
646.726	116
648.276	104
649.827	94
651.376	92
652.925	90
654.473	86
656.021	80
657.569	76
659.117	82
660.664	82
662.21	76
663.757	66
665.302	72
666.847	74
668.392	74
669.937	62
671.481	62
673.025	66
674.568	70
676.111	66
677.653	64
679.195	66
680.737	66
682.279	66
683.82	64
685.36	64
686.9	60
688.44	60
689.979	60
691.517	66
693.056	62
694.594	66
696.132	62
697.669	72
699.206	60
700.742	58
702.278	64
703.814	68
705.35	66
706.884	74
708.419	74
709.953	84
711.487	86
713.019	96
714.552	114
716.085	108
717.617	96
719.148	92
720.68	80
722.21	80
723.741	76
725.271	72
726.8	80
728.33	74
729.858	86
731.387	82
732.915	76
734.443	78
735.97	84
737.497	90
739.023	92
740.549	96
742.075	100
743.6	110
745.125	126
746.65	134
748.173	142
749.697	128
751.22	128
752.743	116
754.266	122
755.788	118
757.309	116
758.831	96
760.351	86
761.871	82
763.392	76
764.912	70
766.431	76
767.95	68
769.468	74
770.986	68
772.504	76
774.022	70
775.538	74
777.055	82
778.571	86
780.086	82
781.602	86
783.117	82
784.632	78
786.146	80
787.659	78
789.173	68
790.685	64
792.198	74
793.71	66
795.222	68
796.733	68
798.244	66
799.755	74
801.265	70
802.775	70
804.284	72
805.793	78
807.302	78
808.81	70
810.318	82
811.826	76
813.333	82
814.84	86
816.346	76
817.851	86
819.357	82
820.862	92
822.367	106
823.871	120
825.376	146
826.878	166
828.382	232
829.885	344
831.387	464
832.889	576
834.391	544
835.892	394
837.392	262
838.893	180
840.393	134
841.893	118
843.392	110
844.891	96
846.389	94
847.888	98
849.386	100
850.882	98
852.38	96
853.876	98
855.372	96
856.868	92
858.363	82
859.858	82
861.353	84
862.847	86
864.341	76
865.834	74
867.328	86
868.82	72
870.313	68
871.805	66
873.296	72
874.787	60
876.278	68
877.769	66
879.258	66
880.748	64
882.237	66
883.726	66
885.214	66
886.702	64
888.19	66
889.677	60
891.164	64
892.651	64
894.137	68
895.623	58
897.108	58
898.593	62
900.077	62
901.562	58
903.046	58
904.529	68
906.012	52
907.495	58
908.977	58
910.459	60
911.941	60
913.422	58
914.903	64
916.383	58
917.863	62
919.343	56
920.822	56
922.301	58
923.779	62
925.257	64
926.735	60
928.213	68
929.69	62
931.166	70
932.643	62
934.119	66
935.594	70
937.069	64
938.543	70
940.018	72
941.492	78
942.966	82
944.439	86
945.911	100
947.384	130
948.856	120
950.328	142
951.799	182
953.27	212
954.741	254
956.21	320
957.68	358
959.15	364
960.619	388
962.088	374
963.556	324
965.023	286
966.491	264
967.958	234
969.425	196
970.891	182
972.357	164
973.824	122
975.288	124
976.754	104
978.218	96
979.682	72
981.146	80
982.609	82
984.072	76
985.534	72
986.997	74
988.459	78
989.92	72
991.382	82
992.842	72
994.302	66
995.763	70
997.222	68
998.681	60
1000.14	66
1001.6	66
1003.06	62
1004.52	64
1005.97	72
1007.43	60
1008.89	66
1010.34	66
1011.8	54
1013.25	62
1014.71	76
1016.16	70
1017.62	74
1019.07	80
1020.53	74
1021.98	78
1023.43	76
1024.89	90
1026.34	88
1027.79	92
1029.24	96
1030.69	100
1032.14	108
1033.59	104
1035.04	90
1036.49	96
1037.94	100
1039.39	94
1040.84	84
1042.29	82
1043.73	94
1045.18	86
1046.63	64
1048.08	76
1049.52	72
1050.97	72
1052.41	66
1053.86	72
1055.3	74
1056.75	72
1058.19	62
1059.64	60
1061.08	70
1062.52	72
1063.96	68
1065.41	66
1066.85	66
1068.29	66
1069.73	60
1071.17	62
1072.61	66
1074.05	62
1075.49	68
1076.93	66
1078.37	70
1079.81	66
1081.25	64
1082.68	68
1084.12	62
1085.56	72
1087	70
1088.43	70
1089.87	66
1091.3	72
1092.74	74
1094.17	66
1095.61	72
1097.04	64
1098.48	78
1099.91	84
1101.34	88
1102.78	88
1104.21	92
1105.64	112
1107.07	136
1108.5	202
1109.93	260
1111.36	338
1112.8	340
1114.22	330
1115.65	264
1117.08	202
1118.51	164
1119.94	132
1121.37	120
1122.8	114
1124.22	102
1125.65	106
1127.08	90
1128.5	96
1129.93	100
1131.35	84
1132.78	84
1134.2	86
1135.63	82
1137.05	88
1138.48	82
1139.9	92
1141.32	86
1142.75	96
1144.17	80
1145.59	84
1147.01	80
1148.43	74
1149.85	76
1151.27	74
1152.69	78
1154.11	80
1155.53	84
1156.95	78
1158.37	94
1159.79	94
1161.21	92
1162.62	94
1164.04	94
1165.46	92
1166.87	92
1168.29	96
1169.71	88
1171.12	96
1172.54	98
1173.95	86
1175.37	94
1176.78	94
1178.19	100
1179.61	118
1181.02	146
1182.43	170
1183.84	198
1185.26	232
1186.67	252
1188.08	216
1189.49	216
1190.9	180
1192.31	166
1193.72	168
1195.13	144
1196.54	146
1197.95	160
1199.36	162
1200.76	162
1202.17	180
1203.58	188
1204.99	162
1206.39	160
1207.8	148
1209.2	136
1210.61	116
1212.01	104
1213.42	104
1214.82	98
1216.23	94
1217.63	86
1219.03	94
1220.44	82
1221.84	86
1223.24	102
1224.64	116
1226.05	112
1227.45	114
1228.85	136
1230.25	138
1231.65	134
1233.05	130
1234.45	104
1235.85	110
1237.25	98
1238.64	96
1240.04	90
1241.44	86
1242.84	90
1244.23	88
1245.63	86
1247.03	84
1248.42	84
1249.82	92
1251.21	88
1252.61	88
1254	88
1255.4	96
1256.79	84
1258.19	100
1259.58	96
1260.97	92
1262.36	86
1263.76	102
1265.15	86
1266.54	98
1267.93	88
1269.32	94
1270.71	88
1272.1	106
1273.49	98
1274.88	100
1276.27	110
1277.66	122
1279.05	120
1280.43	116
1281.82	134
1283.21	144
1284.6	140
1285.98	144
1287.37	158
1288.75	152
1290.14	166
1291.53	182
1292.91	190
1294.29	204
1295.68	220
1297.06	292
1298.45	342
1299.83	414
1301.21	548
1302.59	664
1303.98	776
1305.36	818
1306.74	762
1308.12	664
1309.5	540
1310.88	424
1312.26	336
1313.64	312
1315.02	262
1316.4	246
1317.78	220
1319.16	216
1320.53	194
1321.91	190
1323.29	192
1324.67	194
1326.04	178
1327.42	188
1328.79	194
1330.17	184
1331.54	168
1332.92	178
1334.29	162
1335.67	150
1337.04	152
1338.42	140
1339.79	132
1341.16	146
1342.53	154
1343.91	162
1345.28	158
1346.65	160
1348.02	180
1349.39	164
1350.76	172
1352.13	164
1353.5	164
1354.87	158
1356.24	162
1357.61	150
1358.98	158
1360.34	144
1361.71	164
1363.08	152
1364.45	134
1365.81	156
1367.18	164
1368.54	162
1369.91	184
1371.28	198
1372.64	250
1374.01	276
1375.37	314
1376.73	388
1378.1	438
1379.46	442
1380.82	418
1382.19	408
1383.55	352
1384.91	316
1386.27	260
1387.63	228
1388.99	210
1390.35	182
1391.71	172
1393.07	154
1394.43	130
1395.79	134
1397.15	148
1398.51	144
1399.87	132
1401.23	148
1402.58	140
1403.94	144
1405.3	148
1406.65	152
1408.01	144
1409.37	140
1410.72	138
1412.08	148
1413.43	144
1414.79	142
1416.14	144
1417.49	154
1418.85	160
1420.2	164
1421.55	174
1422.91	180
1424.26	186
1425.61	188
1426.96	206
1428.31	194
1429.66	178
1431.01	190
1432.36	208
1433.71	204
1435.06	200
1436.41	202
1437.76	218
1439.11	232
1440.46	210
1441.81	214
1443.15	214
1444.5	206
1445.85	194
1447.19	208
1448.54	176
1449.89	174
1451.23	176
1452.58	168
1453.92	162
1455.27	154
1456.61	162
1457.95	170
1459.3	156
1460.64	158
1461.98	164
1463.33	164
1464.67	150
1466.01	160
1467.35	150
1468.69	156
1470.03	166
1471.37	170
1472.71	160
1474.05	148
1475.39	150
1476.73	152
1478.07	150
1479.41	148
1480.75	140
1482.09	142
1483.42	136
1484.76	132
1486.1	126
1487.43	126
1488.77	130
1490.11	124
1491.44	128
1492.78	120
1494.11	120
1495.45	120
1496.78	126
1498.12	110
1499.45	114
1500.78	114
1502.11	108
1503.45	106
1504.78	120
1506.11	110
1507.44	118
1508.77	116
1510.11	114
1511.44	108
1512.77	102
1514.1	118
1515.43	108
1516.76	106
1518.08	98
1519.41	108
1520.74	100
1522.07	110
1523.4	116
1524.72	110
1526.05	94
1527.38	108
1528.7	116
1530.03	112
1531.36	110
1532.68	114
1534.01	108
1535.33	104
1536.66	114
1537.98	96
1539.3	112
1540.63	112
1541.95	118
1543.27	114
1544.6	108
1545.92	104
1547.24	122
1548.56	112
1549.88	116
1551.2	104
1552.52	100
1553.84	108
1555.17	116
1556.48	122
1557.8	104
1559.12	96
1560.44	108
1561.76	108
1563.08	116
1564.4	108
1565.71	112
1567.03	120
1568.35	108
1569.66	118
1570.98	122
1572.29	130
1573.61	132
1574.93	132
1576.24	136
1577.55	134
1578.87	156
1580.18	144
1581.5	156
1582.81	164
1584.12	186
1585.43	190
1586.75	208
1588.06	222
1589.37	234
1590.68	258
1591.99	270
1593.3	318
1594.61	318
1595.92	384
1597.23	416
1598.54	420
1599.85	472
1601.16	466
1602.47	476
1603.78	458
1605.08	456
1606.39	434
1607.7	398
1609	394
1610.31	346
1611.62	328
1612.92	286
1614.23	254
1615.53	252
1616.84	224
1618.14	206
1619.45	196
1620.75	174
1622.06	152
1623.36	140
1624.66	144
1625.96	138
1627.27	116
1628.57	116
1629.87	114
1631.17	118
1632.47	108
1633.77	108
1635.07	92
1636.37	102
1637.67	94
1638.97	90
1640.27	92
1641.57	90
1642.87	96
1644.17	88
1645.47	90
1646.76	86
1648.06	82
1649.36	86
1650.66	86
1651.95	78
1653.25	90
1654.54	98
1655.84	88
1657.13	78
1658.43	86
1659.72	84
1661.02	82
1662.31	80
1663.6	88
1664.9	84
1666.19	80
1667.48	88
1668.78	76
1670.07	84
1671.36	74
1672.65	80
1673.94	76
1675.23	70
1676.52	80
1677.81	76
1679.1	78
1680.39	70
1681.68	74
1682.97	80
1684.26	78
1685.55	82
1686.83	84
1688.12	84
1689.41	78
1690.7	84
1691.98	82
1693.27	82
1694.55	74
1695.84	76
1697.13	88
1698.41	74
1699.69	80
1700.98	82
1702.26	86