File: Mixture_Classification/Jesse_Dataset_v2/Pure Raman/Polypropylene oxide/785nm/ps-ppo-6jan25-0,0000-map2_Y01_X04.txt
204.377	386
206.045	382
207.713	366
209.38	376
211.048	342
212.715	352
214.381	326
216.047	346
217.712	344
219.377	344
221.042	370
222.706	428
224.369	472
226.032	562
227.695	668
229.357	830
231.019	912
232.68	978
234.341	1004
236.001	1016
237.661	938
239.321	858
240.98	780
242.639	712
244.297	638
245.955	576
247.612	500
249.268	466
250.924	410
252.58	382
254.236	320
255.891	310
257.546	260
259.2	236
260.854	220
262.507	220
264.16	206
265.812	198
267.463	192
269.115	184
270.766	192
272.417	176
274.067	190
275.717	190
277.365	186
279.014	196
280.663	188
282.311	204
283.958	242
285.605	266
287.252	298
288.898	320
290.543	380
292.188	406
293.833	456
295.477	444
297.121	434
298.765	428
300.407	382
302.05	374
303.693	320
305.334	302
306.975	288
308.615	266
310.256	280
311.896	252
313.535	228
315.175	252
316.813	238
318.451	236
320.089	248
321.726	248
323.362	228
324.999	228
326.635	244
328.271	246
329.905	254
331.54	254
333.174	268
334.807	288
336.441	248
338.074	230
339.707	244
341.338	238
342.969	222
344.601	212
346.231	210
347.861	218
349.491	198
351.12	212
352.749	204
354.378	222
356.006	214
357.633	218
359.261	194
360.887	200
362.513	180
364.139	190
365.764	184
367.39	192
369.014	206
370.638	196
372.261	210
373.884	188
375.508	192
377.13	188
378.752	150
380.373	156
381.994	160
383.615	148
385.235	144
386.854	140
388.473	134
390.092	132
391.711	136
393.328	132
394.947	132
396.564	118
398.181	124
399.797	124
401.412	130
403.027	136
404.642	138
406.257	142
407.871	152
409.484	168
411.098	188
412.711	216
414.323	222
415.935	222
417.547	214
419.158	176
420.768	164
422.378	144
423.988	140
425.597	130
427.206	122
428.814	118
430.422	114
432.03	106
433.637	110
435.243	98
436.85	98
438.456	94
440.062	90
441.666	88
443.271	96
444.876	80
446.479	80
448.082	84
449.685	84
451.287	82
452.89	72
454.492	78
456.092	80
457.693	86
459.293	86
460.893	92
462.492	88
464.092	92
465.691	106
467.288	120
468.887	130
470.483	136
472.081	154
473.677	162
475.273	194
476.869	202
478.463	222
480.059	248
481.653	262
483.247	282
484.84	298
486.433	272
488.026	246
489.618	216
491.21	186
492.801	148
494.392	140
495.983	120
497.573	118
499.162	114
500.752	106
502.341	86
503.929	98
505.517	112
507.105	112
508.692	132
510.279	166
511.865	212
513.45	222
515.037	192
516.621	162
518.206	156
519.79	158
521.374	156
522.957	152
524.54	160
526.123	180
527.705	198
529.287	232
530.868	280
532.448	314
534.029	354
535.609	410
537.188	460
538.768	470
540.346	438
541.925	424
543.502	392
545.08	304
546.657	264
548.234	218
549.81	212
551.386	204
552.961	204
554.536	200
556.11	254
557.684	276
559.258	338
560.832	412
562.405	534
563.977	750
565.55	1010
567.12	1472
568.692	1964
570.263	2362
571.833	2386
573.403	2022
574.973	1494
576.542	1052
578.111	714
579.679	508
581.247	398
582.815	366
584.382	348
585.948	338
587.514	332
589.081	294
590.645	294
592.211	274
593.775	238
595.339	242
596.904	226
598.466	200
600.03	178
601.592	156
603.154	132
604.715	116
606.277	106
607.838	98
609.398	100
610.958	84
612.518	88
614.077	88
615.636	86
617.194	98
618.753	96
620.31	100
621.867	100
623.424	114
624.98	120
626.537	122
628.092	120
629.647	132
631.202	158
632.756	158
634.31	152
635.864	154
637.417	156
638.969	150
640.521	144
642.074	128
643.625	124
645.176	116
646.726	114
648.276	108
649.827	102
651.376	100
652.925	98
654.473	86
656.021	82
657.569	80
659.117	74
660.664	82
662.21	66
663.757	68
665.302	70
666.847	64
668.392	62
669.937	62
671.481	70
673.025	66
674.568	66
676.111	56
677.653	62
679.195	68
680.737	64
682.279	68
683.82	62
685.36	66
686.9	64
688.44	62
689.979	58
691.517	62
693.056	60
694.594	64
696.132	60
697.669	60
699.206	64
700.742	62
702.278	62
703.814	66
705.35	72
706.884	66
708.419	72
709.953	76
711.487	84
713.019	94
714.552	104
716.085	88
717.617	92
719.148	90
720.68	88
722.21	70
723.741	76
725.271	78
726.8	72
728.33	82
729.858	70
731.387	84
732.915	82
734.443	82
735.97	90
737.497	92
739.023	92
740.549	98
742.075	106
743.6	104
745.125	122
746.65	140
748.173	138
749.697	134
751.22	118
752.743	122
754.266	110
755.788	128
757.309	104
758.831	88
760.351	86
761.871	78
763.392	68
764.912	66
766.431	74
767.95	74
769.468	68
770.986	68
772.504	72
774.022	78
775.538	78
777.055	76
778.571	76
780.086	84
781.602	88
783.117	78
784.632	86
786.146	74
787.659	74
789.173	62
790.685	72
792.198	66
793.71	72
795.222	70
796.733	70
798.244	66
799.755	70
801.265	74
802.775	72
804.284	78
805.793	80
807.302	72
808.81	74
810.318	72
811.826	78
813.333	74
814.84	70
816.346	80
817.851	76
819.357	86
820.862	90
822.367	88
823.871	122
825.376	134
826.878	176
828.382	232
829.885	352
831.387	498
832.889	608
834.391	538
835.892	410
837.392	254
838.893	192
840.393	136
841.893	110
843.392	106
844.891	102
846.389	96
847.888	110
849.386	90
850.882	94
852.38	88
853.876	94
855.372	86
856.868	90
858.363	84
859.858	90
861.353	76
862.847	84
864.341	72
865.834	72
867.328	68
868.82	62
870.313	64
871.805	68
873.296	64
874.787	54
876.278	60
877.769	66
879.258	62
880.748	74
882.237	68
883.726	58
885.214	58
886.702	58
888.19	58
889.677	58
891.164	60
892.651	56
894.137	58
895.623	58
897.108	64
898.593	54
900.077	62
901.562	52
903.046	54
904.529	58
906.012	56
907.495	52
908.977	60
910.459	56
911.941	64
913.422	56
914.903	60
916.383	56
917.863	64
919.343	60
920.822	62
922.301	56
923.779	62
925.257	58
926.735	58
928.213	58
929.69	60
931.166	64
932.643	70
934.119	64
935.594	62
937.069	68
938.543	74
940.018	76
941.492	88
942.966	82
944.439	88
945.911	98
947.384	116
948.856	120
950.328	148
951.799	180
953.27	214
954.741	262
956.21	276
957.68	358
959.15	374
960.619	400
962.088	368
963.556	328
965.023	304
966.491	262
967.958	220
969.425	196
970.891	180
972.357	158
973.824	134
975.288	116
976.754	96
978.218	88
979.682	86
981.146	80
982.609	82
984.072	78
985.534	76
986.997	66
988.459	76
989.92	68
991.382	78
992.842	74
994.302	78
995.763	64
997.222	64
998.681	62
1000.14	64
1001.6	58
1003.06	66
1004.52	64
1005.97	68
1007.43	60
1008.89	66
1010.34	60
1011.8	64
1013.25	68
1014.71	70
1016.16	74
1017.62	62
1019.07	82
1020.53	80
1021.98	80
1023.43	80
1024.89	80
1026.34	82
1027.79	92
1029.24	98
1030.69	92
1032.14	106
1033.59	88
1035.04	96
1036.49	104
1037.94	94
1039.39	84
1040.84	84
1042.29	86
1043.73	76
1045.18	76
1046.63	80
1048.08	66
1049.52	66
1050.97	70
1052.41	72
1053.86	66
1055.3	70
1056.75	62
1058.19	60
1059.64	70
1061.08	62
1062.52	58
1063.96	64
1065.41	62
1066.85	66
1068.29	64
1069.73	64
1071.17	68
1072.61	60
1074.05	62
1075.49	66
1076.93	60
1078.37	56
1079.81	68
1081.25	70
1082.68	66
1084.12	66
1085.56	68
1087	58
1088.43	72
1089.87	64
1091.3	58
1092.74	68
1094.17	68
1095.61	68
1097.04	78
1098.48	70
1099.91	84
1101.34	86
1102.78	84
1104.21	102
1105.64	108
1107.07	140
1108.5	188
1109.93	254
1111.36	338
1112.8	364
1114.22	330
1115.65	268
1117.08	204
1118.51	156
1119.94	152
1121.37	118
1122.8	106
1124.22	96
1125.65	104
1127.08	94
1128.5	86
1129.93	84
1131.35	80
1132.78	86
1134.2	88
1135.63	84
1137.05	86
1138.48	84
1139.9	90
1141.32	84
1142.75	94
1144.17	84
1145.59	84
1147.01	78
1148.43	74
1149.85	80
1151.27	78
1152.69	82
1154.11	78
1155.53	76
1156.95	74
1158.37	86
1159.79	92
1161.21	92
1162.62	94
1164.04	96
1165.46	88
1166.87	88
1168.29	86
1169.71	86
1171.12	94
1172.54	92
1173.95	92
1175.37	102
1176.78	102
1178.19	124
1179.61	128
1181.02	152
1182.43	176
1183.84	208
1185.26	238
1186.67	242
1188.08	226
1189.49	224
1190.9	192
1192.31	178
1193.72	166
1195.13	158
1196.54	148
1197.95	154
1199.36	168
1200.76	176
1202.17	180
1203.58	174
1204.99	176
1206.39	148
1207.8	146
1209.2	132
1210.61	122
1212.01	110
1213.42	92
1214.82	90
1216.23	94
1217.63	92
1219.03	84
1220.44	88
1221.84	92
1223.24	96
1224.64	96
1226.05	120
1227.45	128
1228.85	140
1230.25	146
1231.65	130
1233.05	138
1234.45	116
1235.85	114
1237.25	104
1238.64	90
1240.04	96
1241.44	80
1242.84	88
1244.23	82
1245.63	86
1247.03	84
1248.42	88
1249.82	80
1251.21	84
1252.61	88
1254	88
1255.4	92
1256.79	88
1258.19	100
1259.58	90
1260.97	96
1262.36	92
1263.76	100
1265.15	94
1266.54	92
1267.93	102
1269.32	104
1270.71	96
1272.1	102
1273.49	98
1274.88	110
1276.27	108
1277.66	116
1279.05	118
1280.43	120
1281.82	144
1283.21	128
1284.6	142
1285.98	146
1287.37	162
1288.75	166
1290.14	170
1291.53	170
1292.91	200
1294.29	216
1295.68	244
1297.06	294
1298.45	334
1299.83	424
1301.21	554
1302.59	636
1303.98	792
1305.36	796
1306.74	784
1308.12	664
1309.5	546
1310.88	424
1312.26	350
1313.64	310
1315.02	274
1316.4	240
1317.78	228
1319.16	210
1320.53	196
1321.91	190
1323.29	196
1324.67	190
1326.04	192
1327.42	192
1328.79	174
1330.17	180
1331.54	164
1332.92	160
1334.29	162
1335.67	152
1337.04	154
1338.42	158
1339.79	152
1341.16	152
1342.53	152
1343.91	156
1345.28	160
1346.65	158
1348.02	170
1349.39	172
1350.76	164
1352.13	164
1353.5	164
1354.87	156
1356.24	168
1357.61	158
1358.98	158
1360.34	162
1361.71	152
1363.08	140
1364.45	148
1365.81	164
1367.18	158
1368.54	174
1369.91	182
1371.28	212
1372.64	232
1374.01	288
1375.37	356
1376.73	392
1378.1	442
1379.46	454
1380.82	424
1382.19	402
1383.55	382
1384.91	342
1386.27	290
1387.63	232
1388.99	202
1390.35	180
1391.71	154
1393.07	158
1394.43	144
1395.79	148
1397.15	158
1398.51	146
1399.87	140
1401.23	144
1402.58	144
1403.94	140
1405.3	138
1406.65	146
1408.01	146
1409.37	152
1410.72	144
1412.08	144
1413.43	142
1414.79	148
1416.14	138
1417.49	174
1418.85	158
1420.2	174
1421.55	168
1422.91	180
1424.26	174
1425.61	184
1426.96	192
1428.31	184
1429.66	186
1431.01	196
1432.36	192
1433.71	208
1435.06	202
1436.41	208
1437.76	210
1439.11	218
1440.46	224
1441.81	218
1443.15	220
1444.5	196
1445.85	192
1447.19	196
1448.54	194
1449.89	182
1451.23	182
1452.58	180
1453.92	164
1455.27	160
1456.61	160
1457.95	172
1459.3	150
1460.64	170
1461.98	164
1463.33	162
1464.67	166
1466.01	168
1467.35	156
1468.69	160
1470.03	140
1471.37	146
1472.71	146
1474.05	144
1475.39	146
1476.73	132
1478.07	150
1479.41	160
1480.75	152
1482.09	138
1483.42	150
1484.76	142
1486.1	136
1487.43	130
1488.77	134
1490.11	124
1491.44	128
1492.78	114
1494.11	124
1495.45	130
1496.78	110
1498.12	118
1499.45	100
1500.78	116
1502.11	114
1503.45	106
1504.78	116
1506.11	128
1507.44	106
1508.77	114
1510.11	116
1511.44	112
1512.77	112
1514.1	104
1515.43	106
1516.76	118
1518.08	112
1519.41	112
1520.74	110
1522.07	116
1523.4	112
1524.72	120
1526.05	106
1527.38	114
1528.7	106
1530.03	108
1531.36	104
1532.68	112
1534.01	110
1535.33	116
1536.66	112
1537.98	114
1539.3	116
1540.63	106
1541.95	110
1543.27	112
1544.6	110
1545.92	116
1547.24	102
1548.56	102
1549.88	116
1551.2	112
1552.52	110
1553.84	116
1555.17	114
1556.48	116
1557.8	112
1559.12	118
1560.44	110
1561.76	106
1563.08	102
1564.4	106
1565.71	120
1567.03	120
1568.35	114
1569.66	108
1570.98	126
1572.29	122
1573.61	134
1574.93	120
1576.24	138
1577.55	134
1578.87	146
1580.18	150
1581.5	162
1582.81	166
1584.12	170
1585.43	194
1586.75	190
1588.06	230
1589.37	244
1590.68	272
1591.99	290
1593.3	322
1594.61	340
1595.92	388
1597.23	408
1598.54	424
1599.85	500
1601.16	470
1602.47	486
1603.78	472
1605.08	468
1606.39	446
1607.7	402
1609	372
1610.31	360
1611.62	336
1612.92	310
1614.23	282
1615.53	250
1616.84	226
1618.14	204
1619.45	202
1620.75	178
1622.06	158
1623.36	140
1624.66	126
1625.96	132
1627.27	114
1628.57	122
1629.87	110
1631.17	104
1632.47	110
1633.77	112
1635.07	102
1636.37	104
1637.67	90
1638.97	104
1640.27	90
1641.57	98
1642.87	88
1644.17	86
1645.47	100
1646.76	88
1648.06	90
1649.36	88
1650.66	76
1651.95	82
1653.25	88
1654.54	88
1655.84	84
1657.13	80
1658.43	84
1659.72	88
1661.02	86
1662.31	92
1663.6	76
1664.9	80
1666.19	82
1667.48	86
1668.78	78
1670.07	76
1671.36	78
1672.65	90
1673.94	88
1675.23	76
1676.52	76
1677.81	86
1679.1	82
1680.39	84
1681.68	74
1682.97	82
1684.26	78
1685.55	78
1686.83	78
1688.12	82
1689.41	80
1690.7	78
1691.98	78
1693.27	78
1694.55	80
1695.84	78
1697.13	80
1698.41	74
1699.69	82
1700.98	76
1702.26	80