File: Mixture_Classification/Jesse_Dataset_v2/Pure Raman/Polypropylene oxide/785nm/ps-ppo-6jan25-0,0000-map2_Y06_X10.txt
204.377	384
206.045	374
207.713	356
209.38	360
211.048	354
212.715	330
214.381	350
216.047	324
217.712	346
219.377	354
221.042	378
222.706	428
224.369	488
226.032	596
227.695	694
229.357	778
231.019	914
232.68	984
234.341	1012
236.001	948
237.661	958
239.321	860
240.98	790
242.639	732
244.297	624
245.955	568
247.612	502
249.268	458
250.924	408
252.58	346
254.236	328
255.891	288
257.546	286
259.2	250
260.854	226
262.507	212
264.16	198
265.812	188
267.463	198
269.115	180
270.766	172
272.417	178
274.067	178
275.717	188
277.365	182
279.014	180
280.663	188
282.311	210
283.958	254
285.605	270
287.252	286
288.898	338
290.543	364
292.188	434
293.833	426
295.477	466
297.121	444
298.765	410
300.407	396
302.05	362
303.693	332
305.334	312
306.975	300
308.615	288
310.256	258
311.896	252
313.535	246
315.175	234
316.813	224
318.451	240
320.089	234
321.726	234
323.362	234
324.999	240
326.635	252
328.271	238
329.905	254
331.54	270
333.174	274
334.807	264
336.441	264
338.074	274
339.707	232
341.338	246
342.969	222
344.601	210
346.231	218
347.861	216
349.491	216
351.12	218
352.749	230
354.378	230
356.006	228
357.633	212
359.261	200
360.887	196
362.513	204
364.139	190
365.764	196
367.39	186
369.014	184
370.638	200
372.261	202
373.884	200
375.508	206
377.13	170
378.752	170
380.373	154
381.994	148
383.615	144
385.235	154
386.854	138
388.473	134
390.092	136
391.711	130
393.328	134
394.947	122
396.564	124
398.181	128
399.797	130
401.412	122
403.027	138
404.642	140
406.257	142
407.871	162
409.484	158
411.098	196
412.711	214
414.323	208
415.935	208
417.547	192
419.158	182
420.768	158
422.378	168
423.988	146
425.597	134
427.206	124
428.814	110
430.422	108
432.03	108
433.637	94
435.243	102
436.85	88
438.456	98
440.062	86
441.666	86
443.271	86
444.876	82
446.479	78
448.082	82
449.685	82
451.287	82
452.89	74
454.492	84
456.092	82
457.693	84
459.293	90
460.893	82
462.492	84
464.092	104
465.691	108
467.288	112
468.887	120
470.483	142
472.081	156
473.677	166
475.273	188
476.869	208
478.463	226
480.059	236
481.653	244
483.247	262
484.84	308
486.433	298
488.026	236
489.618	196
491.21	174
492.801	160
494.392	140
495.983	122
497.573	120
499.162	102
500.752	108
502.341	98
503.929	104
505.517	112
507.105	114
508.692	132
510.279	168
511.865	198
513.45	226
515.037	204
516.621	176
518.206	166
519.79	154
521.374	150
522.957	154
524.54	156
526.123	188
527.705	212
529.287	218
530.868	274
532.448	312
534.029	380
535.609	410
537.188	448
538.768	468
540.346	448
541.925	402
543.502	390
545.08	308
546.657	264
548.234	224
549.81	194
551.386	184
552.961	192
554.536	214
556.11	234
557.684	264
559.258	330
560.832	418
562.405	530
563.977	740
565.55	1028
567.12	1482
568.692	2020
570.263	2368
571.833	2392
573.403	2000
574.973	1486
576.542	1020
578.111	702
579.679	492
581.247	400
582.815	360
584.382	348
585.948	340
587.514	302
589.081	276
590.645	290
592.211	280
593.775	272
595.339	252
596.904	226
598.466	206
600.03	198
601.592	150
603.154	132
604.715	132
606.277	120
607.838	104
609.398	96
610.958	90
612.518	88
614.077	98
615.636	90
617.194	92
618.753	100
620.31	100
621.867	106
623.424	112
624.98	118
626.537	122
628.092	140
629.647	136
631.202	140
632.756	160
634.31	146
635.864	148
637.417	152
638.969	136
640.521	150
642.074	118
643.625	122
645.176	116
646.726	106
648.276	98
649.827	92
651.376	92
652.925	90
654.473	90
656.021	88
657.569	82
659.117	68
660.664	78
662.21	70
663.757	68
665.302	72
666.847	64
668.392	70
669.937	64
671.481	68
673.025	68
674.568	70
676.111	58
677.653	64
679.195	60
680.737	60
682.279	58
683.82	68
685.36	68
686.9	68
688.44	64
689.979	58
691.517	60
693.056	54
694.594	62
696.132	58
697.669	58
699.206	60
700.742	54
702.278	66
703.814	68
705.35	54
706.884	78
708.419	76
709.953	82
711.487	86
713.019	98
714.552	106
716.085	110
717.617	80
719.148	90
720.68	78
722.21	82
723.741	80
725.271	76
726.8	70
728.33	80
729.858	76
731.387	76
732.915	84
734.443	84
735.97	82
737.497	86
739.023	82
740.549	96
742.075	102
743.6	116
745.125	128
746.65	146
748.173	162
749.697	140
751.22	112
752.743	120
754.266	116
755.788	112
757.309	100
758.831	92
760.351	80
761.871	80
763.392	76
764.912	70
766.431	68
767.95	74
769.468	72
770.986	70
772.504	74
774.022	76
775.538	72
777.055	80
778.571	74
780.086	82
781.602	84
783.117	86
784.632	76
786.146	76
787.659	74
789.173	68
790.685	70
792.198	66
793.71	64
795.222	72
796.733	74
798.244	68
799.755	64
801.265	66
802.775	68
804.284	70
805.793	74
807.302	84
808.81	80
810.318	72
811.826	66
813.333	72
814.84	76
816.346	84
817.851	84
819.357	78
820.862	82
822.367	110
823.871	104
825.376	144
826.878	176
828.382	244
829.885	346
831.387	494
832.889	628
834.391	576
835.892	396
837.392	260
838.893	166
840.393	146
841.893	114
843.392	114
844.891	102
846.389	96
847.888	90
849.386	96
850.882	98
852.38	88
853.876	88
855.372	84
856.868	88
858.363	86
859.858	88
861.353	82
862.847	74
864.341	84
865.834	74
867.328	66
868.82	60
870.313	66
871.805	70
873.296	62
874.787	68
876.278	66
877.769	70
879.258	70
880.748	68
882.237	54
883.726	60
885.214	62
886.702	58
888.19	52
889.677	58
891.164	62
892.651	48
894.137	54
895.623	60
897.108	54
898.593	56
900.077	60
901.562	54
903.046	58
904.529	60
906.012	58
907.495	58
908.977	60
910.459	56
911.941	54
913.422	60
914.903	62
916.383	60
917.863	56
919.343	54
920.822	58
922.301	54
923.779	60
925.257	60
926.735	60
928.213	64
929.69	68
931.166	64
932.643	56
934.119	62
935.594	74
937.069	72
938.543	78
940.018	78
941.492	74
942.966	84
944.439	100
945.911	94
947.384	116
948.856	128
950.328	152
951.799	176
953.27	210
954.741	256
956.21	310
957.68	344
959.15	378
960.619	394
962.088	372
963.556	330
965.023	284
966.491	260
967.958	226
969.425	212
970.891	190
972.357	152
973.824	130
975.288	112
976.754	104
978.218	92
979.682	86
981.146	80
982.609	76
984.072	72
985.534	80
986.997	66
988.459	68
989.92	72
991.382	72
992.842	76
994.302	72
995.763	62
997.222	50
998.681	70
1000.14	68
1001.6	64
1003.06	68
1004.52	62
1005.97	60
1007.43	56
1008.89	60
1010.34	64
1011.8	72
1013.25	64
1014.71	72
1016.16	72
1017.62	78
1019.07	74
1020.53	78
1021.98	84
1023.43	84
1024.89	80
1026.34	80
1027.79	88
1029.24	96
1030.69	96
1032.14	104
1033.59	102
1035.04	100
1036.49	100
1037.94	92
1039.39	96
1040.84	88
1042.29	86
1043.73	84
1045.18	68
1046.63	80
1048.08	72
1049.52	70
1050.97	66
1052.41	60
1053.86	70
1055.3	64
1056.75	64
1058.19	66
1059.64	64
1061.08	64
1062.52	64
1063.96	72
1065.41	62
1066.85	72
1068.29	68
1069.73	68
1071.17	62
1072.61	62
1074.05	58
1075.49	66
1076.93	66
1078.37	70
1079.81	70
1081.25	62
1082.68	66
1084.12	60
1085.56	64
1087	66
1088.43	62
1089.87	70
1091.3	68
1092.74	70
1094.17	70
1095.61	70
1097.04	70
1098.48	68
1099.91	74
1101.34	84
1102.78	86
1104.21	92
1105.64	116
1107.07	146
1108.5	198
1109.93	278
1111.36	334
1112.8	358
1114.22	314
1115.65	276
1117.08	188
1118.51	158
1119.94	130
1121.37	114
1122.8	112
1124.22	102
1125.65	90
1127.08	100
1128.5	98
1129.93	90
1131.35	92
1132.78	80
1134.2	90
1135.63	78
1137.05	88
1138.48	80
1139.9	92
1141.32	90
1142.75	94
1144.17	84
1145.59	80
1147.01	78
1148.43	74
1149.85	78
1151.27	76
1152.69	72
1154.11	78
1155.53	82
1156.95	90
1158.37	90
1159.79	94
1161.21	86
1162.62	98
1164.04	90
1165.46	94
1166.87	92
1168.29	92
1169.71	88
1171.12	88
1172.54	94
1173.95	92
1175.37	96
1176.78	98
1178.19	118
1179.61	126
1181.02	156
1182.43	178
1183.84	208
1185.26	222
1186.67	246
1188.08	242
1189.49	222
1190.9	200
1192.31	184
1193.72	162
1195.13	156
1196.54	164
1197.95	152
1199.36	162
1200.76	170
1202.17	188
1203.58	172
1204.99	162
1206.39	162
1207.8	144
1209.2	142
1210.61	120
1212.01	104
1213.42	92
1214.82	102
1216.23	84
1217.63	94
1219.03	84
1220.44	92
1221.84	90
1223.24	98
1224.64	108
1226.05	106
1227.45	120
1228.85	140
1230.25	152
1231.65	136
1233.05	126
1234.45	110
1235.85	94
1237.25	100
1238.64	100
1240.04	80
1241.44	90
1242.84	90
1244.23	84
1245.63	84
1247.03	90
1248.42	88
1249.82	94
1251.21	82
1252.61	88
1254	80
1255.4	86
1256.79	88
1258.19	88
1259.58	90
1260.97	94
1262.36	100
1263.76	92
1265.15	96
1266.54	94
1267.93	100
1269.32	102
1270.71	88
1272.1	104
1273.49	102
1274.88	102
1276.27	112
1277.66	104
1279.05	112
1280.43	130
1281.82	128
1283.21	138
1284.6	148
1285.98	154
1287.37	160
1288.75	150
1290.14	184
1291.53	174
1292.91	192
1294.29	204
1295.68	252
1297.06	296
1298.45	348
1299.83	450
1301.21	542
1302.59	676
1303.98	784
1305.36	832
1306.74	726
1308.12	640
1309.5	514
1310.88	416
1312.26	356
1313.64	292
1315.02	262
1316.4	236
1317.78	214
1319.16	196
1320.53	192
1321.91	192
1323.29	186
1324.67	194
1326.04	186
1327.42	178
1328.79	166
1330.17	190
1331.54	164
1332.92	168
1334.29	164
1335.67	144
1337.04	136
1338.42	158
1339.79	136
1341.16	166
1342.53	162
1343.91	160
1345.28	158
1346.65	154
1348.02	172
1349.39	162
1350.76	170
1352.13	178
1353.5	174
1354.87	156
1356.24	158
1357.61	146
1358.98	144
1360.34	148
1361.71	160
1363.08	152
1364.45	148
1365.81	160
1367.18	162
1368.54	166
1369.91	174
1371.28	192
1372.64	232
1374.01	280
1375.37	342
1376.73	404
1378.1	430
1379.46	416
1380.82	418
1382.19	414
1383.55	366
1384.91	342
1386.27	282
1387.63	234
1388.99	198
1390.35	172
1391.71	160
1393.07	156
1394.43	148
1395.79	150
1397.15	148
1398.51	148
1399.87	144
1401.23	144
1402.58	142
1403.94	132
1405.3	136
1406.65	138
1408.01	144
1409.37	128
1410.72	148
1412.08	140
1413.43	150
1414.79	144
1416.14	144
1417.49	144
1418.85	146
1420.2	176
1421.55	174
1422.91	190
1424.26	180
1425.61	186
1426.96	166
1428.31	202
1429.66	184
1431.01	188
1432.36	204
1433.71	196
1435.06	216
1436.41	200
1437.76	212
1439.11	220
1440.46	222
1441.81	228
1443.15	210
1444.5	204
1445.85	198
1447.19	180
1448.54	198
1449.89	186
1451.23	164
1452.58	170
1453.92	176
1455.27	164
1456.61	164
1457.95	166
1459.3	152
1460.64	170
1461.98	154
1463.33	148
1464.67	156
1466.01	146
1467.35	154
1468.69	150
1470.03	144
1471.37	146
1472.71	142
1474.05	148
1475.39	138
1476.73	146
1478.07	140
1479.41	146
1480.75	150
1482.09	128
1483.42	130
1484.76	132
1486.1	118
1487.43	116
1488.77	128
1490.11	120
1491.44	118
1492.78	104
1494.11	128
1495.45	118
1496.78	114
1498.12	118
1499.45	122
1500.78	120
1502.11	122
1503.45	120
1504.78	114
1506.11	120
1507.44	120
1508.77	114
1510.11	110
1511.44	120
1512.77	106
1514.1	112
1515.43	120
1516.76	106
1518.08	124
1519.41	112
1520.74	104
1522.07	118
1523.4	110
1524.72	110
1526.05	108
1527.38	118
1528.7	120
1530.03	106
1531.36	112
1532.68	104
1534.01	108
1535.33	108
1536.66	110
1537.98	112
1539.3	108
1540.63	110
1541.95	110
1543.27	108
1544.6	110
1545.92	116
1547.24	118
1548.56	114
1549.88	108
1551.2	112
1552.52	106
1553.84	114
1555.17	112
1556.48	112
1557.8	110
1559.12	104
1560.44	104
1561.76	120
1563.08	110
1564.4	114
1565.71	118
1567.03	106
1568.35	110
1569.66	116
1570.98	114
1572.29	130
1573.61	120
1574.93	122
1576.24	142
1577.55	136
1578.87	144
1580.18	144
1581.5	150
1582.81	170
1584.12	180
1585.43	190
1586.75	198
1588.06	228
1589.37	256
1590.68	262
1591.99	282
1593.3	324
1594.61	314
1595.92	366
1597.23	400
1598.54	438
1599.85	464
1601.16	470
1602.47	476
1603.78	476
1605.08	452
1606.39	432
1607.7	410
1609	382
1610.31	372
1611.62	326
1612.92	302
1614.23	280
1615.53	248
1616.84	236
1618.14	194
1619.45	196
1620.75	184
1622.06	150
1623.36	138
1624.66	144
1625.96	124
1627.27	114
1628.57	116
1629.87	116
1631.17	116
1632.47	96
1633.77	98
1635.07	96
1636.37	92
1637.67	100
1638.97	94
1640.27	102
1641.57	98
1642.87	94
1644.17	88
1645.47	84
1646.76	86
1648.06	90
1649.36	82
1650.66	90
1651.95	96
1653.25	78
1654.54	86
1655.84	88
1657.13	88
1658.43	84
1659.72	80
1661.02	84
1662.31	86
1663.6	76
1664.9	80
1666.19	78
1667.48	78
1668.78	80
1670.07	80
1671.36	80
1672.65	82
1673.94	76
1675.23	80
1676.52	80
1677.81	76
1679.1	82
1680.39	82
1681.68	80
1682.97	76
1684.26	76
1685.55	76
1686.83	82
1688.12	76
1689.41	84
1690.7	88
1691.98	86
1693.27	98
1694.55	74
1695.84	76
1697.13	74
1698.41	72
1699.69	82
1700.98	82
1702.26	76