File: Mixture_Classification/Jesse_Dataset_v2/Pure Raman/Polypropylene oxide/785nm/ps-ppo-6jan25-0,0000-map2_Y01_X10.txt
204.377	388
206.045	362
207.713	378
209.38	350
211.048	338
212.715	318
214.381	334
216.047	324
217.712	348
219.377	358
221.042	380
222.706	420
224.369	472
226.032	566
227.695	676
229.357	798
231.019	872
232.68	968
234.341	962
236.001	974
237.661	902
239.321	844
240.98	750
242.639	686
244.297	652
245.955	554
247.612	522
249.268	446
250.924	426
252.58	376
254.236	332
255.891	290
257.546	274
259.2	256
260.854	236
262.507	210
264.16	212
265.812	196
267.463	186
269.115	184
270.766	172
272.417	176
274.067	172
275.717	176
277.365	180
279.014	184
280.663	204
282.311	206
283.958	246
285.605	262
287.252	304
288.898	328
290.543	376
292.188	412
293.833	448
295.477	434
297.121	442
298.765	420
300.407	394
302.05	354
303.693	336
305.334	312
306.975	296
308.615	276
310.256	272
311.896	268
313.535	238
315.175	236
316.813	234
318.451	238
320.089	220
321.726	236
323.362	240
324.999	238
326.635	226
328.271	258
329.905	264
331.54	266
333.174	270
334.807	270
336.441	260
338.074	252
339.707	248
341.338	222
342.969	210
344.601	210
346.231	208
347.861	214
349.491	210
351.12	212
352.749	208
354.378	230
356.006	218
357.633	210
359.261	210
360.887	192
362.513	188
364.139	202
365.764	190
367.39	194
369.014	198
370.638	202
372.261	206
373.884	198
375.508	192
377.13	190
378.752	186
380.373	158
381.994	162
383.615	156
385.235	140
386.854	128
388.473	146
390.092	146
391.711	114
393.328	138
394.947	128
396.564	130
398.181	120
399.797	130
401.412	132
403.027	138
404.642	144
406.257	126
407.871	152
409.484	176
411.098	200
412.711	212
414.323	218
415.935	208
417.547	188
419.158	188
420.768	178
422.378	150
423.988	140
425.597	124
427.206	130
428.814	110
430.422	112
432.03	98
433.637	108
435.243	102
436.85	94
438.456	84
440.062	94
441.666	86
443.271	80
444.876	84
446.479	82
448.082	90
449.685	80
451.287	88
452.89	86
454.492	80
456.092	82
457.693	76
459.293	98
460.893	86
462.492	104
464.092	100
465.691	94
467.288	106
468.887	138
470.483	140
472.081	146
473.677	178
475.273	180
476.869	210
478.463	234
480.059	250
481.653	262
483.247	286
484.84	302
486.433	296
488.026	258
489.618	208
491.21	170
492.801	152
494.392	144
495.983	124
497.573	114
499.162	98
500.752	98
502.341	92
503.929	112
505.517	100
507.105	106
508.692	132
510.279	166
511.865	204
513.45	206
515.037	212
516.621	186
518.206	158
519.79	150
521.374	146
522.957	174
524.54	156
526.123	182
527.705	198
529.287	238
530.868	268
532.448	322
534.029	350
535.609	420
537.188	440
538.768	438
540.346	462
541.925	412
543.502	364
545.08	304
546.657	268
548.234	216
549.81	208
551.386	194
552.961	194
554.536	212
556.11	234
557.684	268
559.258	332
560.832	416
562.405	516
563.977	706
565.55	998
567.12	1458
568.692	1952
570.263	2304
571.833	2336
573.403	2008
574.973	1476
576.542	1024
578.111	710
579.679	490
581.247	390
582.815	360
584.382	330
585.948	332
587.514	318
589.081	308
590.645	280
592.211	276
593.775	256
595.339	230
596.904	234
598.466	206
600.03	176
601.592	166
603.154	136
604.715	128
606.277	110
607.838	102
609.398	102
610.958	94
612.518	88
614.077	94
615.636	98
617.194	98
618.753	98
620.31	104
621.867	98
623.424	108
624.98	120
626.537	118
628.092	134
629.647	132
631.202	136
632.756	152
634.31	158
635.864	152
637.417	152
638.969	150
640.521	150
642.074	132
643.625	126
645.176	118
646.726	108
648.276	98
649.827	98
651.376	102
652.925	86
654.473	88
656.021	92
657.569	88
659.117	80
660.664	78
662.21	68
663.757	66
665.302	66
666.847	72
668.392	64
669.937	64
671.481	66
673.025	64
674.568	64
676.111	68
677.653	60
679.195	64
680.737	56
682.279	70
683.82	54
685.36	72
686.9	66
688.44	68
689.979	58
691.517	56
693.056	60
694.594	60
696.132	64
697.669	62
699.206	52
700.742	60
702.278	60
703.814	66
705.35	72
706.884	70
708.419	78
709.953	86
711.487	88
713.019	94
714.552	100
716.085	94
717.617	94
719.148	76
720.68	86
722.21	72
723.741	76
725.271	72
726.8	70
728.33	76
729.858	72
731.387	74
732.915	78
734.443	82
735.97	86
737.497	78
739.023	86
740.549	98
742.075	90
743.6	108
745.125	130
746.65	144
748.173	140
749.697	126
751.22	124
752.743	130
754.266	130
755.788	118
757.309	104
758.831	94
760.351	82
761.871	84
763.392	66
764.912	68
766.431	68
767.95	72
769.468	70
770.986	64
772.504	70
774.022	70
775.538	76
777.055	84
778.571	76
780.086	84
781.602	76
783.117	80
784.632	80
786.146	66
787.659	78
789.173	72
790.685	70
792.198	64
793.71	74
795.222	60
796.733	64
798.244	68
799.755	72
801.265	60
802.775	72
804.284	72
805.793	82
807.302	78
808.81	82
810.318	80
811.826	78
813.333	66
814.84	78
816.346	76
817.851	78
819.357	86
820.862	88
822.367	86
823.871	116
825.376	138
826.878	180
828.382	232
829.885	344
831.387	484
832.889	618
834.391	580
835.892	412
837.392	252
838.893	176
840.393	136
841.893	120
843.392	110
844.891	110
846.389	106
847.888	102
849.386	104
850.882	84
852.38	86
853.876	76
855.372	84
856.868	86
858.363	88
859.858	84
861.353	82
862.847	78
864.341	82
865.834	70
867.328	68
868.82	68
870.313	66
871.805	70
873.296	70
874.787	68
876.278	66
877.769	64
879.258	62
880.748	54
882.237	66
883.726	64
885.214	56
886.702	60
888.19	64
889.677	64
891.164	56
892.651	56
894.137	58
895.623	56
897.108	62
898.593	58
900.077	62
901.562	56
903.046	54
904.529	62
906.012	60
907.495	46
908.977	58
910.459	54
911.941	64
913.422	56
914.903	58
916.383	60
917.863	64
919.343	54
920.822	62
922.301	64
923.779	58
925.257	60
926.735	62
928.213	68
929.69	66
931.166	68
932.643	64
934.119	64
935.594	66
937.069	68
938.543	76
940.018	72
941.492	72
942.966	96
944.439	90
945.911	104
947.384	112
948.856	130
950.328	146
951.799	184
953.27	214
954.741	250
956.21	298
957.68	340
959.15	380
960.619	390
962.088	376
963.556	292
965.023	306
966.491	262
967.958	230
969.425	206
970.891	192
972.357	152
973.824	138
975.288	114
976.754	104
978.218	88
979.682	94
981.146	78
982.609	72
984.072	80
985.534	68
986.997	68
988.459	74
989.92	70
991.382	78
992.842	70
994.302	70
995.763	76
997.222	60
998.681	64
1000.14	68
1001.6	60
1003.06	64
1004.52	66
1005.97	52
1007.43	58
1008.89	64
1010.34	56
1011.8	62
1013.25	64
1014.71	62
1016.16	74
1017.62	74
1019.07	80
1020.53	82
1021.98	76
1023.43	84
1024.89	82
1026.34	80
1027.79	86
1029.24	90
1030.69	102
1032.14	100
1033.59	98
1035.04	98
1036.49	98
1037.94	96
1039.39	86
1040.84	90
1042.29	92
1043.73	86
1045.18	78
1046.63	80
1048.08	72
1049.52	68
1050.97	70
1052.41	60
1053.86	70
1055.3	68
1056.75	74
1058.19	58
1059.64	66
1061.08	62
1062.52	64
1063.96	72
1065.41	66
1066.85	64
1068.29	70
1069.73	64
1071.17	62
1072.61	56
1074.05	70
1075.49	66
1076.93	60
1078.37	62
1079.81	68
1081.25	66
1082.68	66
1084.12	70
1085.56	62
1087	70
1088.43	76
1089.87	68
1091.3	70
1092.74	68
1094.17	66
1095.61	74
1097.04	76
1098.48	76
1099.91	70
1101.34	78
1102.78	86
1104.21	90
1105.64	114
1107.07	148
1108.5	196
1109.93	266
1111.36	326
1112.8	370
1114.22	304
1115.65	266
1117.08	182
1118.51	154
1119.94	128
1121.37	108
1122.8	104
1124.22	106
1125.65	106
1127.08	92
1128.5	84
1129.93	88
1131.35	80
1132.78	78
1134.2	80
1135.63	84
1137.05	82
1138.48	80
1139.9	94
1141.32	92
1142.75	90
1144.17	78
1145.59	90
1147.01	80
1148.43	74
1149.85	68
1151.27	76
1152.69	72
1154.11	74
1155.53	78
1156.95	76
1158.37	92
1159.79	78
1161.21	90
1162.62	92
1164.04	92
1165.46	96
1166.87	96
1168.29	76
1169.71	86
1171.12	82
1172.54	82
1173.95	84
1175.37	106
1176.78	112
1178.19	116
1179.61	134
1181.02	140
1182.43	186
1183.84	202
1185.26	228
1186.67	250
1188.08	246
1189.49	228
1190.9	190
1192.31	172
1193.72	156
1195.13	154
1196.54	154
1197.95	160
1199.36	162
1200.76	162
1202.17	178
1203.58	168
1204.99	156
1206.39	164
1207.8	148
1209.2	126
1210.61	114
1212.01	112
1213.42	100
1214.82	88
1216.23	84
1217.63	90
1219.03	92
1220.44	92
1221.84	94
1223.24	92
1224.64	96
1226.05	114
1227.45	124
1228.85	134
1230.25	132
1231.65	126
1233.05	124
1234.45	116
1235.85	104
1237.25	98
1238.64	90
1240.04	98
1241.44	100
1242.84	86
1244.23	86
1245.63	82
1247.03	92
1248.42	86
1249.82	78
1251.21	84
1252.61	90
1254	82
1255.4	92
1256.79	92
1258.19	92
1259.58	88
1260.97	92
1262.36	96
1263.76	92
1265.15	98
1266.54	102
1267.93	96
1269.32	102
1270.71	94
1272.1	102
1273.49	104
1274.88	106
1276.27	112
1277.66	120
1279.05	112
1280.43	120
1281.82	134
1283.21	134
1284.6	140
1285.98	156
1287.37	148
1288.75	150
1290.14	168
1291.53	166
1292.91	184
1294.29	218
1295.68	240
1297.06	294
1298.45	344
1299.83	442
1301.21	550
1302.59	674
1303.98	740
1305.36	828
1306.74	786
1308.12	660
1309.5	526
1310.88	422
1312.26	330
1313.64	312
1315.02	270
1316.4	236
1317.78	214
1319.16	212
1320.53	202
1321.91	180
1323.29	180
1324.67	188
1326.04	180
1327.42	188
1328.79	178
1330.17	178
1331.54	168
1332.92	166
1334.29	152
1335.67	144
1337.04	150
1338.42	140
1339.79	144
1341.16	142
1342.53	154
1343.91	150
1345.28	154
1346.65	164
1348.02	168
1349.39	170
1350.76	170
1352.13	178
1353.5	152
1354.87	162
1356.24	156
1357.61	162
1358.98	136
1360.34	156
1361.71	156
1363.08	148
1364.45	150
1365.81	154
1367.18	164
1368.54	162
1369.91	168
1371.28	188
1372.64	224
1374.01	286
1375.37	342
1376.73	384
1378.1	440
1379.46	414
1380.82	416
1382.19	398
1383.55	340
1384.91	330
1386.27	272
1387.63	212
1388.99	198
1390.35	170
1391.71	156
1393.07	146
1394.43	144
1395.79	140
1397.15	150
1398.51	128
1399.87	130
1401.23	136
1402.58	136
1403.94	134
1405.3	130
1406.65	126
1408.01	132
1409.37	146
1410.72	150
1412.08	146
1413.43	130
1414.79	150
1416.14	150
1417.49	152
1418.85	162
1420.2	152
1421.55	166
1422.91	184
1424.26	182
1425.61	184
1426.96	182
1428.31	194
1429.66	190
1431.01	196
1432.36	200
1433.71	182
1435.06	210
1436.41	220
1437.76	212
1439.11	214
1440.46	214
1441.81	222
1443.15	198
1444.5	206
1445.85	192
1447.19	178
1448.54	188
1449.89	180
1451.23	180
1452.58	174
1453.92	160
1455.27	160
1456.61	166
1457.95	158
1459.3	162
1460.64	160
1461.98	158
1463.33	148
1464.67	156
1466.01	146
1467.35	152
1468.69	156
1470.03	146
1471.37	148
1472.71	152
1474.05	150
1475.39	142
1476.73	148
1478.07	138
1479.41	146
1480.75	138
1482.09	136
1483.42	128
1484.76	132
1486.1	128
1487.43	120
1488.77	120
1490.11	128
1491.44	118
1492.78	128
1494.11	122
1495.45	122
1496.78	112
1498.12	116
1499.45	112
1500.78	116
1502.11	116
1503.45	110
1504.78	128
1506.11	116
1507.44	120
1508.77	102
1510.11	108
1511.44	110
1512.77	106
1514.1	112
1515.43	112
1516.76	116
1518.08	114
1519.41	106
1520.74	116
1522.07	112
1523.4	108
1524.72	106
1526.05	116
1527.38	112
1528.7	112
1530.03	110
1531.36	104
1532.68	106
1534.01	106
1535.33	106
1536.66	116
1537.98	108
1539.3	112
1540.63	102
1541.95	104
1543.27	108
1544.6	104
1545.92	106
1547.24	110
1548.56	102
1549.88	104
1551.2	106
1552.52	108
1553.84	118
1555.17	120
1556.48	114
1557.8	106
1559.12	112
1560.44	110
1561.76	108
1563.08	114
1564.4	118
1565.71	118
1567.03	112
1568.35	124
1569.66	112
1570.98	130
1572.29	118
1573.61	124
1574.93	112
1576.24	146
1577.55	128
1578.87	156
1580.18	152
1581.5	164
1582.81	168
1584.12	170
1585.43	194
1586.75	196
1588.06	202
1589.37	234
1590.68	268
1591.99	294
1593.3	324
1594.61	348
1595.92	366
1597.23	422
1598.54	424
1599.85	454
1601.16	488
1602.47	478
1603.78	480
1605.08	458
1606.39	442
1607.7	408
1609	352
1610.31	352
1611.62	328
1612.92	302
1614.23	280
1615.53	262
1616.84	236
1618.14	202
1619.45	186
1620.75	162
1622.06	144
1623.36	146
1624.66	134
1625.96	128
1627.27	122
1628.57	116
1629.87	108
1631.17	116
1632.47	102
1633.77	96
1635.07	100
1636.37	98
1637.67	102
1638.97	96
1640.27	92
1641.57	92
1642.87	86
1644.17	94
1645.47	90
1646.76	92
1648.06	92
1649.36	80
1650.66	92
1651.95	84
1653.25	76
1654.54	80
1655.84	76
1657.13	84
1658.43	82
1659.72	80
1661.02	82
1662.31	84
1663.6	76
1664.9	82
1666.19	86
1667.48	82
1668.78	80
1670.07	84
1671.36	78
1672.65	78
1673.94	84
1675.23	80
1676.52	78
1677.81	78
1679.1	80
1680.39	76
1681.68	78
1682.97	84
1684.26	84
1685.55	68
1686.83	82
1688.12	78
1689.41	84
1690.7	90
1691.98	78
1693.27	80
1694.55	80
1695.84	84
1697.13	84
1698.41	88
1699.69	82
1700.98	74
1702.26	80