File: Mixture_Classification/Jesse_Dataset_v2/Pure Raman/Polypropylene oxide/785nm/ps-ppo-6jan25-0,0000-map2_Y03_X05.txt
204.377	380
206.045	356
207.713	356
209.38	352
211.048	332
212.715	318
214.381	326
216.047	328
217.712	324
219.377	352
221.042	378
222.706	406
224.369	472
226.032	542
227.695	644
229.357	784
231.019	888
232.68	958
234.341	976
236.001	950
237.661	890
239.321	826
240.98	774
242.639	704
244.297	622
245.955	566
247.612	502
249.268	470
250.924	414
252.58	386
254.236	322
255.891	290
257.546	268
259.2	254
260.854	232
262.507	222
264.16	178
265.812	196
267.463	180
269.115	188
270.766	170
272.417	166
274.067	172
275.717	184
277.365	186
279.014	186
280.663	186
282.311	204
283.958	214
285.605	256
287.252	278
288.898	338
290.543	358
292.188	408
293.833	438
295.477	436
297.121	420
298.765	400
300.407	396
302.05	362
303.693	326
305.334	314
306.975	288
308.615	270
310.256	272
311.896	238
313.535	236
315.175	230
316.813	230
318.451	214
320.089	224
321.726	232
323.362	230
324.999	238
326.635	240
328.271	248
329.905	252
331.54	236
333.174	246
334.807	248
336.441	254
338.074	254
339.707	242
341.338	220
342.969	218
344.601	208
346.231	214
347.861	206
349.491	214
351.12	194
352.749	204
354.378	208
356.006	214
357.633	198
359.261	192
360.887	194
362.513	204
364.139	178
365.764	190
367.39	192
369.014	202
370.638	188
372.261	196
373.884	202
375.508	192
377.13	170
378.752	172
380.373	154
381.994	130
383.615	150
385.235	124
386.854	144
388.473	132
390.092	128
391.711	138
393.328	130
394.947	122
396.564	118
398.181	126
399.797	128
401.412	124
403.027	128
404.642	130
406.257	140
407.871	166
409.484	164
411.098	184
412.711	204
414.323	204
415.935	208
417.547	190
419.158	174
420.768	158
422.378	146
423.988	132
425.597	118
427.206	118
428.814	108
430.422	108
432.03	112
433.637	86
435.243	92
436.85	96
438.456	84
440.062	84
441.666	84
443.271	74
444.876	80
446.479	80
448.082	80
449.685	76
451.287	76
452.89	84
454.492	68
456.092	72
457.693	78
459.293	78
460.893	80
462.492	92
464.092	94
465.691	104
467.288	106
468.887	114
470.483	124
472.081	152
473.677	158
475.273	184
476.869	204
478.463	220
480.059	230
481.653	254
483.247	268
484.84	302
486.433	276
488.026	252
489.618	202
491.21	170
492.801	156
494.392	144
495.983	126
497.573	110
499.162	100
500.752	104
502.341	96
503.929	100
505.517	98
507.105	114
508.692	126
510.279	164
511.865	188
513.45	214
515.037	192
516.621	162
518.206	160
519.79	140
521.374	154
522.957	144
524.54	166
526.123	190
527.705	204
529.287	234
530.868	270
532.448	320
534.029	342
535.609	390
537.188	412
538.768	454
540.346	446
541.925	390
543.502	368
545.08	302
546.657	268
548.234	204
549.81	198
551.386	188
552.961	196
554.536	206
556.11	218
557.684	272
559.258	322
560.832	386
562.405	520
563.977	696
565.55	974
567.12	1390
568.692	1916
570.263	2298
571.833	2264
573.403	1952
574.973	1420
576.542	1008
578.111	698
579.679	496
581.247	394
582.815	348
584.382	324
585.948	318
587.514	314
589.081	284
590.645	256
592.211	262
593.775	242
595.339	234
596.904	240
598.466	200
600.03	178
601.592	140
603.154	128
604.715	116
606.277	102
607.838	96
609.398	102
610.958	88
612.518	92
614.077	92
615.636	92
617.194	92
618.753	96
620.31	88
621.867	102
623.424	106
624.98	120
626.537	108
628.092	128
629.647	132
631.202	134
632.756	152
634.31	156
635.864	154
637.417	138
638.969	140
640.521	148
642.074	120
643.625	114
645.176	110
646.726	104
648.276	90
649.827	104
651.376	90
652.925	94
654.473	82
656.021	78
657.569	72
659.117	80
660.664	72
662.21	68
663.757	68
665.302	76
666.847	62
668.392	60
669.937	62
671.481	64
673.025	52
674.568	60
676.111	60
677.653	54
679.195	56
680.737	62
682.279	64
683.82	54
685.36	66
686.9	62
688.44	60
689.979	62
691.517	58
693.056	58
694.594	60
696.132	62
697.669	60
699.206	54
700.742	60
702.278	58
703.814	60
705.35	70
706.884	66
708.419	78
709.953	80
711.487	84
713.019	92
714.552	98
716.085	98
717.617	98
719.148	90
720.68	80
722.21	76
723.741	70
725.271	72
726.8	74
728.33	76
729.858	70
731.387	74
732.915	76
734.443	68
735.97	80
737.497	78
739.023	96
740.549	96
742.075	96
743.6	96
745.125	130
746.65	150
748.173	134
749.697	126
751.22	120
752.743	114
754.266	114
755.788	106
757.309	108
758.831	90
760.351	80
761.871	74
763.392	66
764.912	66
766.431	70
767.95	70
769.468	68
770.986	70
772.504	76
774.022	78
775.538	72
777.055	74
778.571	70
780.086	80
781.602	74
783.117	80
784.632	80
786.146	76
787.659	72
789.173	70
790.685	64
792.198	62
793.71	68
795.222	74
796.733	60
798.244	60
799.755	72
801.265	64
802.775	62
804.284	68
805.793	76
807.302	74
808.81	74
810.318	80
811.826	72
813.333	76
814.84	72
816.346	78
817.851	82
819.357	84
820.862	92
822.367	98
823.871	110
825.376	128
826.878	162
828.382	222
829.885	338
831.387	482
832.889	600
834.391	544
835.892	384
837.392	244
838.893	162
840.393	134
841.893	118
843.392	92
844.891	102
846.389	100
847.888	86
849.386	104
850.882	98
852.38	86
853.876	86
855.372	92
856.868	88
858.363	76
859.858	86
861.353	76
862.847	78
864.341	78
865.834	70
867.328	70
868.82	68
870.313	64
871.805	66
873.296	62
874.787	60
876.278	66
877.769	64
879.258	62
880.748	64
882.237	64
883.726	56
885.214	54
886.702	54
888.19	62
889.677	50
891.164	54
892.651	56
894.137	52
895.623	60
897.108	54
898.593	56
900.077	58
901.562	58
903.046	54
904.529	56
906.012	58
907.495	60
908.977	62
910.459	56
911.941	56
913.422	52
914.903	56
916.383	60
917.863	56
919.343	54
920.822	56
922.301	54
923.779	56
925.257	54
926.735	56
928.213	62
929.69	66
931.166	60
932.643	66
934.119	62
935.594	74
937.069	66
938.543	76
940.018	66
941.492	78
942.966	90
944.439	92
945.911	94
947.384	102
948.856	102
950.328	138
951.799	184
953.27	202
954.741	248
956.21	298
957.68	334
959.15	374
960.619	376
962.088	350
963.556	310
965.023	304
966.491	258
967.958	234
969.425	196
970.891	172
972.357	150
973.824	132
975.288	116
976.754	96
978.218	92
979.682	70
981.146	82
982.609	82
984.072	74
985.534	74
986.997	68
988.459	74
989.92	70
991.382	76
992.842	68
994.302	64
995.763	66
997.222	76
998.681	64
1000.14	60
1001.6	60
1003.06	66
1004.52	62
1005.97	62
1007.43	60
1008.89	64
1010.34	64
1011.8	64
1013.25	70
1014.71	68
1016.16	68
1017.62	60
1019.07	70
1020.53	82
1021.98	86
1023.43	76
1024.89	88
1026.34	84
1027.79	92
1029.24	82
1030.69	94
1032.14	92
1033.59	102
1035.04	86
1036.49	92
1037.94	94
1039.39	88
1040.84	88
1042.29	90
1043.73	80
1045.18	76
1046.63	78
1048.08	78
1049.52	60
1050.97	70
1052.41	68
1053.86	68
1055.3	68
1056.75	64
1058.19	64
1059.64	62
1061.08	66
1062.52	68
1063.96	64
1065.41	64
1066.85	58
1068.29	54
1069.73	58
1071.17	68
1072.61	64
1074.05	70
1075.49	64
1076.93	66
1078.37	60
1079.81	66
1081.25	60
1082.68	62
1084.12	66
1085.56	64
1087	70
1088.43	60
1089.87	64
1091.3	68
1092.74	72
1094.17	72
1095.61	70
1097.04	78
1098.48	76
1099.91	82
1101.34	86
1102.78	82
1104.21	96
1105.64	106
1107.07	152
1108.5	196
1109.93	248
1111.36	328
1112.8	348
1114.22	334
1115.65	272
1117.08	192
1118.51	152
1119.94	142
1121.37	114
1122.8	102
1124.22	98
1125.65	92
1127.08	94
1128.5	86
1129.93	84
1131.35	88
1132.78	80
1134.2	82
1135.63	84
1137.05	86
1138.48	76
1139.9	86
1141.32	84
1142.75	86
1144.17	86
1145.59	88
1147.01	78
1148.43	76
1149.85	70
1151.27	72
1152.69	72
1154.11	76
1155.53	80
1156.95	84
1158.37	84
1159.79	96
1161.21	86
1162.62	100
1164.04	98
1165.46	80
1166.87	78
1168.29	76
1169.71	76
1171.12	92
1172.54	88
1173.95	86
1175.37	104
1176.78	108
1178.19	104
1179.61	124
1181.02	146
1182.43	174
1183.84	190
1185.26	218
1186.67	238
1188.08	222
1189.49	200
1190.9	194
1192.31	166
1193.72	160
1195.13	150
1196.54	158
1197.95	146
1199.36	158
1200.76	172
1202.17	164
1203.58	180
1204.99	162
1206.39	156
1207.8	146
1209.2	126
1210.61	118
1212.01	104
1213.42	86
1214.82	90
1216.23	86
1217.63	92
1219.03	90
1220.44	88
1221.84	90
1223.24	102
1224.64	96
1226.05	102
1227.45	110
1228.85	140
1230.25	126
1231.65	124
1233.05	120
1234.45	116
1235.85	90
1237.25	94
1238.64	92
1240.04	84
1241.44	82
1242.84	86
1244.23	86
1245.63	88
1247.03	90
1248.42	88
1249.82	84
1251.21	86
1252.61	88
1254	88
1255.4	86
1256.79	94
1258.19	82
1259.58	86
1260.97	98
1262.36	90
1263.76	94
1265.15	92
1266.54	86
1267.93	92
1269.32	100
1270.71	96
1272.1	102
1273.49	108
1274.88	100
1276.27	104
1277.66	102
1279.05	114
1280.43	110
1281.82	124
1283.21	136
1284.6	142
1285.98	154
1287.37	158
1288.75	156
1290.14	164
1291.53	172
1292.91	192
1294.29	232
1295.68	228
1297.06	288
1298.45	318
1299.83	434
1301.21	544
1302.59	636
1303.98	774
1305.36	790
1306.74	734
1308.12	636
1309.5	514
1310.88	424
1312.26	338
1313.64	284
1315.02	242
1316.4	226
1317.78	204
1319.16	204
1320.53	198
1321.91	188
1323.29	176
1324.67	168
1326.04	190
1327.42	186
1328.79	176
1330.17	166
1331.54	160
1332.92	160
1334.29	160
1335.67	140
1337.04	134
1338.42	140
1339.79	136
1341.16	132
1342.53	138
1343.91	154
1345.28	158
1346.65	166
1348.02	164
1349.39	176
1350.76	174
1352.13	164
1353.5	176
1354.87	166
1356.24	154
1357.61	162
1358.98	156
1360.34	150
1361.71	148
1363.08	144
1364.45	154
1365.81	144
1367.18	150
1368.54	174
1369.91	164
1371.28	198
1372.64	218
1374.01	288
1375.37	338
1376.73	380
1378.1	432
1379.46	414
1380.82	430
1382.19	392
1383.55	340
1384.91	318
1386.27	274
1387.63	232
1388.99	180
1390.35	176
1391.71	164
1393.07	144
1394.43	148
1395.79	144
1397.15	136
1398.51	142
1399.87	146
1401.23	126
1402.58	130
1403.94	136
1405.3	126
1406.65	132
1408.01	136
1409.37	146
1410.72	142
1412.08	130
1413.43	136
1414.79	140
1416.14	150
1417.49	144
1418.85	160
1420.2	174
1421.55	170
1422.91	180
1424.26	170
1425.61	182
1426.96	184
1428.31	176
1429.66	192
1431.01	180
1432.36	190
1433.71	200
1435.06	196
1436.41	212
1437.76	212
1439.11	212
1440.46	224
1441.81	216
1443.15	210
1444.5	188
1445.85	200
1447.19	188
1448.54	176
1449.89	184
1451.23	174
1452.58	180
1453.92	176
1455.27	168
1456.61	158
1457.95	150
1459.3	172
1460.64	150
1461.98	154
1463.33	156
1464.67	160
1466.01	156
1467.35	152
1468.69	146
1470.03	156
1471.37	132
1472.71	146
1474.05	148
1475.39	148
1476.73	150
1478.07	152
1479.41	138
1480.75	140
1482.09	142
1483.42	134
1484.76	128
1486.1	128
1487.43	134
1488.77	118
1490.11	112
1491.44	112
1492.78	120
1494.11	118
1495.45	122
1496.78	124
1498.12	118
1499.45	120
1500.78	116
1502.11	108
1503.45	110
1504.78	120
1506.11	122
1507.44	114
1508.77	112
1510.11	110
1511.44	114
1512.77	110
1514.1	112
1515.43	116
1516.76	104
1518.08	108
1519.41	108
1520.74	110
1522.07	116
1523.4	108
1524.72	114
1526.05	106
1527.38	104
1528.7	104
1530.03	116
1531.36	100
1532.68	110
1534.01	102
1535.33	102
1536.66	110
1537.98	116
1539.3	116
1540.63	98
1541.95	102
1543.27	112
1544.6	108
1545.92	98
1547.24	114
1548.56	116
1549.88	100
1551.2	114
1552.52	120
1553.84	112
1555.17	112
1556.48	112
1557.8	112
1559.12	114
1560.44	108
1561.76	104
1563.08	106
1564.4	106
1565.71	108
1567.03	114
1568.35	110
1569.66	116
1570.98	118
1572.29	116
1573.61	118
1574.93	134
1576.24	136
1577.55	134
1578.87	140
1580.18	146
1581.5	156
1582.81	162
1584.12	176
1585.43	180
1586.75	200
1588.06	210
1589.37	236
1590.68	264
1591.99	290
1593.3	306
1594.61	348
1595.92	374
1597.23	402
1598.54	446
1599.85	458
1601.16	476
1602.47	478
1603.78	472
1605.08	466
1606.39	422
1607.7	400
1609	390
1610.31	358
1611.62	334
1612.92	304
1614.23	276
1615.53	252
1616.84	228
1618.14	204
1619.45	178
1620.75	156
1622.06	156
1623.36	144
1624.66	134
1625.96	124
1627.27	128
1628.57	114
1629.87	108
1631.17	106
1632.47	102
1633.77	100
1635.07	100
1636.37	94
1637.67	86
1638.97	100
1640.27	92
1641.57	96
1642.87	86
1644.17	90
1645.47	90
1646.76	96
1648.06	94
1649.36	92
1650.66	86
1651.95	80
1653.25	76
1654.54	76
1655.84	84
1657.13	88
1658.43	82
1659.72	72
1661.02	80
1662.31	80
1663.6	72
1664.9	80
1666.19	88
1667.48	78
1668.78	70
1670.07	80
1671.36	78
1672.65	76
1673.94	84
1675.23	84
1676.52	74
1677.81	78
1679.1	78
1680.39	70
1681.68	80
1682.97	74
1684.26	76
1685.55	80
1686.83	78
1688.12	84
1689.41	78
1690.7	86
1691.98	86
1693.27	84
1694.55	84
1695.84	84
1697.13	82
1698.41	72
1699.69	82
1700.98	82
1702.26	82