File: Mixture_Classification/Jesse_Dataset_v2/Pure Raman/Polypropylene oxide/785nm/ps-ppo-6jan25-0,0000-map2_Y02_X05.txt
204.377	378
206.045	370
207.713	354
209.38	342
211.048	326
212.715	332
214.381	332
216.047	318
217.712	336
219.377	354
221.042	384
222.706	428
224.369	472
226.032	556
227.695	662
229.357	778
231.019	902
232.68	948
234.341	984
236.001	920
237.661	894
239.321	826
240.98	780
242.639	698
244.297	634
245.955	562
247.612	508
249.268	446
250.924	394
252.58	386
254.236	310
255.891	296
257.546	260
259.2	236
260.854	222
262.507	200
264.16	200
265.812	192
267.463	192
269.115	176
270.766	182
272.417	180
274.067	170
275.717	170
277.365	182
279.014	172
280.663	204
282.311	210
283.958	218
285.605	242
287.252	276
288.898	318
290.543	364
292.188	412
293.833	424
295.477	410
297.121	442
298.765	410
300.407	386
302.05	328
303.693	340
305.334	306
306.975	296
308.615	264
310.256	262
311.896	262
313.535	230
315.175	220
316.813	232
318.451	230
320.089	232
321.726	232
323.362	216
324.999	234
326.635	236
328.271	246
329.905	258
331.54	256
333.174	264
334.807	244
336.441	254
338.074	252
339.707	220
341.338	224
342.969	220
344.601	214
346.231	194
347.861	218
349.491	214
351.12	208
352.749	204
354.378	200
356.006	208
357.633	208
359.261	212
360.887	184
362.513	188
364.139	186
365.764	184
367.39	194
369.014	186
370.638	192
372.261	208
373.884	202
375.508	198
377.13	172
378.752	172
380.373	156
381.994	148
383.615	142
385.235	132
386.854	136
388.473	130
390.092	132
391.711	126
393.328	132
394.947	116
396.564	124
398.181	130
399.797	120
401.412	114
403.027	132
404.642	140
406.257	144
407.871	160
409.484	174
411.098	182
412.711	204
414.323	216
415.935	206
417.547	198
419.158	184
420.768	160
422.378	154
423.988	128
425.597	116
427.206	130
428.814	118
430.422	112
432.03	106
433.637	104
435.243	102
436.85	92
438.456	90
440.062	88
441.666	84
443.271	78
444.876	82
446.479	78
448.082	70
449.685	82
451.287	86
452.89	80
454.492	78
456.092	78
457.693	88
459.293	72
460.893	80
462.492	94
464.092	92
465.691	108
467.288	114
468.887	122
470.483	128
472.081	152
473.677	170
475.273	188
476.869	184
478.463	212
480.059	238
481.653	248
483.247	264
484.84	282
486.433	282
488.026	242
489.618	192
491.21	174
492.801	154
494.392	140
495.983	112
497.573	120
499.162	104
500.752	92
502.341	106
503.929	102
505.517	102
507.105	112
508.692	128
510.279	162
511.865	202
513.45	224
515.037	220
516.621	162
518.206	152
519.79	152
521.374	138
522.957	160
524.54	162
526.123	186
527.705	198
529.287	230
530.868	274
532.448	306
534.029	372
535.609	402
537.188	442
538.768	436
540.346	426
541.925	418
543.502	372
545.08	310
546.657	252
548.234	210
549.81	196
551.386	194
552.961	196
554.536	208
556.11	224
557.684	262
559.258	308
560.832	402
562.405	522
563.977	706
565.55	998
567.12	1392
568.692	1910
570.263	2260
571.833	2324
573.403	1972
574.973	1458
576.542	976
578.111	708
579.679	494
581.247	368
582.815	348
584.382	336
585.948	332
587.514	306
589.081	304
590.645	272
592.211	272
593.775	272
595.339	250
596.904	230
598.466	214
600.03	184
601.592	152
603.154	132
604.715	122
606.277	112
607.838	104
609.398	88
610.958	96
612.518	96
614.077	82
615.636	96
617.194	88
618.753	90
620.31	96
621.867	98
623.424	110
624.98	116
626.537	126
628.092	128
629.647	134
631.202	136
632.756	134
634.31	158
635.864	166
637.417	148
638.969	144
640.521	140
642.074	132
643.625	128
645.176	116
646.726	114
648.276	106
649.827	96
651.376	88
652.925	90
654.473	82
656.021	74
657.569	78
659.117	76
660.664	68
662.21	76
663.757	64
665.302	66
666.847	66
668.392	66
669.937	66
671.481	62
673.025	54
674.568	62
676.111	64
677.653	58
679.195	62
680.737	66
682.279	60
683.82	68
685.36	62
686.9	64
688.44	68
689.979	66
691.517	56
693.056	58
694.594	58
696.132	56
697.669	58
699.206	56
700.742	54
702.278	62
703.814	66
705.35	66
706.884	60
708.419	76
709.953	82
711.487	88
713.019	92
714.552	98
716.085	98
717.617	100
719.148	86
720.68	80
722.21	76
723.741	74
725.271	78
726.8	76
728.33	74
729.858	76
731.387	74
732.915	72
734.443	76
735.97	76
737.497	86
739.023	84
740.549	82
742.075	92
743.6	106
745.125	126
746.65	142
748.173	132
749.697	132
751.22	132
752.743	124
754.266	116
755.788	114
757.309	104
758.831	92
760.351	76
761.871	72
763.392	74
764.912	70
766.431	68
767.95	72
769.468	66
770.986	72
772.504	68
774.022	74
775.538	74
777.055	74
778.571	78
780.086	76
781.602	80
783.117	80
784.632	78
786.146	80
787.659	72
789.173	70
790.685	70
792.198	70
793.71	66
795.222	64
796.733	66
798.244	66
799.755	66
801.265	66
802.775	66
804.284	72
805.793	62
807.302	74
808.81	78
810.318	70
811.826	78
813.333	76
814.84	72
816.346	72
817.851	70
819.357	76
820.862	94
822.367	100
823.871	114
825.376	128
826.878	158
828.382	230
829.885	342
831.387	486
832.889	588
834.391	556
835.892	380
837.392	256
838.893	178
840.393	134
841.893	108
843.392	104
844.891	94
846.389	100
847.888	90
849.386	86
850.882	80
852.38	88
853.876	92
855.372	86
856.868	90
858.363	80
859.858	80
861.353	80
862.847	74
864.341	76
865.834	64
867.328	76
868.82	68
870.313	68
871.805	62
873.296	62
874.787	58
876.278	70
877.769	70
879.258	64
880.748	72
882.237	62
883.726	62
885.214	56
886.702	60
888.19	66
889.677	54
891.164	54
892.651	54
894.137	58
895.623	54
897.108	52
898.593	56
900.077	56
901.562	58
903.046	58
904.529	54
906.012	52
907.495	54
908.977	56
910.459	60
911.941	58
913.422	56
914.903	60
916.383	58
917.863	54
919.343	56
920.822	58
922.301	58
923.779	58
925.257	58
926.735	60
928.213	58
929.69	66
931.166	64
932.643	60
934.119	68
935.594	58
937.069	70
938.543	74
940.018	74
941.492	86
942.966	88
944.439	94
945.911	98
947.384	116
948.856	118
950.328	142
951.799	170
953.27	210
954.741	248
956.21	292
957.68	346
959.15	370
960.619	382
962.088	356
963.556	316
965.023	298
966.491	246
967.958	216
969.425	188
970.891	176
972.357	154
973.824	130
975.288	114
976.754	94
978.218	104
979.682	82
981.146	82
982.609	76
984.072	70
985.534	66
986.997	66
988.459	68
989.92	74
991.382	80
992.842	76
994.302	68
995.763	62
997.222	60
998.681	58
1000.14	62
1001.6	66
1003.06	62
1004.52	58
1005.97	52
1007.43	64
1008.89	66
1010.34	58
1011.8	64
1013.25	64
1014.71	62
1016.16	64
1017.62	68
1019.07	74
1020.53	74
1021.98	86
1023.43	80
1024.89	84
1026.34	90
1027.79	88
1029.24	90
1030.69	88
1032.14	96
1033.59	102
1035.04	102
1036.49	102
1037.94	90
1039.39	92
1040.84	82
1042.29	84
1043.73	86
1045.18	84
1046.63	74
1048.08	68
1049.52	68
1050.97	58
1052.41	66
1053.86	64
1055.3	62
1056.75	60
1058.19	60
1059.64	64
1061.08	58
1062.52	60
1063.96	62
1065.41	68
1066.85	64
1068.29	64
1069.73	60
1071.17	64
1072.61	66
1074.05	64
1075.49	66
1076.93	66
1078.37	60
1079.81	64
1081.25	64
1082.68	64
1084.12	62
1085.56	64
1087	62
1088.43	64
1089.87	64
1091.3	72
1092.74	66
1094.17	68
1095.61	72
1097.04	72
1098.48	70
1099.91	74
1101.34	76
1102.78	84
1104.21	96
1105.64	112
1107.07	142
1108.5	186
1109.93	254
1111.36	320
1112.8	342
1114.22	334
1115.65	244
1117.08	190
1118.51	158
1119.94	132
1121.37	118
1122.8	106
1124.22	98
1125.65	96
1127.08	94
1128.5	84
1129.93	88
1131.35	80
1132.78	86
1134.2	84
1135.63	86
1137.05	84
1138.48	88
1139.9	82
1141.32	86
1142.75	90
1144.17	74
1145.59	72
1147.01	82
1148.43	68
1149.85	76
1151.27	88
1152.69	76
1154.11	78
1155.53	72
1156.95	82
1158.37	80
1159.79	86
1161.21	86
1162.62	90
1164.04	92
1165.46	88
1166.87	86
1168.29	84
1169.71	76
1171.12	84
1172.54	80
1173.95	88
1175.37	98
1176.78	102
1178.19	104
1179.61	124
1181.02	132
1182.43	168
1183.84	196
1185.26	240
1186.67	228
1188.08	222
1189.49	206
1190.9	186
1192.31	158
1193.72	164
1195.13	140
1196.54	146
1197.95	148
1199.36	160
1200.76	160
1202.17	162
1203.58	182
1204.99	180
1206.39	152
1207.8	140
1209.2	128
1210.61	102
1212.01	104
1213.42	98
1214.82	96
1216.23	86
1217.63	80
1219.03	90
1220.44	80
1221.84	90
1223.24	104
1224.64	108
1226.05	112
1227.45	122
1228.85	128
1230.25	134
1231.65	134
1233.05	122
1234.45	102
1235.85	104
1237.25	94
1238.64	98
1240.04	86
1241.44	86
1242.84	86
1244.23	82
1245.63	84
1247.03	78
1248.42	84
1249.82	84
1251.21	94
1252.61	90
1254	90
1255.4	80
1256.79	84
1258.19	92
1259.58	84
1260.97	92
1262.36	100
1263.76	90
1265.15	96
1266.54	88
1267.93	98
1269.32	86
1270.71	96
1272.1	94
1273.49	100
1274.88	100
1276.27	106
1277.66	116
1279.05	114
1280.43	106
1281.82	142
1283.21	126
1284.6	140
1285.98	148
1287.37	150
1288.75	156
1290.14	162
1291.53	184
1292.91	196
1294.29	216
1295.68	238
1297.06	286
1298.45	330
1299.83	416
1301.21	512
1302.59	658
1303.98	764
1305.36	776
1306.74	762
1308.12	612
1309.5	508
1310.88	402
1312.26	338
1313.64	290
1315.02	268
1316.4	250
1317.78	228
1319.16	198
1320.53	204
1321.91	176
1323.29	178
1324.67	178
1326.04	188
1327.42	174
1328.79	178
1330.17	182
1331.54	168
1332.92	164
1334.29	152
1335.67	148
1337.04	158
1338.42	148
1339.79	156
1341.16	144
1342.53	152
1343.91	158
1345.28	152
1346.65	152
1348.02	154
1349.39	164
1350.76	158
1352.13	168
1353.5	166
1354.87	166
1356.24	166
1357.61	158
1358.98	142
1360.34	140
1361.71	146
1363.08	146
1364.45	152
1365.81	162
1367.18	154
1368.54	148
1369.91	176
1371.28	190
1372.64	228
1374.01	276
1375.37	318
1376.73	382
1378.1	426
1379.46	444
1380.82	430
1382.19	416
1383.55	354
1384.91	318
1386.27	280
1387.63	230
1388.99	208
1390.35	172
1391.71	156
1393.07	170
1394.43	138
1395.79	138
1397.15	144
1398.51	132
1399.87	128
1401.23	134
1402.58	138
1403.94	128
1405.3	132
1406.65	132
1408.01	144
1409.37	138
1410.72	144
1412.08	138
1413.43	134
1414.79	150
1416.14	158
1417.49	150
1418.85	168
1420.2	154
1421.55	156
1422.91	164
1424.26	180
1425.61	192
1426.96	188
1428.31	180
1429.66	178
1431.01	196
1432.36	186
1433.71	194
1435.06	202
1436.41	204
1437.76	210
1439.11	216
1440.46	204
1441.81	206
1443.15	212
1444.5	198
1445.85	184
1447.19	182
1448.54	174
1449.89	180
1451.23	172
1452.58	174
1453.92	150
1455.27	168
1456.61	156
1457.95	156
1459.3	152
1460.64	154
1461.98	162
1463.33	148
1464.67	158
1466.01	152
1467.35	158
1468.69	138
1470.03	144
1471.37	150
1472.71	148
1474.05	140
1475.39	144
1476.73	152
1478.07	146
1479.41	142
1480.75	140
1482.09	142
1483.42	126
1484.76	138
1486.1	136
1487.43	124
1488.77	140
1490.11	128
1491.44	118
1492.78	124
1494.11	124
1495.45	116
1496.78	118
1498.12	128
1499.45	118
1500.78	116
1502.11	118
1503.45	112
1504.78	116
1506.11	118
1507.44	112
1508.77	122
1510.11	102
1511.44	110
1512.77	114
1514.1	106
1515.43	116
1516.76	112
1518.08	112
1519.41	112
1520.74	112
1522.07	100
1523.4	98
1524.72	106
1526.05	110
1527.38	102
1528.7	104
1530.03	116
1531.36	112
1532.68	116
1534.01	108
1535.33	102
1536.66	104
1537.98	112
1539.3	114
1540.63	104
1541.95	102
1543.27	106
1544.6	104
1545.92	110
1547.24	100
1548.56	106
1549.88	110
1551.2	110
1552.52	110
1553.84	102
1555.17	110
1556.48	104
1557.8	106
1559.12	110
1560.44	110
1561.76	110
1563.08	112
1564.4	108
1565.71	118
1567.03	114
1568.35	114
1569.66	112
1570.98	100
1572.29	128
1573.61	124
1574.93	130
1576.24	148
1577.55	140
1578.87	140
1580.18	150
1581.5	162
1582.81	164
1584.12	186
1585.43	196
1586.75	202
1588.06	202
1589.37	222
1590.68	252
1591.99	278
1593.3	302
1594.61	358
1595.92	358
1597.23	376
1598.54	430
1599.85	452
1601.16	468
1602.47	466
1603.78	458
1605.08	430
1606.39	420
1607.7	414
1609	378
1610.31	348
1611.62	300
1612.92	292
1614.23	282
1615.53	234
1616.84	220
1618.14	196
1619.45	174
1620.75	166
1622.06	156
1623.36	146
1624.66	134
1625.96	126
1627.27	114
1628.57	112
1629.87	108
1631.17	102
1632.47	108
1633.77	98
1635.07	102
1636.37	102
1637.67	94
1638.97	88
1640.27	88
1641.57	94
1642.87	92
1644.17	88
1645.47	90
1646.76	74
1648.06	86
1649.36	76
1650.66	84
1651.95	78
1653.25	88
1654.54	80
1655.84	84
1657.13	86
1658.43	82
1659.72	80
1661.02	76
1662.31	84
1663.6	84
1664.9	82
1666.19	84
1667.48	84
1668.78	80
1670.07	84
1671.36	68
1672.65	80
1673.94	78
1675.23	76
1676.52	76
1677.81	80
1679.1	76
1680.39	84
1681.68	76
1682.97	70
1684.26	72
1685.55	78
1686.83	82
1688.12	72
1689.41	78
1690.7	76
1691.98	78
1693.27	82
1694.55	86
1695.84	78
1697.13	82
1698.41	78
1699.69	78
1700.98	80
1702.26	86