File: Mixture_Classification/Jesse_Dataset_v2/Pure Raman/Polypropylene oxide/785nm/ps-ppo-6jan25-0,0000-map2_Y04_X03.txt
204.377	392
206.045	394
207.713	372
209.38	354
211.048	332
212.715	344
214.381	334
216.047	340
217.712	342
219.377	356
221.042	388
222.706	414
224.369	484
226.032	546
227.695	666
229.357	796
231.019	882
232.68	966
234.341	976
236.001	944
237.661	914
239.321	864
240.98	754
242.639	672
244.297	636
245.955	528
247.612	522
249.268	438
250.924	386
252.58	374
254.236	320
255.891	294
257.546	266
259.2	242
260.854	242
262.507	226
264.16	208
265.812	190
267.463	182
269.115	190
270.766	170
272.417	182
274.067	188
275.717	186
277.365	182
279.014	186
280.663	202
282.311	218
283.958	214
285.605	264
287.252	290
288.898	338
290.543	374
292.188	406
293.833	424
295.477	430
297.121	438
298.765	428
300.407	384
302.05	360
303.693	332
305.334	308
306.975	288
308.615	286
310.256	274
311.896	248
313.535	252
315.175	228
316.813	238
318.451	236
320.089	226
321.726	226
323.362	236
324.999	244
326.635	232
328.271	256
329.905	244
331.54	252
333.174	268
334.807	270
336.441	262
338.074	246
339.707	240
341.338	220
342.969	222
344.601	222
346.231	210
347.861	212
349.491	204
351.12	208
352.749	208
354.378	224
356.006	208
357.633	218
359.261	196
360.887	202
362.513	188
364.139	186
365.764	176
367.39	196
369.014	210
370.638	192
372.261	208
373.884	202
375.508	192
377.13	188
378.752	176
380.373	152
381.994	160
383.615	136
385.235	146
386.854	140
388.473	144
390.092	136
391.711	136
393.328	122
394.947	124
396.564	126
398.181	128
399.797	130
401.412	132
403.027	132
404.642	144
406.257	140
407.871	156
409.484	166
411.098	198
412.711	208
414.323	218
415.935	214
417.547	188
419.158	174
420.768	170
422.378	154
423.988	142
425.597	126
427.206	120
428.814	122
430.422	106
432.03	96
433.637	96
435.243	98
436.85	92
438.456	82
440.062	80
441.666	94
443.271	84
444.876	80
446.479	80
448.082	80
449.685	82
451.287	76
452.89	80
454.492	84
456.092	82
457.693	88
459.293	88
460.893	98
462.492	96
464.092	100
465.691	100
467.288	110
468.887	118
470.483	124
472.081	160
473.677	166
475.273	174
476.869	202
478.463	218
480.059	222
481.653	230
483.247	280
484.84	302
486.433	276
488.026	234
489.618	202
491.21	172
492.801	150
494.392	148
495.983	124
497.573	108
499.162	104
500.752	104
502.341	108
503.929	108
505.517	106
507.105	106
508.692	132
510.279	156
511.865	192
513.45	220
515.037	218
516.621	182
518.206	146
519.79	142
521.374	134
522.957	160
524.54	162
526.123	182
527.705	198
529.287	232
530.868	246
532.448	306
534.029	354
535.609	408
537.188	434
538.768	438
540.346	452
541.925	414
543.502	346
545.08	314
546.657	252
548.234	218
549.81	204
551.386	188
552.961	198
554.536	212
556.11	230
557.684	266
559.258	320
560.832	386
562.405	522
563.977	702
565.55	1008
567.12	1446
568.692	1944
570.263	2280
571.833	2290
573.403	1974
574.973	1456
576.542	990
578.111	664
579.679	488
581.247	378
582.815	336
584.382	340
585.948	326
587.514	300
589.081	288
590.645	276
592.211	250
593.775	268
595.339	246
596.904	236
598.466	198
600.03	170
601.592	146
603.154	134
604.715	120
606.277	108
607.838	98
609.398	100
610.958	92
612.518	96
614.077	94
615.636	96
617.194	86
618.753	94
620.31	106
621.867	90
623.424	116
624.98	118
626.537	122
628.092	126
629.647	134
631.202	144
632.756	144
634.31	148
635.864	148
637.417	158
638.969	144
640.521	136
642.074	124
643.625	124
645.176	114
646.726	108
648.276	106
649.827	92
651.376	90
652.925	90
654.473	74
656.021	80
657.569	80
659.117	76
660.664	76
662.21	74
663.757	72
665.302	64
666.847	60
668.392	68
669.937	66
671.481	64
673.025	66
674.568	64
676.111	64
677.653	62
679.195	66
680.737	54
682.279	62
683.82	58
685.36	60
686.9	68
688.44	62
689.979	60
691.517	62
693.056	64
694.594	58
696.132	64
697.669	64
699.206	60
700.742	62
702.278	62
703.814	60
705.35	64
706.884	72
708.419	82
709.953	78
711.487	88
713.019	90
714.552	96
716.085	98
717.617	100
719.148	88
720.68	76
722.21	84
723.741	76
725.271	78
726.8	68
728.33	70
729.858	78
731.387	80
732.915	74
734.443	74
735.97	74
737.497	102
739.023	90
740.549	88
742.075	92
743.6	106
745.125	108
746.65	148
748.173	138
749.697	130
751.22	120
752.743	124
754.266	116
755.788	108
757.309	102
758.831	82
760.351	82
761.871	72
763.392	70
764.912	70
766.431	70
767.95	74
769.468	62
770.986	68
772.504	70
774.022	66
775.538	78
777.055	78
778.571	84
780.086	80
781.602	80
783.117	72
784.632	80
786.146	78
787.659	70
789.173	70
790.685	56
792.198	72
793.71	68
795.222	58
796.733	76
798.244	64
799.755	70
801.265	68
802.775	74
804.284	68
805.793	78
807.302	74
808.81	74
810.318	68
811.826	76
813.333	78
814.84	74
816.346	80
817.851	76
819.357	90
820.862	94
822.367	104
823.871	114
825.376	132
826.878	172
828.382	228
829.885	334
831.387	478
832.889	574
834.391	558
835.892	396
837.392	222
838.893	166
840.393	128
841.893	108
843.392	104
844.891	96
846.389	102
847.888	98
849.386	102
850.882	90
852.38	94
853.876	80
855.372	82
856.868	88
858.363	76
859.858	84
861.353	86
862.847	74
864.341	72
865.834	66
867.328	72
868.82	66
870.313	64
871.805	68
873.296	68
874.787	66
876.278	62
877.769	62
879.258	62
880.748	58
882.237	68
883.726	64
885.214	60
886.702	62
888.19	64
889.677	62
891.164	64
892.651	54
894.137	60
895.623	54
897.108	58
898.593	58
900.077	58
901.562	54
903.046	56
904.529	60
906.012	56
907.495	60
908.977	56
910.459	52
911.941	54
913.422	58
914.903	56
916.383	52
917.863	50
919.343	58
920.822	62
922.301	60
923.779	66
925.257	56
926.735	64
928.213	62
929.69	70
931.166	64
932.643	56
934.119	68
935.594	70
937.069	70
938.543	76
940.018	76
941.492	80
942.966	82
944.439	86
945.911	94
947.384	110
948.856	120
950.328	142
951.799	186
953.27	196
954.741	244
956.21	298
957.68	338
959.15	356
960.619	358
962.088	354
963.556	328
965.023	300
966.491	262
967.958	220
969.425	206
970.891	170
972.357	166
973.824	130
975.288	116
976.754	94
978.218	94
979.682	78
981.146	80
982.609	82
984.072	74
985.534	74
986.997	68
988.459	78
989.92	66
991.382	84
992.842	74
994.302	68
995.763	64
997.222	64
998.681	72
1000.14	62
1001.6	64
1003.06	60
1004.52	66
1005.97	60
1007.43	66
1008.89	62
1010.34	68
1011.8	66
1013.25	68
1014.71	70
1016.16	58
1017.62	74
1019.07	64
1020.53	74
1021.98	76
1023.43	78
1024.89	86
1026.34	88
1027.79	78
1029.24	94
1030.69	88
1032.14	90
1033.59	100
1035.04	98
1036.49	90
1037.94	98
1039.39	96
1040.84	96
1042.29	86
1043.73	88
1045.18	80
1046.63	76
1048.08	72
1049.52	72
1050.97	62
1052.41	66
1053.86	70
1055.3	70
1056.75	72
1058.19	62
1059.64	64
1061.08	72
1062.52	58
1063.96	68
1065.41	60
1066.85	70
1068.29	66
1069.73	58
1071.17	66
1072.61	62
1074.05	62
1075.49	66
1076.93	62
1078.37	66
1079.81	64
1081.25	64
1082.68	68
1084.12	68
1085.56	62
1087	72
1088.43	64
1089.87	64
1091.3	68
1092.74	66
1094.17	68
1095.61	72
1097.04	66
1098.48	76
1099.91	72
1101.34	82
1102.78	82
1104.21	96
1105.64	116
1107.07	128
1108.5	202
1109.93	262
1111.36	324
1112.8	346
1114.22	318
1115.65	254
1117.08	178
1118.51	154
1119.94	140
1121.37	118
1122.8	106
1124.22	98
1125.65	92
1127.08	90
1128.5	86
1129.93	86
1131.35	88
1132.78	84
1134.2	70
1135.63	80
1137.05	80
1138.48	80
1139.9	78
1141.32	84
1142.75	90
1144.17	86
1145.59	80
1147.01	78
1148.43	72
1149.85	68
1151.27	70
1152.69	76
1154.11	78
1155.53	82
1156.95	80
1158.37	86
1159.79	84
1161.21	98
1162.62	90
1164.04	94
1165.46	90
1166.87	86
1168.29	82
1169.71	82
1171.12	86
1172.54	88
1173.95	96
1175.37	96
1176.78	100
1178.19	108
1179.61	122
1181.02	142
1182.43	174
1183.84	196
1185.26	218
1186.67	230
1188.08	230
1189.49	222
1190.9	192
1192.31	170
1193.72	160
1195.13	162
1196.54	150
1197.95	152
1199.36	154
1200.76	166
1202.17	180
1203.58	160
1204.99	166
1206.39	164
1207.8	150
1209.2	130
1210.61	120
1212.01	108
1213.42	96
1214.82	94
1216.23	84
1217.63	90
1219.03	88
1220.44	88
1221.84	96
1223.24	96
1224.64	98
1226.05	104
1227.45	114
1228.85	146
1230.25	128
1231.65	132
1233.05	124
1234.45	118
1235.85	104
1237.25	96
1238.64	92
1240.04	90
1241.44	88
1242.84	88
1244.23	92
1245.63	82
1247.03	94
1248.42	92
1249.82	92
1251.21	86
1252.61	88
1254	84
1255.4	88
1256.79	84
1258.19	76
1259.58	86
1260.97	92
1262.36	94
1263.76	86
1265.15	98
1266.54	94
1267.93	92
1269.32	106
1270.71	106
1272.1	98
1273.49	102
1274.88	102
1276.27	104
1277.66	114
1279.05	124
1280.43	124
1281.82	120
1283.21	124
1284.6	134
1285.98	142
1287.37	162
1288.75	160
1290.14	160
1291.53	178
1292.91	190
1294.29	218
1295.68	228
1297.06	284
1298.45	330
1299.83	416
1301.21	510
1302.59	638
1303.98	732
1305.36	784
1306.74	754
1308.12	672
1309.5	508
1310.88	412
1312.26	332
1313.64	304
1315.02	278
1316.4	214
1317.78	204
1319.16	200
1320.53	182
1321.91	180
1323.29	180
1324.67	184
1326.04	190
1327.42	172
1328.79	182
1330.17	178
1331.54	170
1332.92	162
1334.29	144
1335.67	150
1337.04	150
1338.42	154
1339.79	154
1341.16	138
1342.53	150
1343.91	148
1345.28	156
1346.65	160
1348.02	176
1349.39	170
1350.76	158
1352.13	172
1353.5	164
1354.87	156
1356.24	158
1357.61	154
1358.98	152
1360.34	148
1361.71	152
1363.08	148
1364.45	148
1365.81	156
1367.18	158
1368.54	168
1369.91	176
1371.28	194
1372.64	232
1374.01	284
1375.37	324
1376.73	402
1378.1	414
1379.46	410
1380.82	424
1382.19	386
1383.55	346
1384.91	324
1386.27	274
1387.63	244
1388.99	182
1390.35	182
1391.71	160
1393.07	168
1394.43	152
1395.79	150
1397.15	148
1398.51	134
1399.87	136
1401.23	132
1402.58	134
1403.94	142
1405.3	144
1406.65	132
1408.01	134
1409.37	122
1410.72	124
1412.08	140
1413.43	132
1414.79	144
1416.14	152
1417.49	150
1418.85	162
1420.2	158
1421.55	170
1422.91	164
1424.26	188
1425.61	168
1426.96	180
1428.31	178
1429.66	184
1431.01	194
1432.36	198
1433.71	200
1435.06	202
1436.41	202
1437.76	218
1439.11	222
1440.46	214
1441.81	222
1443.15	212
1444.5	190
1445.85	176
1447.19	170
1448.54	184
1449.89	180
1451.23	158
1452.58	176
1453.92	166
1455.27	158
1456.61	146
1457.95	162
1459.3	172
1460.64	168
1461.98	152
1463.33	148
1464.67	138
1466.01	136
1467.35	144
1468.69	158
1470.03	152
1471.37	144
1472.71	144
1474.05	144
1475.39	144
1476.73	142
1478.07	144
1479.41	144
1480.75	134
1482.09	140
1483.42	134
1484.76	138
1486.1	130
1487.43	126
1488.77	128
1490.11	112
1491.44	118
1492.78	114
1494.11	134
1495.45	132
1496.78	122
1498.12	110
1499.45	124
1500.78	110
1502.11	110
1503.45	114
1504.78	118
1506.11	116
1507.44	112
1508.77	118
1510.11	110
1511.44	114
1512.77	116
1514.1	102
1515.43	108
1516.76	104
1518.08	106
1519.41	112
1520.74	104
1522.07	112
1523.4	106
1524.72	112
1526.05	116
1527.38	104
1528.7	110
1530.03	100
1531.36	108
1532.68	98
1534.01	106
1535.33	110
1536.66	108
1537.98	104
1539.3	104
1540.63	110
1541.95	106
1543.27	106
1544.6	112
1545.92	104
1547.24	106
1548.56	98
1549.88	114
1551.2	106
1552.52	114
1553.84	108
1555.17	110
1556.48	106
1557.8	116
1559.12	98
1560.44	116
1561.76	108
1563.08	106
1564.4	110
1565.71	106
1567.03	118
1568.35	112
1569.66	106
1570.98	116
1572.29	118
1573.61	122
1574.93	134
1576.24	126
1577.55	136
1578.87	140
1580.18	150
1581.5	156
1582.81	162
1584.12	166
1585.43	190
1586.75	186
1588.06	230
1589.37	230
1590.68	250
1591.99	276
1593.3	316
1594.61	350
1595.92	350
1597.23	396
1598.54	416
1599.85	446
1601.16	458
1602.47	466
1603.78	458
1605.08	452
1606.39	434
1607.7	396
1609	362
1610.31	356
1611.62	310
1612.92	286
1614.23	274
1615.53	248
1616.84	244
1618.14	198
1619.45	178
1620.75	170
1622.06	166
1623.36	140
1624.66	138
1625.96	124
1627.27	130
1628.57	114
1629.87	104
1631.17	112
1632.47	98
1633.77	98
1635.07	100
1636.37	94
1637.67	90
1638.97	86
1640.27	86
1641.57	82
1642.87	92
1644.17	90
1645.47	90
1646.76	92
1648.06	86
1649.36	84
1650.66	80
1651.95	80
1653.25	72
1654.54	88
1655.84	82
1657.13	76
1658.43	78
1659.72	86
1661.02	84
1662.31	80
1663.6	80
1664.9	76
1666.19	74
1667.48	82
1668.78	84
1670.07	90
1671.36	80
1672.65	84
1673.94	74
1675.23	76
1676.52	78
1677.81	86
1679.1	72
1680.39	76
1681.68	76
1682.97	82
1684.26	80
1685.55	80
1686.83	80
1688.12	90
1689.41	82
1690.7	80
1691.98	78
1693.27	86
1694.55	78
1695.84	80
1697.13	80
1698.41	74
1699.69	78
1700.98	72
1702.26	72