File: Mixture_Classification/Jesse_Dataset_v2/Pure Raman/Polypropylene oxide/785nm/ps-ppo-6jan25-0,0000-map2_Y01_X08.txt
204.377	378
206.045	376
207.713	378
209.38	346
211.048	336
212.715	330
214.381	330
216.047	324
217.712	342
219.377	346
221.042	400
222.706	422
224.369	466
226.032	556
227.695	656
229.357	806
231.019	886
232.68	966
234.341	980
236.001	938
237.661	906
239.321	850
240.98	770
242.639	710
244.297	610
245.955	580
247.612	494
249.268	442
250.924	404
252.58	356
254.236	328
255.891	290
257.546	288
259.2	252
260.854	234
262.507	206
264.16	212
265.812	202
267.463	200
269.115	174
270.766	174
272.417	182
274.067	182
275.717	186
277.365	178
279.014	190
280.663	204
282.311	224
283.958	222
285.605	258
287.252	278
288.898	334
290.543	360
292.188	424
293.833	430
295.477	440
297.121	432
298.765	412
300.407	396
302.05	350
303.693	336
305.334	314
306.975	290
308.615	272
310.256	244
311.896	246
313.535	260
315.175	216
316.813	230
318.451	226
320.089	228
321.726	224
323.362	226
324.999	238
326.635	244
328.271	244
329.905	258
331.54	260
333.174	266
334.807	258
336.441	256
338.074	258
339.707	234
341.338	216
342.969	226
344.601	222
346.231	216
347.861	208
349.491	224
351.12	228
352.749	206
354.378	222
356.006	208
357.633	220
359.261	206
360.887	202
362.513	202
364.139	186
365.764	198
367.39	196
369.014	190
370.638	194
372.261	204
373.884	192
375.508	186
377.13	174
378.752	170
380.373	166
381.994	150
383.615	140
385.235	134
386.854	138
388.473	138
390.092	124
391.711	124
393.328	120
394.947	124
396.564	122
398.181	122
399.797	130
401.412	134
403.027	138
404.642	136
406.257	136
407.871	148
409.484	166
411.098	190
412.711	212
414.323	212
415.935	210
417.547	192
419.158	180
420.768	158
422.378	136
423.988	140
425.597	124
427.206	124
428.814	104
430.422	114
432.03	96
433.637	106
435.243	98
436.85	92
438.456	90
440.062	88
441.666	88
443.271	86
444.876	80
446.479	80
448.082	80
449.685	76
451.287	82
452.89	82
454.492	76
456.092	80
457.693	90
459.293	86
460.893	88
462.492	94
464.092	102
465.691	102
467.288	110
468.887	126
470.483	140
472.081	154
473.677	176
475.273	176
476.869	202
478.463	234
480.059	240
481.653	262
483.247	276
484.84	292
486.433	278
488.026	250
489.618	194
491.21	182
492.801	160
494.392	144
495.983	122
497.573	114
499.162	110
500.752	104
502.341	106
503.929	106
505.517	108
507.105	108
508.692	128
510.279	168
511.865	186
513.45	224
515.037	196
516.621	170
518.206	158
519.79	150
521.374	162
522.957	154
524.54	166
526.123	184
527.705	206
529.287	228
530.868	256
532.448	306
534.029	364
535.609	418
537.188	442
538.768	464
540.346	450
541.925	406
543.502	366
545.08	310
546.657	270
548.234	226
549.81	206
551.386	200
552.961	196
554.536	204
556.11	238
557.684	262
559.258	332
560.832	388
562.405	530
563.977	706
565.55	982
567.12	1448
568.692	1956
570.263	2306
571.833	2324
573.403	1992
574.973	1458
576.542	1018
578.111	708
579.679	490
581.247	404
582.815	352
584.382	340
585.948	328
587.514	304
589.081	294
590.645	262
592.211	264
593.775	254
595.339	260
596.904	236
598.466	216
600.03	180
601.592	158
603.154	138
604.715	116
606.277	106
607.838	102
609.398	92
610.958	96
612.518	96
614.077	94
615.636	100
617.194	94
618.753	104
620.31	98
621.867	96
623.424	118
624.98	122
626.537	122
628.092	134
629.647	122
631.202	144
632.756	146
634.31	138
635.864	152
637.417	154
638.969	140
640.521	146
642.074	136
643.625	126
645.176	118
646.726	112
648.276	106
649.827	98
651.376	102
652.925	88
654.473	76
656.021	80
657.569	82
659.117	84
660.664	62
662.21	76
663.757	70
665.302	74
666.847	72
668.392	60
669.937	62
671.481	64
673.025	70
674.568	64
676.111	58
677.653	64
679.195	60
680.737	60
682.279	66
683.82	66
685.36	56
686.9	66
688.44	62
689.979	58
691.517	62
693.056	56
694.594	58
696.132	68
697.669	58
699.206	68
700.742	68
702.278	62
703.814	66
705.35	64
706.884	68
708.419	72
709.953	78
711.487	84
713.019	102
714.552	104
716.085	98
717.617	92
719.148	86
720.68	76
722.21	68
723.741	72
725.271	76
726.8	76
728.33	76
729.858	80
731.387	80
732.915	78
734.443	86
735.97	66
737.497	86
739.023	86
740.549	96
742.075	102
743.6	106
745.125	120
746.65	142
748.173	136
749.697	130
751.22	116
752.743	124
754.266	116
755.788	118
757.309	108
758.831	86
760.351	92
761.871	78
763.392	62
764.912	70
766.431	66
767.95	68
769.468	70
770.986	64
772.504	74
774.022	76
775.538	76
777.055	78
778.571	78
780.086	82
781.602	84
783.117	80
784.632	74
786.146	72
787.659	70
789.173	66
790.685	68
792.198	66
793.71	68
795.222	70
796.733	68
798.244	66
799.755	64
801.265	64
802.775	72
804.284	70
805.793	68
807.302	76
808.81	82
810.318	76
811.826	74
813.333	76
814.84	78
816.346	78
817.851	74
819.357	98
820.862	90
822.367	108
823.871	116
825.376	138
826.878	166
828.382	234
829.885	340
831.387	466
832.889	582
834.391	538
835.892	404
837.392	262
838.893	180
840.393	140
841.893	114
843.392	110
844.891	98
846.389	104
847.888	100
849.386	96
850.882	102
852.38	86
853.876	80
855.372	88
856.868	82
858.363	88
859.858	78
861.353	86
862.847	84
864.341	78
865.834	70
867.328	76
868.82	70
870.313	72
871.805	64
873.296	68
874.787	68
876.278	58
877.769	66
879.258	66
880.748	62
882.237	64
883.726	64
885.214	62
886.702	54
888.19	60
889.677	58
891.164	58
892.651	58
894.137	60
895.623	60
897.108	56
898.593	60
900.077	58
901.562	58
903.046	56
904.529	48
906.012	56
907.495	58
908.977	60
910.459	62
911.941	54
913.422	58
914.903	58
916.383	54
917.863	56
919.343	64
920.822	60
922.301	64
923.779	60
925.257	56
926.735	58
928.213	62
929.69	58
931.166	64
932.643	64
934.119	62
935.594	72
937.069	70
938.543	72
940.018	78
941.492	88
942.966	92
944.439	86
945.911	104
947.384	102
948.856	120
950.328	138
951.799	174
953.27	206
954.741	252
956.21	296
957.68	334
959.15	386
960.619	372
962.088	372
963.556	324
965.023	286
966.491	262
967.958	226
969.425	202
970.891	188
972.357	162
973.824	132
975.288	112
976.754	112
978.218	102
979.682	86
981.146	78
982.609	84
984.072	74
985.534	74
986.997	68
988.459	74
989.92	74
991.382	74
992.842	72
994.302	74
995.763	64
997.222	62
998.681	66
1000.14	68
1001.6	60
1003.06	64
1004.52	60
1005.97	62
1007.43	68
1008.89	60
1010.34	72
1011.8	66
1013.25	66
1014.71	66
1016.16	68
1017.62	74
1019.07	74
1020.53	76
1021.98	76
1023.43	72
1024.89	86
1026.34	92
1027.79	80
1029.24	84
1030.69	100
1032.14	112
1033.59	104
1035.04	102
1036.49	100
1037.94	100
1039.39	96
1040.84	94
1042.29	88
1043.73	86
1045.18	76
1046.63	82
1048.08	76
1049.52	68
1050.97	74
1052.41	70
1053.86	68
1055.3	62
1056.75	68
1058.19	58
1059.64	60
1061.08	62
1062.52	62
1063.96	64
1065.41	62
1066.85	68
1068.29	68
1069.73	62
1071.17	62
1072.61	60
1074.05	70
1075.49	62
1076.93	62
1078.37	66
1079.81	66
1081.25	66
1082.68	62
1084.12	60
1085.56	56
1087	62
1088.43	68
1089.87	72
1091.3	70
1092.74	76
1094.17	68
1095.61	72
1097.04	66
1098.48	76
1099.91	72
1101.34	82
1102.78	82
1104.21	90
1105.64	114
1107.07	126
1108.5	184
1109.93	250
1111.36	312
1112.8	354
1114.22	334
1115.65	268
1117.08	208
1118.51	158
1119.94	132
1121.37	98
1122.8	112
1124.22	104
1125.65	96
1127.08	94
1128.5	84
1129.93	88
1131.35	92
1132.78	86
1134.2	80
1135.63	90
1137.05	78
1138.48	86
1139.9	88
1141.32	90
1142.75	96
1144.17	88
1145.59	82
1147.01	76
1148.43	72
1149.85	78
1151.27	76
1152.69	66
1154.11	72
1155.53	70
1156.95	84
1158.37	88
1159.79	88
1161.21	92
1162.62	88
1164.04	98
1165.46	92
1166.87	86
1168.29	88
1169.71	88
1171.12	90
1172.54	80
1173.95	98
1175.37	92
1176.78	94
1178.19	112
1179.61	120
1181.02	152
1182.43	166
1183.84	208
1185.26	224
1186.67	246
1188.08	238
1189.49	222
1190.9	184
1192.31	166
1193.72	160
1195.13	150
1196.54	156
1197.95	152
1199.36	172
1200.76	158
1202.17	172
1203.58	180
1204.99	156
1206.39	150
1207.8	146
1209.2	122
1210.61	118
1212.01	114
1213.42	98
1214.82	92
1216.23	92
1217.63	92
1219.03	92
1220.44	90
1221.84	90
1223.24	100
1224.64	102
1226.05	116
1227.45	120
1228.85	136
1230.25	128
1231.65	136
1233.05	128
1234.45	110
1235.85	96
1237.25	92
1238.64	86
1240.04	82
1241.44	82
1242.84	82
1244.23	90
1245.63	88
1247.03	84
1248.42	92
1249.82	88
1251.21	82
1252.61	88
1254	82
1255.4	84
1256.79	94
1258.19	88
1259.58	94
1260.97	94
1262.36	88
1263.76	94
1265.15	94
1266.54	96
1267.93	106
1269.32	98
1270.71	98
1272.1	98
1273.49	102
1274.88	94
1276.27	112
1277.66	118
1279.05	118
1280.43	122
1281.82	114
1283.21	136
1284.6	142
1285.98	142
1287.37	156
1288.75	158
1290.14	174
1291.53	180
1292.91	198
1294.29	190
1295.68	244
1297.06	286
1298.45	328
1299.83	448
1301.21	528
1302.59	664
1303.98	736
1305.36	804
1306.74	714
1308.12	656
1309.5	530
1310.88	410
1312.26	350
1313.64	304
1315.02	252
1316.4	256
1317.78	218
1319.16	218
1320.53	204
1321.91	174
1323.29	188
1324.67	182
1326.04	178
1327.42	186
1328.79	178
1330.17	180
1331.54	174
1332.92	162
1334.29	156
1335.67	146
1337.04	148
1338.42	160
1339.79	152
1341.16	150
1342.53	150
1343.91	134
1345.28	164
1346.65	150
1348.02	170
1349.39	180
1350.76	162
1352.13	150
1353.5	168
1354.87	156
1356.24	152
1357.61	154
1358.98	154
1360.34	148
1361.71	142
1363.08	148
1364.45	160
1365.81	148
1367.18	160
1368.54	160
1369.91	176
1371.28	188
1372.64	242
1374.01	272
1375.37	344
1376.73	392
1378.1	402
1379.46	424
1380.82	434
1382.19	396
1383.55	368
1384.91	314
1386.27	258
1387.63	230
1388.99	198
1390.35	170
1391.71	166
1393.07	150
1394.43	148
1395.79	136
1397.15	140
1398.51	128
1399.87	140
1401.23	126
1402.58	132
1403.94	134
1405.3	134
1406.65	146
1408.01	152
1409.37	138
1410.72	140
1412.08	148
1413.43	146
1414.79	154
1416.14	150
1417.49	152
1418.85	160
1420.2	172
1421.55	164
1422.91	176
1424.26	174
1425.61	164
1426.96	182
1428.31	188
1429.66	178
1431.01	204
1432.36	192
1433.71	194
1435.06	180
1436.41	198
1437.76	204
1439.11	218
1440.46	222
1441.81	202
1443.15	194
1444.5	202
1445.85	192
1447.19	178
1448.54	174
1449.89	162
1451.23	182
1452.58	168
1453.92	162
1455.27	168
1456.61	150
1457.95	164
1459.3	152
1460.64	166
1461.98	152
1463.33	164
1464.67	152
1466.01	152
1467.35	152
1468.69	154
1470.03	142
1471.37	148
1472.71	150
1474.05	162
1475.39	154
1476.73	148
1478.07	142
1479.41	148
1480.75	142
1482.09	142
1483.42	136
1484.76	134
1486.1	120
1487.43	120
1488.77	130
1490.11	126
1491.44	128
1492.78	134
1494.11	116
1495.45	116
1496.78	118
1498.12	116
1499.45	120
1500.78	122
1502.11	108
1503.45	120
1504.78	116
1506.11	116
1507.44	110
1508.77	120
1510.11	118
1511.44	122
1512.77	108
1514.1	104
1515.43	106
1516.76	114
1518.08	110
1519.41	106
1520.74	110
1522.07	104
1523.4	112
1524.72	108
1526.05	114
1527.38	104
1528.7	106
1530.03	110
1531.36	110
1532.68	108
1534.01	108
1535.33	110
1536.66	118
1537.98	108
1539.3	100
1540.63	108
1541.95	98
1543.27	104
1544.6	114
1545.92	114
1547.24	112
1548.56	104
1549.88	106
1551.2	108
1552.52	108
1553.84	106
1555.17	116
1556.48	102
1557.8	112
1559.12	106
1560.44	122
1561.76	110
1563.08	106
1564.4	102
1565.71	110
1567.03	114
1568.35	122
1569.66	118
1570.98	124
1572.29	114
1573.61	120
1574.93	120
1576.24	130
1577.55	150
1578.87	150
1580.18	144
1581.5	162
1582.81	162
1584.12	180
1585.43	192
1586.75	204
1588.06	218
1589.37	238
1590.68	262
1591.99	276
1593.3	314
1594.61	340
1595.92	368
1597.23	416
1598.54	406
1599.85	470
1601.16	444
1602.47	474
1603.78	474
1605.08	428
1606.39	436
1607.7	400
1609	392
1610.31	368
1611.62	334
1612.92	294
1614.23	274
1615.53	248
1616.84	222
1618.14	216
1619.45	180
1620.75	174
1622.06	142
1623.36	152
1624.66	142
1625.96	122
1627.27	118
1628.57	122
1629.87	114
1631.17	104
1632.47	96
1633.77	106
1635.07	102
1636.37	96
1637.67	88
1638.97	88
1640.27	96
1641.57	86
1642.87	94
1644.17	94
1645.47	94
1646.76	90
1648.06	84
1649.36	88
1650.66	96
1651.95	90
1653.25	80
1654.54	90
1655.84	82
1657.13	88
1658.43	82
1659.72	88
1661.02	82
1662.31	86
1663.6	82
1664.9	90
1666.19	72
1667.48	82
1668.78	82
1670.07	78
1671.36	76
1672.65	80
1673.94	76
1675.23	84
1676.52	80
1677.81	76
1679.1	80
1680.39	72
1681.68	80
1682.97	76
1684.26	74
1685.55	70
1686.83	78
1688.12	84
1689.41	84
1690.7	80
1691.98	76
1693.27	82
1694.55	94
1695.84	78
1697.13	84
1698.41	82
1699.69	80
1700.98	76
1702.26	84