File: Mixture_Classification/Jesse_Dataset_v2/Pure Raman/Polypropylene oxide/785nm/ps-ppo-6jan25-0,0000-map2_Y10_X10.txt
204.377	376
206.045	378
207.713	364
209.38	356
211.048	338
212.715	318
214.381	328
216.047	336
217.712	336
219.377	366
221.042	374
222.706	430
224.369	480
226.032	534
227.695	648
229.357	770
231.019	922
232.68	980
234.341	1008
236.001	960
237.661	910
239.321	852
240.98	766
242.639	714
244.297	626
245.955	576
247.612	504
249.268	472
250.924	416
252.58	352
254.236	318
255.891	276
257.546	262
259.2	258
260.854	222
262.507	200
264.16	198
265.812	190
267.463	186
269.115	186
270.766	182
272.417	182
274.067	174
275.717	170
277.365	192
279.014	186
280.663	196
282.311	226
283.958	234
285.605	268
287.252	284
288.898	346
290.543	358
292.188	398
293.833	452
295.477	426
297.121	428
298.765	428
300.407	376
302.05	350
303.693	332
305.334	308
306.975	292
308.615	288
310.256	246
311.896	244
313.535	228
315.175	244
316.813	218
318.451	230
320.089	228
321.726	220
323.362	238
324.999	230
326.635	240
328.271	234
329.905	244
331.54	266
333.174	258
334.807	248
336.441	258
338.074	228
339.707	230
341.338	220
342.969	218
344.601	200
346.231	224
347.861	208
349.491	206
351.12	206
352.749	206
354.378	218
356.006	212
357.633	188
359.261	208
360.887	192
362.513	186
364.139	180
365.764	194
367.39	176
369.014	198
370.638	190
372.261	210
373.884	206
375.508	182
377.13	184
378.752	160
380.373	152
381.994	144
383.615	146
385.235	142
386.854	134
388.473	136
390.092	138
391.711	142
393.328	126
394.947	130
396.564	124
398.181	132
399.797	122
401.412	126
403.027	128
404.642	140
406.257	146
407.871	152
409.484	174
411.098	192
412.711	194
414.323	216
415.935	198
417.547	192
419.158	194
420.768	158
422.378	136
423.988	136
425.597	122
427.206	128
428.814	116
430.422	110
432.03	98
433.637	98
435.243	92
436.85	90
438.456	90
440.062	84
441.666	90
443.271	80
444.876	82
446.479	82
448.082	84
449.685	84
451.287	82
452.89	78
454.492	80
456.092	84
457.693	82
459.293	84
460.893	90
462.492	84
464.092	96
465.691	102
467.288	110
468.887	132
470.483	138
472.081	146
473.677	160
475.273	190
476.869	198
478.463	236
480.059	242
481.653	252
483.247	264
484.84	292
486.433	274
488.026	252
489.618	194
491.21	174
492.801	156
494.392	142
495.983	128
497.573	100
499.162	104
500.752	106
502.341	108
503.929	100
505.517	106
507.105	114
508.692	138
510.279	166
511.865	192
513.45	218
515.037	190
516.621	160
518.206	138
519.79	142
521.374	146
522.957	158
524.54	162
526.123	182
527.705	204
529.287	212
530.868	268
532.448	316
534.029	362
535.609	412
537.188	424
538.768	440
540.346	440
541.925	424
543.502	350
545.08	292
546.657	256
548.234	208
549.81	206
551.386	200
552.961	192
554.536	212
556.11	234
557.684	254
559.258	308
560.832	404
562.405	554
563.977	722
565.55	1020
567.12	1450
568.692	1974
570.263	2332
571.833	2274
573.403	1966
574.973	1408
576.542	990
578.111	682
579.679	496
581.247	402
582.815	348
584.382	352
585.948	332
587.514	316
589.081	296
590.645	272
592.211	272
593.775	238
595.339	230
596.904	240
598.466	208
600.03	164
601.592	156
603.154	140
604.715	108
606.277	108
607.838	100
609.398	92
610.958	94
612.518	94
614.077	88
615.636	92
617.194	88
618.753	100
620.31	108
621.867	100
623.424	116
624.98	112
626.537	120
628.092	124
629.647	132
631.202	130
632.756	146
634.31	152
635.864	148
637.417	154
638.969	146
640.521	138
642.074	116
643.625	120
645.176	112
646.726	112
648.276	102
649.827	98
651.376	94
652.925	88
654.473	98
656.021	78
657.569	74
659.117	82
660.664	62
662.21	70
663.757	72
665.302	64
666.847	70
668.392	56
669.937	72
671.481	62
673.025	60
674.568	68
676.111	60
677.653	58
679.195	62
680.737	60
682.279	54
683.82	64
685.36	64
686.9	60
688.44	66
689.979	58
691.517	64
693.056	60
694.594	64
696.132	58
697.669	62
699.206	62
700.742	58
702.278	64
703.814	66
705.35	74
706.884	72
708.419	76
709.953	76
711.487	86
713.019	96
714.552	106
716.085	106
717.617	96
719.148	86
720.68	82
722.21	74
723.741	74
725.271	72
726.8	82
728.33	66
729.858	84
731.387	84
732.915	76
734.443	78
735.97	80
737.497	86
739.023	92
740.549	90
742.075	96
743.6	104
745.125	128
746.65	140
748.173	154
749.697	130
751.22	124
752.743	124
754.266	120
755.788	114
757.309	108
758.831	100
760.351	78
761.871	80
763.392	80
764.912	68
766.431	70
767.95	70
769.468	66
770.986	64
772.504	66
774.022	72
775.538	76
777.055	84
778.571	82
780.086	86
781.602	76
783.117	80
784.632	76
786.146	74
787.659	62
789.173	72
790.685	70
792.198	62
793.71	68
795.222	70
796.733	66
798.244	62
799.755	70
801.265	70
802.775	60
804.284	68
805.793	72
807.302	82
808.81	78
810.318	82
811.826	66
813.333	76
814.84	78
816.346	78
817.851	82
819.357	82
820.862	88
822.367	98
823.871	110
825.376	128
826.878	154
828.382	236
829.885	348
831.387	502
832.889	606
834.391	542
835.892	378
837.392	234
838.893	170
840.393	134
841.893	104
843.392	104
844.891	96
846.389	106
847.888	96
849.386	104
850.882	96
852.38	92
853.876	94
855.372	94
856.868	84
858.363	86
859.858	88
861.353	82
862.847	70
864.341	74
865.834	74
867.328	74
868.82	68
870.313	70
871.805	64
873.296	60
874.787	64
876.278	66
877.769	64
879.258	66
880.748	64
882.237	62
883.726	64
885.214	56
886.702	60
888.19	50
889.677	60
891.164	58
892.651	60
894.137	56
895.623	56
897.108	60
898.593	66
900.077	58
901.562	52
903.046	60
904.529	56
906.012	58
907.495	60
908.977	58
910.459	56
911.941	54
913.422	56
914.903	62
916.383	58
917.863	58
919.343	56
920.822	60
922.301	62
923.779	58
925.257	58
926.735	58
928.213	56
929.69	64
931.166	66
932.643	70
934.119	66
935.594	68
937.069	68
938.543	82
940.018	70
941.492	78
942.966	80
944.439	100
945.911	98
947.384	114
948.856	132
950.328	154
951.799	186
953.27	212
954.741	258
956.21	316
957.68	350
959.15	364
960.619	374
962.088	362
963.556	332
965.023	288
966.491	256
967.958	230
969.425	184
970.891	186
972.357	158
973.824	120
975.288	116
976.754	96
978.218	96
979.682	86
981.146	68
982.609	74
984.072	76
985.534	76
986.997	66
988.459	76
989.92	72
991.382	78
992.842	74
994.302	64
995.763	64
997.222	62
998.681	68
1000.14	66
1001.6	62
1003.06	62
1004.52	60
1005.97	62
1007.43	64
1008.89	66
1010.34	64
1011.8	68
1013.25	70
1014.71	66
1016.16	68
1017.62	70
1019.07	70
1020.53	66
1021.98	76
1023.43	74
1024.89	84
1026.34	86
1027.79	94
1029.24	86
1030.69	88
1032.14	94
1033.59	102
1035.04	98
1036.49	100
1037.94	92
1039.39	88
1040.84	90
1042.29	86
1043.73	84
1045.18	76
1046.63	72
1048.08	72
1049.52	72
1050.97	66
1052.41	72
1053.86	58
1055.3	72
1056.75	66
1058.19	64
1059.64	58
1061.08	66
1062.52	68
1063.96	66
1065.41	56
1066.85	66
1068.29	66
1069.73	62
1071.17	60
1072.61	66
1074.05	64
1075.49	62
1076.93	64
1078.37	60
1079.81	66
1081.25	72
1082.68	68
1084.12	60
1085.56	70
1087	58
1088.43	68
1089.87	70
1091.3	60
1092.74	64
1094.17	78
1095.61	66
1097.04	66
1098.48	66
1099.91	82
1101.34	78
1102.78	84
1104.21	96
1105.64	104
1107.07	156
1108.5	194
1109.93	262
1111.36	330
1112.8	344
1114.22	324
1115.65	256
1117.08	208
1118.51	136
1119.94	142
1121.37	116
1122.8	108
1124.22	100
1125.65	96
1127.08	92
1128.5	90
1129.93	88
1131.35	88
1132.78	84
1134.2	80
1135.63	80
1137.05	86
1138.48	86
1139.9	92
1141.32	90
1142.75	86
1144.17	84
1145.59	78
1147.01	78
1148.43	74
1149.85	80
1151.27	74
1152.69	74
1154.11	80
1155.53	68
1156.95	84
1158.37	88
1159.79	88
1161.21	88
1162.62	88
1164.04	96
1165.46	88
1166.87	84
1168.29	86
1169.71	82
1171.12	82
1172.54	90
1173.95	84
1175.37	100
1176.78	104
1178.19	116
1179.61	130
1181.02	144
1182.43	174
1183.84	184
1185.26	218
1186.67	244
1188.08	238
1189.49	204
1190.9	196
1192.31	156
1193.72	166
1195.13	162
1196.54	154
1197.95	164
1199.36	154
1200.76	164
1202.17	174
1203.58	168
1204.99	166
1206.39	156
1207.8	150
1209.2	124
1210.61	116
1212.01	104
1213.42	98
1214.82	98
1216.23	92
1217.63	88
1219.03	96
1220.44	90
1221.84	96
1223.24	102
1224.64	104
1226.05	126
1227.45	122
1228.85	128
1230.25	130
1231.65	130
1233.05	116
1234.45	112
1235.85	94
1237.25	96
1238.64	92
1240.04	100
1241.44	92
1242.84	82
1244.23	90
1245.63	78
1247.03	84
1248.42	88
1249.82	86
1251.21	90
1252.61	86
1254	86
1255.4	86
1256.79	88
1258.19	86
1259.58	96
1260.97	88
1262.36	90
1263.76	94
1265.15	98
1266.54	98
1267.93	94
1269.32	96
1270.71	102
1272.1	112
1273.49	94
1274.88	96
1276.27	102
1277.66	106
1279.05	114
1280.43	116
1281.82	128
1283.21	130
1284.6	138
1285.98	142
1287.37	152
1288.75	146
1290.14	162
1291.53	166
1292.91	200
1294.29	212
1295.68	246
1297.06	292
1298.45	346
1299.83	440
1301.21	530
1302.59	646
1303.98	770
1305.36	768
1306.74	750
1308.12	640
1309.5	498
1310.88	422
1312.26	326
1313.64	300
1315.02	266
1316.4	266
1317.78	226
1319.16	198
1320.53	190
1321.91	188
1323.29	188
1324.67	184
1326.04	180
1327.42	180
1328.79	178
1330.17	168
1331.54	170
1332.92	164
1334.29	160
1335.67	146
1337.04	132
1338.42	150
1339.79	150
1341.16	130
1342.53	156
1343.91	148
1345.28	160
1346.65	158
1348.02	150
1349.39	166
1350.76	170
1352.13	162
1353.5	160
1354.87	156
1356.24	160
1357.61	158
1358.98	154
1360.34	136
1361.71	148
1363.08	144
1364.45	146
1365.81	160
1367.18	152
1368.54	156
1369.91	168
1371.28	194
1372.64	230
1374.01	286
1375.37	332
1376.73	372
1378.1	424
1379.46	414
1380.82	434
1382.19	388
1383.55	346
1384.91	318
1386.27	254
1387.63	222
1388.99	196
1390.35	182
1391.71	154
1393.07	148
1394.43	146
1395.79	146
1397.15	136
1398.51	132
1399.87	132
1401.23	126
1402.58	136
1403.94	134
1405.3	114
1406.65	144
1408.01	136
1409.37	126
1410.72	140
1412.08	130
1413.43	138
1414.79	144
1416.14	144
1417.49	150
1418.85	150
1420.2	166
1421.55	172
1422.91	178
1424.26	178
1425.61	176
1426.96	180
1428.31	176
1429.66	204
1431.01	196
1432.36	182
1433.71	192
1435.06	194
1436.41	218
1437.76	212
1439.11	216
1440.46	214
1441.81	200
1443.15	216
1444.5	206
1445.85	180
1447.19	190
1448.54	174
1449.89	170
1451.23	170
1452.58	174
1453.92	154
1455.27	168
1456.61	164
1457.95	156
1459.3	140
1460.64	154
1461.98	152
1463.33	158
1464.67	138
1466.01	148
1467.35	148
1468.69	148
1470.03	136
1471.37	142
1472.71	144
1474.05	148
1475.39	146
1476.73	150
1478.07	144
1479.41	148
1480.75	132
1482.09	138
1483.42	132
1484.76	132
1486.1	126
1487.43	116
1488.77	130
1490.11	122
1491.44	116
1492.78	118
1494.11	112
1495.45	118
1496.78	118
1498.12	114
1499.45	102
1500.78	118
1502.11	118
1503.45	112
1504.78	114
1506.11	120
1507.44	116
1508.77	114
1510.11	110
1511.44	106
1512.77	120
1514.1	112
1515.43	116
1516.76	116
1518.08	104
1519.41	110
1520.74	112
1522.07	112
1523.4	100
1524.72	110
1526.05	112
1527.38	112
1528.7	114
1530.03	110
1531.36	108
1532.68	106
1534.01	108
1535.33	96
1536.66	112
1537.98	98
1539.3	98
1540.63	98
1541.95	104
1543.27	106
1544.6	116
1545.92	112
1547.24	108
1548.56	106
1549.88	116
1551.2	104
1552.52	120
1553.84	100
1555.17	100
1556.48	100
1557.8	104
1559.12	106
1560.44	116
1561.76	104
1563.08	114
1564.4	104
1565.71	112
1567.03	118
1568.35	126
1569.66	114
1570.98	120
1572.29	122
1573.61	136
1574.93	126
1576.24	142
1577.55	136
1578.87	150
1580.18	128
1581.5	154
1582.81	166
1584.12	170
1585.43	188
1586.75	190
1588.06	228
1589.37	234
1590.68	264
1591.99	278
1593.3	296
1594.61	344
1595.92	364
1597.23	410
1598.54	456
1599.85	456
1601.16	468
1602.47	474
1603.78	472
1605.08	446
1606.39	434
1607.7	396
1609	356
1610.31	350
1611.62	306
1612.92	290
1614.23	274
1615.53	238
1616.84	242
1618.14	200
1619.45	202
1620.75	160
1622.06	156
1623.36	144
1624.66	138
1625.96	126
1627.27	116
1628.57	106
1629.87	112
1631.17	110
1632.47	108
1633.77	98
1635.07	100
1636.37	94
1637.67	90
1638.97	96
1640.27	94
1641.57	88
1642.87	96
1644.17	100
1645.47	86
1646.76	80
1648.06	84
1649.36	78
1650.66	78
1651.95	82
1653.25	84
1654.54	76
1655.84	90
1657.13	78
1658.43	76
1659.72	84
1661.02	78
1662.31	76
1663.6	76
1664.9	78
1666.19	82
1667.48	78
1668.78	78
1670.07	78
1671.36	74
1672.65	84
1673.94	80
1675.23	72
1676.52	70
1677.81	74
1679.1	78
1680.39	76
1681.68	68
1682.97	84
1684.26	86
1685.55	74
1686.83	86
1688.12	74
1689.41	66
1690.7	68
1691.98	74
1693.27	80
1694.55	74
1695.84	80
1697.13	74
1698.41	74
1699.69	86
1700.98	76
1702.26	82