File: Mixture_Classification/Jesse_Dataset_v2/Pure Raman/Polypropylene oxide/785nm/ps-ppo-6jan25-0,0000-map2_Y05_X05.txt
204.377	374
206.045	374
207.713	358
209.38	338
211.048	342
212.715	324
214.381	308
216.047	304
217.712	324
219.377	334
221.042	378
222.706	400
224.369	472
226.032	558
227.695	652
229.357	772
231.019	902
232.68	962
234.341	984
236.001	938
237.661	920
239.321	854
240.98	726
242.639	684
244.297	602
245.955	542
247.612	496
249.268	432
250.924	382
252.58	346
254.236	302
255.891	296
257.546	266
259.2	238
260.854	206
262.507	214
264.16	200
265.812	196
267.463	180
269.115	168
270.766	172
272.417	168
274.067	162
275.717	182
277.365	180
279.014	182
280.663	200
282.311	210
283.958	222
285.605	244
287.252	280
288.898	324
290.543	368
292.188	398
293.833	426
295.477	430
297.121	424
298.765	394
300.407	382
302.05	348
303.693	320
305.334	298
306.975	284
308.615	266
310.256	260
311.896	232
313.535	228
315.175	230
316.813	220
318.451	206
320.089	218
321.726	222
323.362	212
324.999	228
326.635	228
328.271	224
329.905	254
331.54	260
333.174	248
334.807	258
336.441	250
338.074	232
339.707	230
341.338	220
342.969	196
344.601	208
346.231	194
347.861	210
349.491	204
351.12	212
352.749	202
354.378	194
356.006	210
357.633	206
359.261	186
360.887	188
362.513	184
364.139	184
365.764	178
367.39	178
369.014	192
370.638	180
372.261	194
373.884	184
375.508	186
377.13	168
378.752	156
380.373	150
381.994	140
383.615	134
385.235	150
386.854	134
388.473	126
390.092	130
391.711	128
393.328	130
394.947	116
396.564	122
398.181	112
399.797	110
401.412	122
403.027	124
404.642	128
406.257	132
407.871	138
409.484	176
411.098	180
412.711	206
414.323	200
415.935	196
417.547	164
419.158	170
420.768	164
422.378	138
423.988	136
425.597	128
427.206	108
428.814	108
430.422	106
432.03	98
433.637	98
435.243	92
436.85	86
438.456	84
440.062	84
441.666	70
443.271	72
444.876	74
446.479	74
448.082	64
449.685	70
451.287	66
452.89	70
454.492	78
456.092	70
457.693	76
459.293	80
460.893	82
462.492	84
464.092	84
465.691	102
467.288	112
468.887	112
470.483	130
472.081	144
473.677	158
475.273	194
476.869	198
478.463	220
480.059	232
481.653	258
483.247	270
484.84	268
486.433	270
488.026	234
489.618	198
491.21	174
492.801	140
494.392	144
495.983	118
497.573	102
499.162	96
500.752	92
502.341	96
503.929	92
505.517	94
507.105	114
508.692	126
510.279	144
511.865	198
513.45	218
515.037	186
516.621	158
518.206	144
519.79	144
521.374	130
522.957	158
524.54	166
526.123	180
527.705	190
529.287	220
530.868	250
532.448	308
534.029	348
535.609	398
537.188	436
538.768	436
540.346	420
541.925	402
543.502	352
545.08	300
546.657	242
548.234	228
549.81	198
551.386	170
552.961	194
554.536	202
556.11	220
557.684	266
559.258	304
560.832	384
562.405	528
563.977	712
565.55	1018
567.12	1434
568.692	1914
570.263	2260
571.833	2296
573.403	1934
574.973	1426
576.542	988
578.111	680
579.679	476
581.247	358
582.815	354
584.382	338
585.948	340
587.514	296
589.081	268
590.645	260
592.211	248
593.775	246
595.339	234
596.904	230
598.466	190
600.03	168
601.592	140
603.154	116
604.715	118
606.277	108
607.838	92
609.398	88
610.958	94
612.518	84
614.077	90
615.636	88
617.194	86
618.753	92
620.31	94
621.867	92
623.424	102
624.98	104
626.537	114
628.092	118
629.647	116
631.202	136
632.756	136
634.31	154
635.864	152
637.417	142
638.969	136
640.521	130
642.074	122
643.625	112
645.176	102
646.726	104
648.276	102
649.827	90
651.376	88
652.925	86
654.473	76
656.021	84
657.569	84
659.117	70
660.664	78
662.21	68
663.757	68
665.302	68
666.847	62
668.392	60
669.937	64
671.481	52
673.025	58
674.568	58
676.111	58
677.653	62
679.195	62
680.737	52
682.279	58
683.82	54
685.36	62
686.9	60
688.44	58
689.979	54
691.517	50
693.056	54
694.594	48
696.132	54
697.669	56
699.206	58
700.742	56
702.278	58
703.814	54
705.35	66
706.884	66
708.419	82
709.953	66
711.487	82
713.019	90
714.552	90
716.085	86
717.617	86
719.148	82
720.68	72
722.21	76
723.741	70
725.271	66
726.8	68
728.33	70
729.858	70
731.387	76
732.915	72
734.443	78
735.97	78
737.497	84
739.023	86
740.549	78
742.075	94
743.6	102
745.125	110
746.65	142
748.173	134
749.697	120
751.22	118
752.743	106
754.266	108
755.788	110
757.309	100
758.831	92
760.351	82
761.871	70
763.392	60
764.912	70
766.431	62
767.95	64
769.468	62
770.986	66
772.504	60
774.022	68
775.538	74
777.055	74
778.571	78
780.086	72
781.602	74
783.117	72
784.632	66
786.146	76
787.659	64
789.173	70
790.685	66
792.198	64
793.71	56
795.222	62
796.733	58
798.244	66
799.755	68
801.265	60
802.775	66
804.284	74
805.793	70
807.302	56
808.81	78
810.318	72
811.826	72
813.333	74
814.84	74
816.346	78
817.851	74
819.357	80
820.862	84
822.367	94
823.871	102
825.376	134
826.878	170
828.382	234
829.885	342
831.387	478
832.889	572
834.391	544
835.892	374
837.392	242
838.893	154
840.393	132
841.893	118
843.392	88
844.891	88
846.389	94
847.888	88
849.386	100
850.882	90
852.38	80
853.876	88
855.372	84
856.868	80
858.363	82
859.858	80
861.353	72
862.847	78
864.341	66
865.834	68
867.328	70
868.82	66
870.313	66
871.805	64
873.296	58
874.787	62
876.278	50
877.769	62
879.258	60
880.748	52
882.237	58
883.726	54
885.214	56
886.702	56
888.19	64
889.677	60
891.164	58
892.651	50
894.137	58
895.623	50
897.108	58
898.593	56
900.077	54
901.562	48
903.046	52
904.529	50
906.012	54
907.495	64
908.977	56
910.459	52
911.941	56
913.422	58
914.903	60
916.383	52
917.863	54
919.343	62
920.822	58
922.301	56
923.779	54
925.257	52
926.735	60
928.213	56
929.69	62
931.166	54
932.643	62
934.119	64
935.594	66
937.069	66
938.543	64
940.018	72
941.492	80
942.966	84
944.439	94
945.911	94
947.384	98
948.856	120
950.328	152
951.799	170
953.27	198
954.741	244
956.21	306
957.68	340
959.15	370
960.619	354
962.088	364
963.556	304
965.023	292
966.491	240
967.958	212
969.425	196
970.891	170
972.357	152
973.824	120
975.288	110
976.754	102
978.218	88
979.682	84
981.146	76
982.609	72
984.072	66
985.534	66
986.997	60
988.459	68
989.92	78
991.382	70
992.842	70
994.302	66
995.763	64
997.222	64
998.681	52
1000.14	56
1001.6	62
1003.06	58
1004.52	64
1005.97	56
1007.43	54
1008.89	56
1010.34	56
1011.8	62
1013.25	68
1014.71	62
1016.16	68
1017.62	68
1019.07	72
1020.53	72
1021.98	72
1023.43	90
1024.89	88
1026.34	76
1027.79	82
1029.24	94
1030.69	98
1032.14	90
1033.59	94
1035.04	92
1036.49	102
1037.94	84
1039.39	84
1040.84	88
1042.29	86
1043.73	78
1045.18	78
1046.63	70
1048.08	70
1049.52	68
1050.97	68
1052.41	62
1053.86	50
1055.3	56
1056.75	64
1058.19	54
1059.64	64
1061.08	60
1062.52	60
1063.96	62
1065.41	62
1066.85	64
1068.29	56
1069.73	60
1071.17	56
1072.61	64
1074.05	62
1075.49	58
1076.93	54
1078.37	62
1079.81	66
1081.25	68
1082.68	62
1084.12	58
1085.56	66
1087	60
1088.43	68
1089.87	58
1091.3	68
1092.74	66
1094.17	64
1095.61	66
1097.04	68
1098.48	76
1099.91	74
1101.34	76
1102.78	92
1104.21	92
1105.64	106
1107.07	148
1108.5	184
1109.93	244
1111.36	330
1112.8	360
1114.22	300
1115.65	250
1117.08	206
1118.51	144
1119.94	138
1121.37	108
1122.8	108
1124.22	98
1125.65	88
1127.08	86
1128.5	88
1129.93	82
1131.35	80
1132.78	72
1134.2	80
1135.63	84
1137.05	76
1138.48	82
1139.9	84
1141.32	84
1142.75	78
1144.17	84
1145.59	74
1147.01	78
1148.43	74
1149.85	72
1151.27	72
1152.69	66
1154.11	80
1155.53	76
1156.95	78
1158.37	82
1159.79	86
1161.21	96
1162.62	86
1164.04	96
1165.46	80
1166.87	82
1168.29	80
1169.71	74
1171.12	84
1172.54	86
1173.95	88
1175.37	102
1176.78	100
1178.19	110
1179.61	122
1181.02	158
1182.43	174
1183.84	208
1185.26	224
1186.67	230
1188.08	242
1189.49	204
1190.9	172
1192.31	150
1193.72	156
1195.13	146
1196.54	160
1197.95	150
1199.36	158
1200.76	162
1202.17	166
1203.58	180
1204.99	156
1206.39	160
1207.8	148
1209.2	122
1210.61	110
1212.01	96
1213.42	94
1214.82	92
1216.23	82
1217.63	86
1219.03	84
1220.44	94
1221.84	94
1223.24	90
1224.64	106
1226.05	106
1227.45	114
1228.85	122
1230.25	132
1231.65	120
1233.05	122
1234.45	114
1235.85	92
1237.25	96
1238.64	96
1240.04	82
1241.44	84
1242.84	72
1244.23	82
1245.63	76
1247.03	82
1248.42	76
1249.82	82
1251.21	86
1252.61	80
1254	90
1255.4	86
1256.79	80
1258.19	88
1259.58	74
1260.97	86
1262.36	90
1263.76	92
1265.15	96
1266.54	90
1267.93	92
1269.32	92
1270.71	102
1272.1	94
1273.49	94
1274.88	96
1276.27	100
1277.66	110
1279.05	118
1280.43	114
1281.82	130
1283.21	122
1284.6	134
1285.98	140
1287.37	142
1288.75	160
1290.14	152
1291.53	180
1292.91	194
1294.29	208
1295.68	248
1297.06	296
1298.45	350
1299.83	418
1301.21	522
1302.59	632
1303.98	734
1305.36	800
1306.74	744
1308.12	634
1309.5	516
1310.88	396
1312.26	342
1313.64	288
1315.02	244
1316.4	238
1317.78	212
1319.16	198
1320.53	198
1321.91	176
1323.29	176
1324.67	172
1326.04	180
1327.42	174
1328.79	176
1330.17	172
1331.54	164
1332.92	154
1334.29	154
1335.67	136
1337.04	148
1338.42	134
1339.79	142
1341.16	134
1342.53	144
1343.91	152
1345.28	146
1346.65	154
1348.02	164
1349.39	166
1350.76	176
1352.13	162
1353.5	160
1354.87	150
1356.24	154
1357.61	140
1358.98	142
1360.34	144
1361.71	146
1363.08	136
1364.45	154
1365.81	152
1367.18	152
1368.54	160
1369.91	166
1371.28	184
1372.64	226
1374.01	270
1375.37	330
1376.73	378
1378.1	402
1379.46	416
1380.82	410
1382.19	398
1383.55	352
1384.91	286
1386.27	280
1387.63	218
1388.99	186
1390.35	166
1391.71	154
1393.07	132
1394.43	136
1395.79	136
1397.15	132
1398.51	136
1399.87	124
1401.23	118
1402.58	126
1403.94	140
1405.3	124
1406.65	124
1408.01	136
1409.37	130
1410.72	134
1412.08	130
1413.43	136
1414.79	146
1416.14	140
1417.49	150
1418.85	150
1420.2	164
1421.55	172
1422.91	176
1424.26	166
1425.61	178
1426.96	174
1428.31	178
1429.66	170
1431.01	194
1432.36	198
1433.71	194
1435.06	198
1436.41	200
1437.76	212
1439.11	186
1440.46	214
1441.81	186
1443.15	208
1444.5	196
1445.85	194
1447.19	188
1448.54	172
1449.89	178
1451.23	168
1452.58	156
1453.92	148
1455.27	148
1456.61	152
1457.95	150
1459.3	152
1460.64	142
1461.98	152
1463.33	162
1464.67	146
1466.01	154
1467.35	136
1468.69	140
1470.03	138
1471.37	150
1472.71	148
1474.05	136
1475.39	148
1476.73	154
1478.07	134
1479.41	144
1480.75	124
1482.09	138
1483.42	128
1484.76	122
1486.1	138
1487.43	108
1488.77	114
1490.11	130
1491.44	114
1492.78	120
1494.11	112
1495.45	116
1496.78	112
1498.12	108
1499.45	118
1500.78	108
1502.11	110
1503.45	110
1504.78	110
1506.11	116
1507.44	108
1508.77	118
1510.11	116
1511.44	112
1512.77	114
1514.1	110
1515.43	106
1516.76	106
1518.08	108
1519.41	106
1520.74	106
1522.07	102
1523.4	94
1524.72	106
1526.05	102
1527.38	104
1528.7	104
1530.03	106
1531.36	100
1532.68	104
1534.01	100
1535.33	106
1536.66	102
1537.98	104
1539.3	102
1540.63	104
1541.95	104
1543.27	112
1544.6	100
1545.92	106
1547.24	106
1548.56	106
1549.88	104
1551.2	98
1552.52	102
1553.84	106
1555.17	108
1556.48	108
1557.8	108
1559.12	98
1560.44	110
1561.76	106
1563.08	98
1564.4	104
1565.71	106
1567.03	116
1568.35	110
1569.66	116
1570.98	112
1572.29	128
1573.61	128
1574.93	124
1576.24	130
1577.55	116
1578.87	138
1580.18	162
1581.5	150
1582.81	156
1584.12	156
1585.43	182
1586.75	186
1588.06	216
1589.37	240
1590.68	254
1591.99	276
1593.3	294
1594.61	316
1595.92	372
1597.23	388
1598.54	414
1599.85	428
1601.16	470
1602.47	466
1603.78	458
1605.08	446
1606.39	414
1607.7	410
1609	360
1610.31	362
1611.62	306
1612.92	280
1614.23	266
1615.53	234
1616.84	220
1618.14	198
1619.45	166
1620.75	170
1622.06	154
1623.36	146
1624.66	134
1625.96	126
1627.27	118
1628.57	108
1629.87	114
1631.17	102
1632.47	102
1633.77	92
1635.07	92
1636.37	94
1637.67	98
1638.97	100
1640.27	88
1641.57	86
1642.87	86
1644.17	86
1645.47	92
1646.76	76
1648.06	80
1649.36	84
1650.66	80
1651.95	92
1653.25	72
1654.54	82
1655.84	70
1657.13	84
1658.43	78
1659.72	82
1661.02	80
1662.31	84
1663.6	76
1664.9	78
1666.19	74
1667.48	78
1668.78	78
1670.07	72
1671.36	74
1672.65	84
1673.94	72
1675.23	70
1676.52	74
1677.81	80
1679.1	70
1680.39	80
1681.68	82
1682.97	72
1684.26	68
1685.55	70
1686.83	78
1688.12	86
1689.41	80
1690.7	82
1691.98	84
1693.27	78
1694.55	78
1695.84	80
1697.13	76
1698.41	76
1699.69	76
1700.98	74
1702.26	80