File: Mixture_Classification/Jesse_Dataset_v2/Pure Raman/Polypropylene oxide/785nm/ps-ppo-6jan25-0,0000-map2_Y10_X09.txt
204.377	376
206.045	344
207.713	368
209.38	344
211.048	316
212.715	328
214.381	304
216.047	316
217.712	322
219.377	338
221.042	376
222.706	386
224.369	470
226.032	526
227.695	646
229.357	770
231.019	888
232.68	960
234.341	970
236.001	932
237.661	878
239.321	800
240.98	722
242.639	670
244.297	606
245.955	568
247.612	484
249.268	456
250.924	388
252.58	348
254.236	326
255.891	280
257.546	260
259.2	240
260.854	220
262.507	202
264.16	200
265.812	188
267.463	182
269.115	186
270.766	168
272.417	168
274.067	178
275.717	178
277.365	184
279.014	176
280.663	184
282.311	206
283.958	222
285.605	254
287.252	286
288.898	306
290.543	380
292.188	390
293.833	438
295.477	434
297.121	436
298.765	402
300.407	372
302.05	330
303.693	312
305.334	296
306.975	280
308.615	282
310.256	258
311.896	258
313.535	232
315.175	228
316.813	232
318.451	212
320.089	230
321.726	234
323.362	222
324.999	226
326.635	238
328.271	228
329.905	254
331.54	254
333.174	252
334.807	238
336.441	236
338.074	244
339.707	212
341.338	208
342.969	212
344.601	196
346.231	200
347.861	202
349.491	196
351.12	198
352.749	202
354.378	218
356.006	212
357.633	206
359.261	202
360.887	188
362.513	182
364.139	166
365.764	182
367.39	178
369.014	190
370.638	194
372.261	194
373.884	198
375.508	180
377.13	172
378.752	164
380.373	154
381.994	140
383.615	128
385.235	136
386.854	128
388.473	112
390.092	132
391.711	122
393.328	120
394.947	124
396.564	118
398.181	126
399.797	124
401.412	132
403.027	132
404.642	122
406.257	136
407.871	164
409.484	154
411.098	188
412.711	202
414.323	210
415.935	200
417.547	192
419.158	170
420.768	156
422.378	134
423.988	132
425.597	118
427.206	110
428.814	114
430.422	104
432.03	100
433.637	96
435.243	92
436.85	86
438.456	94
440.062	84
441.666	78
443.271	86
444.876	80
446.479	78
448.082	78
449.685	74
451.287	74
452.89	80
454.492	84
456.092	82
457.693	82
459.293	74
460.893	86
462.492	86
464.092	86
465.691	100
467.288	116
468.887	114
470.483	144
472.081	164
473.677	174
475.273	184
476.869	198
478.463	222
480.059	228
481.653	248
483.247	266
484.84	288
486.433	274
488.026	216
489.618	204
491.21	168
492.801	152
494.392	140
495.983	118
497.573	110
499.162	110
500.752	104
502.341	92
503.929	92
505.517	102
507.105	106
508.692	122
510.279	168
511.865	194
513.45	216
515.037	184
516.621	166
518.206	142
519.79	146
521.374	140
522.957	162
524.54	146
526.123	174
527.705	200
529.287	228
530.868	266
532.448	292
534.029	352
535.609	394
537.188	428
538.768	410
540.346	434
541.925	414
543.502	344
545.08	306
546.657	242
548.234	216
549.81	192
551.386	186
552.961	196
554.536	208
556.11	220
557.684	248
559.258	322
560.832	398
562.405	512
563.977	706
565.55	990
567.12	1426
568.692	1926
570.263	2272
571.833	2266
573.403	1890
574.973	1398
576.542	952
578.111	664
579.679	504
581.247	378
582.815	358
584.382	338
585.948	310
587.514	296
589.081	282
590.645	274
592.211	248
593.775	254
595.339	250
596.904	228
598.466	198
600.03	172
601.592	150
603.154	126
604.715	112
606.277	108
607.838	96
609.398	92
610.958	90
612.518	94
614.077	90
615.636	88
617.194	86
618.753	92
620.31	90
621.867	100
623.424	108
624.98	112
626.537	116
628.092	140
629.647	134
631.202	142
632.756	136
634.31	154
635.864	144
637.417	126
638.969	148
640.521	132
642.074	128
643.625	118
645.176	108
646.726	98
648.276	100
649.827	80
651.376	90
652.925	82
654.473	82
656.021	80
657.569	76
659.117	80
660.664	70
662.21	64
663.757	66
665.302	66
666.847	66
668.392	68
669.937	58
671.481	66
673.025	70
674.568	56
676.111	60
677.653	60
679.195	60
680.737	58
682.279	64
683.82	60
685.36	64
686.9	66
688.44	60
689.979	60
691.517	58
693.056	48
694.594	58
696.132	54
697.669	50
699.206	60
700.742	60
702.278	54
703.814	58
705.35	64
706.884	68
708.419	70
709.953	80
711.487	82
713.019	92
714.552	102
716.085	92
717.617	88
719.148	88
720.68	84
722.21	78
723.741	78
725.271	72
726.8	70
728.33	76
729.858	76
731.387	68
732.915	78
734.443	80
735.97	82
737.497	84
739.023	88
740.549	84
742.075	100
743.6	98
745.125	118
746.65	140
748.173	136
749.697	126
751.22	108
752.743	112
754.266	122
755.788	114
757.309	92
758.831	88
760.351	78
761.871	70
763.392	68
764.912	68
766.431	72
767.95	68
769.468	70
770.986	68
772.504	66
774.022	76
775.538	72
777.055	78
778.571	76
780.086	82
781.602	68
783.117	78
784.632	76
786.146	70
787.659	66
789.173	72
790.685	60
792.198	68
793.71	70
795.222	62
796.733	66
798.244	64
799.755	68
801.265	60
802.775	68
804.284	66
805.793	72
807.302	68
808.81	66
810.318	66
811.826	80
813.333	72
814.84	72
816.346	78
817.851	74
819.357	86
820.862	90
822.367	96
823.871	110
825.376	130
826.878	162
828.382	232
829.885	330
831.387	480
832.889	560
834.391	520
835.892	364
837.392	236
838.893	162
840.393	124
841.893	120
843.392	90
844.891	86
846.389	92
847.888	92
849.386	90
850.882	86
852.38	90
853.876	88
855.372	84
856.868	84
858.363	78
859.858	80
861.353	82
862.847	76
864.341	68
865.834	68
867.328	72
868.82	64
870.313	70
871.805	60
873.296	60
874.787	66
876.278	62
877.769	60
879.258	66
880.748	60
882.237	66
883.726	58
885.214	62
886.702	56
888.19	54
889.677	54
891.164	54
892.651	54
894.137	62
895.623	50
897.108	54
898.593	60
900.077	58
901.562	58
903.046	56
904.529	52
906.012	56
907.495	56
908.977	56
910.459	58
911.941	54
913.422	56
914.903	56
916.383	58
917.863	50
919.343	52
920.822	56
922.301	58
923.779	62
925.257	54
926.735	60
928.213	62
929.69	62
931.166	60
932.643	66
934.119	58
935.594	66
937.069	68
938.543	76
940.018	80
941.492	74
942.966	82
944.439	88
945.911	94
947.384	114
948.856	122
950.328	144
951.799	172
953.27	204
954.741	242
956.21	282
957.68	338
959.15	368
960.619	362
962.088	344
963.556	318
965.023	272
966.491	256
967.958	222
969.425	198
970.891	184
972.357	150
973.824	120
975.288	116
976.754	108
978.218	72
979.682	88
981.146	76
982.609	70
984.072	78
985.534	72
986.997	70
988.459	62
989.92	68
991.382	72
992.842	68
994.302	68
995.763	64
997.222	68
998.681	64
1000.14	66
1001.6	64
1003.06	64
1004.52	62
1005.97	60
1007.43	60
1008.89	58
1010.34	70
1011.8	58
1013.25	68
1014.71	60
1016.16	64
1017.62	66
1019.07	76
1020.53	76
1021.98	82
1023.43	76
1024.89	86
1026.34	82
1027.79	78
1029.24	86
1030.69	98
1032.14	94
1033.59	108
1035.04	100
1036.49	100
1037.94	90
1039.39	90
1040.84	86
1042.29	80
1043.73	78
1045.18	80
1046.63	74
1048.08	76
1049.52	70
1050.97	68
1052.41	64
1053.86	66
1055.3	62
1056.75	58
1058.19	64
1059.64	66
1061.08	64
1062.52	62
1063.96	62
1065.41	58
1066.85	62
1068.29	58
1069.73	64
1071.17	56
1072.61	62
1074.05	70
1075.49	68
1076.93	68
1078.37	66
1079.81	60
1081.25	60
1082.68	66
1084.12	66
1085.56	60
1087	64
1088.43	66
1089.87	60
1091.3	76
1092.74	72
1094.17	64
1095.61	64
1097.04	72
1098.48	76
1099.91	70
1101.34	78
1102.78	84
1104.21	108
1105.64	110
1107.07	136
1108.5	184
1109.93	262
1111.36	334
1112.8	342
1114.22	308
1115.65	262
1117.08	188
1118.51	146
1119.94	128
1121.37	120
1122.8	102
1124.22	102
1125.65	98
1127.08	88
1128.5	80
1129.93	84
1131.35	78
1132.78	78
1134.2	78
1135.63	88
1137.05	80
1138.48	90
1139.9	90
1141.32	84
1142.75	88
1144.17	78
1145.59	86
1147.01	66
1148.43	76
1149.85	68
1151.27	68
1152.69	66
1154.11	70
1155.53	74
1156.95	84
1158.37	88
1159.79	80
1161.21	86
1162.62	98
1164.04	82
1165.46	90
1166.87	86
1168.29	80
1169.71	80
1171.12	88
1172.54	78
1173.95	88
1175.37	98
1176.78	102
1178.19	110
1179.61	126
1181.02	142
1182.43	164
1183.84	182
1185.26	236
1186.67	228
1188.08	236
1189.49	194
1190.9	174
1192.31	162
1193.72	160
1195.13	152
1196.54	144
1197.95	158
1199.36	148
1200.76	156
1202.17	174
1203.58	162
1204.99	154
1206.39	152
1207.8	144
1209.2	118
1210.61	112
1212.01	90
1213.42	96
1214.82	84
1216.23	92
1217.63	80
1219.03	82
1220.44	90
1221.84	86
1223.24	88
1224.64	98
1226.05	108
1227.45	112
1228.85	136
1230.25	126
1231.65	120
1233.05	120
1234.45	102
1235.85	98
1237.25	98
1238.64	88
1240.04	96
1241.44	86
1242.84	78
1244.23	74
1245.63	82
1247.03	84
1248.42	88
1249.82	76
1251.21	92
1252.61	86
1254	86
1255.4	84
1256.79	82
1258.19	94
1259.58	86
1260.97	90
1262.36	94
1263.76	98
1265.15	92
1266.54	94
1267.93	96
1269.32	96
1270.71	86
1272.1	100
1273.49	82
1274.88	106
1276.27	112
1277.66	100
1279.05	116
1280.43	112
1281.82	116
1283.21	126
1284.6	136
1285.98	134
1287.37	144
1288.75	146
1290.14	164
1291.53	182
1292.91	192
1294.29	210
1295.68	240
1297.06	280
1298.45	310
1299.83	428
1301.21	548
1302.59	630
1303.98	714
1305.36	756
1306.74	730
1308.12	634
1309.5	506
1310.88	410
1312.26	350
1313.64	278
1315.02	254
1316.4	250
1317.78	226
1319.16	190
1320.53	208
1321.91	194
1323.29	172
1324.67	178
1326.04	174
1327.42	176
1328.79	176
1330.17	184
1331.54	160
1332.92	162
1334.29	146
1335.67	136
1337.04	138
1338.42	144
1339.79	152
1341.16	130
1342.53	140
1343.91	134
1345.28	152
1346.65	160
1348.02	162
1349.39	164
1350.76	168
1352.13	152
1353.5	162
1354.87	148
1356.24	138
1357.61	152
1358.98	152
1360.34	136
1361.71	144
1363.08	142
1364.45	146
1365.81	154
1367.18	146
1368.54	144
1369.91	182
1371.28	206
1372.64	222
1374.01	256
1375.37	338
1376.73	380
1378.1	420
1379.46	422
1380.82	402
1382.19	382
1383.55	370
1384.91	300
1386.27	270
1387.63	228
1388.99	188
1390.35	160
1391.71	138
1393.07	152
1394.43	146
1395.79	134
1397.15	138
1398.51	138
1399.87	126
1401.23	132
1402.58	132
1403.94	134
1405.3	128
1406.65	124
1408.01	120
1409.37	136
1410.72	140
1412.08	134
1413.43	142
1414.79	128
1416.14	140
1417.49	142
1418.85	158
1420.2	160
1421.55	168
1422.91	160
1424.26	156
1425.61	186
1426.96	172
1428.31	182
1429.66	170
1431.01	178
1432.36	184
1433.71	196
1435.06	186
1436.41	206
1437.76	208
1439.11	212
1440.46	212
1441.81	208
1443.15	198
1444.5	186
1445.85	196
1447.19	188
1448.54	162
1449.89	186
1451.23	160
1452.58	158
1453.92	158
1455.27	164
1456.61	158
1457.95	148
1459.3	160
1460.64	152
1461.98	160
1463.33	144
1464.67	150
1466.01	144
1467.35	138
1468.69	148
1470.03	148
1471.37	146
1472.71	142
1474.05	140
1475.39	140
1476.73	138
1478.07	150
1479.41	136
1480.75	130
1482.09	116
1483.42	122
1484.76	136
1486.1	130
1487.43	124
1488.77	124
1490.11	114
1491.44	114
1492.78	104
1494.11	116
1495.45	118
1496.78	110
1498.12	120
1499.45	108
1500.78	114
1502.11	104
1503.45	114
1504.78	110
1506.11	108
1507.44	110
1508.77	112
1510.11	116
1511.44	110
1512.77	108
1514.1	110
1515.43	108
1516.76	110
1518.08	102
1519.41	106
1520.74	102
1522.07	108
1523.4	100
1524.72	94
1526.05	98
1527.38	100
1528.7	102
1530.03	110
1531.36	108
1532.68	112
1534.01	106
1535.33	106
1536.66	100
1537.98	106
1539.3	104
1540.63	104
1541.95	102
1543.27	104
1544.6	102
1545.92	110
1547.24	102
1548.56	104
1549.88	106
1551.2	98
1552.52	102
1553.84	104
1555.17	100
1556.48	108
1557.8	112
1559.12	114
1560.44	96
1561.76	104
1563.08	112
1564.4	118
1565.71	110
1567.03	118
1568.35	100
1569.66	104
1570.98	124
1572.29	120
1573.61	130
1574.93	120
1576.24	136
1577.55	136
1578.87	138
1580.18	154
1581.5	166
1582.81	174
1584.12	164
1585.43	184
1586.75	208
1588.06	222
1589.37	232
1590.68	246
1591.99	276
1593.3	294
1594.61	332
1595.92	370
1597.23	396
1598.54	422
1599.85	432
1601.16	476
1602.47	468
1603.78	448
1605.08	448
1606.39	422
1607.7	392
1609	356
1610.31	334
1611.62	324
1612.92	290
1614.23	258
1615.53	244
1616.84	230
1618.14	190
1619.45	178
1620.75	166
1622.06	142
1623.36	144
1624.66	124
1625.96	122
1627.27	116
1628.57	120
1629.87	110
1631.17	92
1632.47	96
1633.77	108
1635.07	86
1636.37	94
1637.67	96
1638.97	98
1640.27	88
1641.57	84
1642.87	80
1644.17	86
1645.47	88
1646.76	90
1648.06	84
1649.36	84
1650.66	88
1651.95	78
1653.25	80
1654.54	78
1655.84	82
1657.13	84
1658.43	80
1659.72	82
1661.02	86
1662.31	74
1663.6	82
1664.9	68
1666.19	80
1667.48	80
1668.78	82
1670.07	78
1671.36	76
1672.65	68
1673.94	72
1675.23	78
1676.52	76
1677.81	76
1679.1	74
1680.39	74
1681.68	74
1682.97	74
1684.26	76
1685.55	80
1686.83	78
1688.12	78
1689.41	72
1690.7	74
1691.98	76
1693.27	80
1694.55	84
1695.84	78
1697.13	78
1698.41	78
1699.69	76
1700.98	72
1702.26	78