File: Mixture_Classification/Jesse_Dataset_v2/Pure Raman/Polypropylene oxide/785nm/ps-ppo-6jan25-0,0000-map2_Y00_X04.txt
204.377	382
206.045	388
207.713	362
209.38	360
211.048	344
212.715	312
214.381	330
216.047	348
217.712	342
219.377	350
221.042	374
222.706	426
224.369	478
226.032	560
227.695	628
229.357	782
231.019	898
232.68	978
234.341	984
236.001	940
237.661	888
239.321	832
240.98	750
242.639	684
244.297	638
245.955	566
247.612	506
249.268	452
250.924	416
252.58	378
254.236	318
255.891	286
257.546	266
259.2	244
260.854	236
262.507	226
264.16	208
265.812	190
267.463	188
269.115	184
270.766	186
272.417	182
274.067	170
275.717	186
277.365	180
279.014	180
280.663	206
282.311	218
283.958	224
285.605	252
287.252	274
288.898	332
290.543	378
292.188	400
293.833	436
295.477	436
297.121	416
298.765	418
300.407	382
302.05	346
303.693	336
305.334	292
306.975	296
308.615	270
310.256	248
311.896	252
313.535	256
315.175	222
316.813	234
318.451	228
320.089	232
321.726	226
323.362	226
324.999	230
326.635	242
328.271	252
329.905	256
331.54	254
333.174	256
334.807	268
336.441	240
338.074	248
339.707	246
341.338	216
342.969	224
344.601	204
346.231	214
347.861	214
349.491	220
351.12	208
352.749	222
354.378	214
356.006	196
357.633	208
359.261	208
360.887	194
362.513	190
364.139	188
365.764	202
367.39	180
369.014	186
370.638	190
372.261	188
373.884	188
375.508	202
377.13	202
378.752	168
380.373	170
381.994	146
383.615	148
385.235	154
386.854	132
388.473	150
390.092	136
391.711	134
393.328	130
394.947	132
396.564	136
398.181	130
399.797	124
401.412	130
403.027	136
404.642	130
406.257	152
407.871	162
409.484	174
411.098	198
412.711	212
414.323	218
415.935	208
417.547	200
419.158	176
420.768	180
422.378	148
423.988	146
425.597	134
427.206	114
428.814	114
430.422	110
432.03	112
433.637	108
435.243	100
436.85	96
438.456	94
440.062	84
441.666	88
443.271	86
444.876	78
446.479	84
448.082	80
449.685	76
451.287	82
452.89	78
454.492	84
456.092	84
457.693	76
459.293	88
460.893	80
462.492	86
464.092	100
465.691	104
467.288	114
468.887	122
470.483	140
472.081	162
473.677	158
475.273	196
476.869	190
478.463	218
480.059	234
481.653	246
483.247	294
484.84	300
486.433	268
488.026	242
489.618	194
491.21	196
492.801	158
494.392	144
495.983	126
497.573	108
499.162	108
500.752	108
502.341	104
503.929	100
505.517	116
507.105	116
508.692	128
510.279	158
511.865	204
513.45	222
515.037	196
516.621	172
518.206	162
519.79	150
521.374	158
522.957	152
524.54	166
526.123	166
527.705	198
529.287	230
530.868	268
532.448	324
534.029	352
535.609	402
537.188	434
538.768	466
540.346	440
541.925	410
543.502	364
545.08	294
546.657	256
548.234	228
549.81	208
551.386	200
552.961	186
554.536	200
556.11	218
557.684	272
559.258	320
560.832	380
562.405	534
563.977	698
565.55	1016
567.12	1390
568.692	1866
570.263	2338
571.833	2328
573.403	1942
574.973	1456
576.542	1000
578.111	702
579.679	500
581.247	388
582.815	368
584.382	338
585.948	306
587.514	330
589.081	300
590.645	276
592.211	266
593.775	264
595.339	240
596.904	214
598.466	190
600.03	176
601.592	146
603.154	132
604.715	114
606.277	98
607.838	98
609.398	102
610.958	100
612.518	94
614.077	94
615.636	92
617.194	92
618.753	98
620.31	100
621.867	108
623.424	96
624.98	110
626.537	122
628.092	126
629.647	142
631.202	146
632.756	144
634.31	158
635.864	156
637.417	154
638.969	154
640.521	142
642.074	130
643.625	114
645.176	120
646.726	106
648.276	96
649.827	110
651.376	100
652.925	86
654.473	86
656.021	84
657.569	72
659.117	76
660.664	70
662.21	74
663.757	68
665.302	66
666.847	68
668.392	68
669.937	66
671.481	66
673.025	62
674.568	60
676.111	62
677.653	62
679.195	56
680.737	60
682.279	66
683.82	60
685.36	68
686.9	62
688.44	66
689.979	64
691.517	62
693.056	64
694.594	62
696.132	62
697.669	54
699.206	66
700.742	62
702.278	66
703.814	68
705.35	74
706.884	74
708.419	72
709.953	82
711.487	80
713.019	92
714.552	94
716.085	102
717.617	86
719.148	94
720.68	84
722.21	84
723.741	80
725.271	80
726.8	80
728.33	86
729.858	76
731.387	76
732.915	76
734.443	76
735.97	80
737.497	82
739.023	92
740.549	94
742.075	94
743.6	110
745.125	122
746.65	150
748.173	154
749.697	136
751.22	122
752.743	112
754.266	122
755.788	116
757.309	102
758.831	90
760.351	80
761.871	76
763.392	74
764.912	72
766.431	70
767.95	68
769.468	68
770.986	78
772.504	72
774.022	70
775.538	76
777.055	80
778.571	86
780.086	84
781.602	78
783.117	80
784.632	80
786.146	84
787.659	68
789.173	74
790.685	72
792.198	76
793.71	62
795.222	72
796.733	68
798.244	70
799.755	74
801.265	66
802.775	70
804.284	70
805.793	80
807.302	76
808.81	78
810.318	80
811.826	60
813.333	70
814.84	76
816.346	82
817.851	78
819.357	76
820.862	94
822.367	102
823.871	108
825.376	134
826.878	166
828.382	224
829.885	350
831.387	466
832.889	574
834.391	554
835.892	406
837.392	260
838.893	174
840.393	138
841.893	112
843.392	114
844.891	92
846.389	104
847.888	106
849.386	90
850.882	100
852.38	88
853.876	88
855.372	92
856.868	92
858.363	84
859.858	86
861.353	88
862.847	82
864.341	74
865.834	82
867.328	72
868.82	72
870.313	68
871.805	56
873.296	72
874.787	68
876.278	64
877.769	68
879.258	62
880.748	70
882.237	60
883.726	62
885.214	62
886.702	60
888.19	62
889.677	56
891.164	58
892.651	56
894.137	60
895.623	50
897.108	60
898.593	52
900.077	58
901.562	52
903.046	52
904.529	60
906.012	58
907.495	60
908.977	60
910.459	62
911.941	60
913.422	56
914.903	58
916.383	56
917.863	60
919.343	56
920.822	54
922.301	56
923.779	60
925.257	58
926.735	64
928.213	58
929.69	60
931.166	66
932.643	70
934.119	74
935.594	60
937.069	74
938.543	76
940.018	76
941.492	80
942.966	82
944.439	90
945.911	102
947.384	114
948.856	128
950.328	150
951.799	174
953.27	204
954.741	234
956.21	302
957.68	340
959.15	378
960.619	374
962.088	364
963.556	336
965.023	290
966.491	254
967.958	226
969.425	194
970.891	182
972.357	162
973.824	124
975.288	114
976.754	98
978.218	86
979.682	86
981.146	92
982.609	82
984.072	78
985.534	74
986.997	64
988.459	72
989.92	76
991.382	78
992.842	80
994.302	64
995.763	74
997.222	70
998.681	70
1000.14	70
1001.6	62
1003.06	66
1004.52	68
1005.97	64
1007.43	60
1008.89	64
1010.34	60
1011.8	62
1013.25	68
1014.71	70
1016.16	66
1017.62	76
1019.07	78
1020.53	78
1021.98	84
1023.43	82
1024.89	92
1026.34	82
1027.79	90
1029.24	88
1030.69	96
1032.14	98
1033.59	96
1035.04	100
1036.49	84
1037.94	106
1039.39	96
1040.84	94
1042.29	88
1043.73	84
1045.18	80
1046.63	80
1048.08	68
1049.52	70
1050.97	72
1052.41	68
1053.86	70
1055.3	68
1056.75	64
1058.19	64
1059.64	68
1061.08	64
1062.52	66
1063.96	58
1065.41	64
1066.85	62
1068.29	64
1069.73	68
1071.17	62
1072.61	62
1074.05	64
1075.49	56
1076.93	60
1078.37	68
1079.81	58
1081.25	66
1082.68	66
1084.12	68
1085.56	60
1087	68
1088.43	72
1089.87	68
1091.3	58
1092.74	68
1094.17	74
1095.61	74
1097.04	72
1098.48	80
1099.91	76
1101.34	80
1102.78	90
1104.21	94
1105.64	112
1107.07	152
1108.5	196
1109.93	260
1111.36	302
1112.8	360
1114.22	324
1115.65	270
1117.08	198
1118.51	160
1119.94	122
1121.37	118
1122.8	108
1124.22	108
1125.65	104
1127.08	98
1128.5	96
1129.93	98
1131.35	94
1132.78	84
1134.2	88
1135.63	92
1137.05	86
1138.48	80
1139.9	86
1141.32	86
1142.75	86
1144.17	86
1145.59	82
1147.01	82
1148.43	76
1149.85	84
1151.27	74
1152.69	86
1154.11	76
1155.53	78
1156.95	80
1158.37	84
1159.79	90
1161.21	90
1162.62	92
1164.04	100
1165.46	88
1166.87	86
1168.29	88
1169.71	90
1171.12	96
1172.54	100
1173.95	86
1175.37	86
1176.78	100
1178.19	110
1179.61	124
1181.02	146
1182.43	178
1183.84	180
1185.26	218
1186.67	242
1188.08	232
1189.49	206
1190.9	172
1192.31	162
1193.72	160
1195.13	148
1196.54	150
1197.95	160
1199.36	158
1200.76	170
1202.17	170
1203.58	182
1204.99	168
1206.39	152
1207.8	146
1209.2	130
1210.61	124
1212.01	98
1213.42	100
1214.82	100
1216.23	90
1217.63	84
1219.03	96
1220.44	98
1221.84	92
1223.24	92
1224.64	106
1226.05	122
1227.45	120
1228.85	146
1230.25	130
1231.65	138
1233.05	118
1234.45	114
1235.85	110
1237.25	96
1238.64	90
1240.04	90
1241.44	90
1242.84	80
1244.23	90
1245.63	96
1247.03	84
1248.42	92
1249.82	86
1251.21	92
1252.61	80
1254	98
1255.4	88
1256.79	80
1258.19	94
1259.58	90
1260.97	96
1262.36	84
1263.76	92
1265.15	100
1266.54	110
1267.93	90
1269.32	96
1270.71	110
1272.1	102
1273.49	94
1274.88	100
1276.27	118
1277.66	116
1279.05	114
1280.43	122
1281.82	136
1283.21	136
1284.6	130
1285.98	156
1287.37	158
1288.75	162
1290.14	162
1291.53	178
1292.91	186
1294.29	224
1295.68	244
1297.06	280
1298.45	340
1299.83	428
1301.21	536
1302.59	670
1303.98	746
1305.36	812
1306.74	716
1308.12	650
1309.5	524
1310.88	396
1312.26	360
1313.64	312
1315.02	264
1316.4	232
1317.78	222
1319.16	216
1320.53	196
1321.91	182
1323.29	194
1324.67	190
1326.04	184
1327.42	192
1328.79	174
1330.17	176
1331.54	186
1332.92	158
1334.29	160
1335.67	162
1337.04	162
1338.42	144
1339.79	152
1341.16	154
1342.53	154
1343.91	150
1345.28	158
1346.65	162
1348.02	172
1349.39	158
1350.76	172
1352.13	174
1353.5	164
1354.87	146
1356.24	158
1357.61	148
1358.98	164
1360.34	150
1361.71	158
1363.08	136
1364.45	146
1365.81	148
1367.18	174
1368.54	168
1369.91	176
1371.28	198
1372.64	222
1374.01	294
1375.37	336
1376.73	384
1378.1	432
1379.46	442
1380.82	412
1382.19	410
1383.55	366
1384.91	324
1386.27	286
1387.63	238
1388.99	210
1390.35	174
1391.71	160
1393.07	154
1394.43	140
1395.79	140
1397.15	138
1398.51	140
1399.87	136
1401.23	140
1402.58	136
1403.94	146
1405.3	140
1406.65	138
1408.01	140
1409.37	142
1410.72	142
1412.08	132
1413.43	146
1414.79	152
1416.14	152
1417.49	164
1418.85	170
1420.2	160
1421.55	154
1422.91	190
1424.26	198
1425.61	178
1426.96	186
1428.31	166
1429.66	192
1431.01	186
1432.36	192
1433.71	184
1435.06	200
1436.41	216
1437.76	218
1439.11	214
1440.46	218
1441.81	218
1443.15	206
1444.5	202
1445.85	208
1447.19	194
1448.54	188
1449.89	180
1451.23	178
1452.58	154
1453.92	166
1455.27	170
1456.61	170
1457.95	166
1459.3	162
1460.64	160
1461.98	160
1463.33	168
1464.67	154
1466.01	156
1467.35	156
1468.69	152
1470.03	154
1471.37	140
1472.71	138
1474.05	148
1475.39	150
1476.73	140
1478.07	138
1479.41	126
1480.75	138
1482.09	128
1483.42	132
1484.76	132
1486.1	128
1487.43	124
1488.77	124
1490.11	130
1491.44	122
1492.78	116
1494.11	120
1495.45	120
1496.78	124
1498.12	126
1499.45	114
1500.78	106
1502.11	112
1503.45	108
1504.78	118
1506.11	122
1507.44	106
1508.77	120
1510.11	118
1511.44	118
1512.77	116
1514.1	112
1515.43	110
1516.76	102
1518.08	106
1519.41	104
1520.74	110
1522.07	114
1523.4	106
1524.72	114
1526.05	114
1527.38	112
1528.7	116
1530.03	110
1531.36	106
1532.68	104
1534.01	112
1535.33	102
1536.66	100
1537.98	114
1539.3	108
1540.63	118
1541.95	108
1543.27	108
1544.6	112
1545.92	106
1547.24	108
1548.56	108
1549.88	112
1551.2	104
1552.52	112
1553.84	112
1555.17	112
1556.48	114
1557.8	114
1559.12	112
1560.44	114
1561.76	110
1563.08	106
1564.4	102
1565.71	112
1567.03	124
1568.35	108
1569.66	122
1570.98	118
1572.29	126
1573.61	134
1574.93	132
1576.24	128
1577.55	148
1578.87	136
1580.18	144
1581.5	164
1582.81	164
1584.12	182
1585.43	186
1586.75	206
1588.06	216
1589.37	240
1590.68	250
1591.99	288
1593.3	304
1594.61	328
1595.92	368
1597.23	404
1598.54	412
1599.85	464
1601.16	450
1602.47	458
1603.78	452
1605.08	452
1606.39	424
1607.7	410
1609	368
1610.31	360
1611.62	312
1612.92	302
1614.23	280
1615.53	260
1616.84	226
1618.14	206
1619.45	188
1620.75	162
1622.06	154
1623.36	144
1624.66	130
1625.96	134
1627.27	118
1628.57	116
1629.87	112
1631.17	108
1632.47	106
1633.77	100
1635.07	106
1636.37	100
1637.67	98
1638.97	102
1640.27	98
1641.57	92
1642.87	90
1644.17	92
1645.47	92
1646.76	90
1648.06	90
1649.36	74
1650.66	82
1651.95	88
1653.25	88
1654.54	92
1655.84	86
1657.13	80
1658.43	80
1659.72	82
1661.02	86
1662.31	78
1663.6	82
1664.9	84
1666.19	84
1667.48	80
1668.78	84
1670.07	82
1671.36	84
1672.65	84
1673.94	76
1675.23	84
1676.52	84
1677.81	82
1679.1	70
1680.39	72
1681.68	78
1682.97	88
1684.26	82
1685.55	78
1686.83	84
1688.12	76
1689.41	76
1690.7	84
1691.98	84
1693.27	86
1694.55	90
1695.84	74
1697.13	90
1698.41	86
1699.69	68
1700.98	84
1702.26	80