File: Mixture_Classification/Jesse_Dataset_v2/Pure Raman/Polystyrene/633nm/ps-ppo-7jan25-1,0000-map3_Y08_X07.txt
182.393	1114
184.993	1080
187.593	1084
190.193	1004
192.79	1044
195.387	1020
197.983	986
200.578	1020
203.174	1064
205.766	1042
208.36	1042
210.951	1102
213.542	1114
216.131	1154
218.721	1132
221.309	1156
223.897	1134
226.483	1124
229.069	1074
231.654	982
234.238	904
236.821	788
239.404	730
241.984	664
244.566	572
247.145	546
249.723	484
252.302	460
254.878	444
257.455	434
260.03	426
262.604	404
265.178	412
267.75	406
270.322	400
272.893	402
275.463	392
278.032	358
280.601	366
283.168	366
285.734	340
288.301	350
290.866	324
293.429	314
295.992	312
298.556	286
301.117	316
303.677	300
306.236	314
308.795	306
311.354	310
313.911	308
316.467	290
319.022	310
321.577	300
324.13	310
326.684	304
329.236	308
331.787	302
334.337	292
336.887	290
339.435	298
341.983	280
344.529	282
347.075	286
349.621	266
352.165	268
354.708	260
357.251	288
359.793	276
362.334	258
364.874	278
367.413	268
369.951	304
372.489	280
375.026	282
377.562	280
380.097	292
382.631	308
385.164	318
387.697	332
390.229	340
392.76	336
395.29	338
397.819	352
400.346	346
402.873	368
405.4	398
407.926	398
410.451	388
412.976	390
415.499	372
418.02	346
420.542	312
423.063	316
425.583	306
428.101	304
430.619	294
433.137	292
435.654	290
438.169	280
440.684	262
443.198	264
445.712	272
448.223	252
450.735	262
453.246	244
455.755	238
458.264	218
460.771	252
463.279	234
465.786	240
468.291	220
470.796	234
473.301	222
475.803	220
478.306	232
480.807	240
483.308	210
485.807	214
488.307	226
490.804	222
493.302	210
495.798	222
498.294	220
500.788	254
503.283	246
505.775	246
508.269	230
510.759	240
513.251	226
515.74	224
518.23	240
520.718	242
523.204	242
525.692	256
528.177	272
530.663	246
533.147	284
535.629	274
538.113	280
540.594	292
543.074	306
545.555	298
548.034	318
550.512	286
552.989	272
555.467	288
557.942	280
560.417	290
562.892	290
565.365	286
567.838	284
570.309	290
572.78	284
575.251	286
577.72	276
580.189	282
582.656	258
585.123	246
587.589	248
590.055	242
592.52	240
594.983	234
597.446	252
599.908	244
602.369	244
604.829	266
607.289	302
609.747	332
612.205	308
614.663	350
617.119	440
619.574	744
622.029	1122
624.483	1054
626.936	586
629.389	374
631.84	306
634.291	270
636.741	248
639.19	246
641.639	228
644.086	224
646.533	218
648.979	196
651.424	218
653.869	190
656.313	200
658.754	212
661.196	190
663.638	186
666.078	200
668.518	192
670.957	194
673.394	204
675.831	210
678.268	204
680.703	206
683.137	216
685.571	192
688.005	194
690.437	212
692.868	206
695.299	194
697.729	212
700.159	244
702.586	234
705.014	234
707.441	244
709.866	264
712.292	248
714.716	240
717.14	254
719.563	264
721.984	284
724.406	324
726.825	348
729.246	310
731.665	282
734.082	338
736.5	304
738.916	386
741.332	386
743.746	410
746.161	422
748.574	430
750.987	436
753.398	406
755.81	478
758.219	518
760.629	532
763.037	512
765.445	488
767.852	494
770.258	464
772.664	468
775.068	462
777.472	436
779.876	454
782.278	502
784.679	538
787.08	586
789.48	606
791.879	686
794.278	680
796.675	698
799.072	716
801.467	654
803.864	568
806.258	502
808.651	470
811.044	428
813.437	384
815.828	378
818.218	336
820.608	310
822.997	320
825.385	318
827.773	278
830.16	304
832.546	298
834.931	298
837.315	344
839.699	384
842.081	402
844.463	392
846.844	386
849.226	372
851.606	346
853.985	328
856.363	336
858.741	316
861.117	328
863.493	312
865.868	324
868.243	330
870.616	340
872.989	332
875.36	312
877.731	322
880.102	320
882.472	304
884.841	312
887.209	316
889.577	312
891.944	300
894.31	330
896.674	314
899.039	328
901.403	358
903.766	372
906.128	396
908.49	358
910.849	370
913.209	370
915.569	330
917.927	332
920.284	290
922.641	290
924.997	300
927.353	274
929.707	278
932.061	288
934.414	268
936.765	306
939.117	308
941.469	296
943.818	292
946.167	282
948.515	302
950.863	320
953.211	298
955.556	310
957.902	306
960.246	316
962.59	310
964.933	362
967.276	348
969.617	356
971.958	372
974.298	384
976.638	418
978.976	442
981.314	514
983.651	558
985.988	672
988.323	832
990.659	1232
992.992	1736
995.325	1898
997.658	2394
999.99	4314
1002.32	6596
1004.65	6104
1006.98	3364
1009.31	1570
1011.64	878
1013.97	592
1016.29	538
1018.62	488
1020.94	528
1023.27	666
1025.59	842
1027.91	1226
1030.24	1692
1032.56	1952
1034.88	1862
1037.2	1442
1039.52	1022
1041.84	744
1044.15	564
1046.47	548
1048.79	478
1051.1	458
1053.42	448
1055.73	412
1058.04	432
1060.36	444
1062.67	428
1064.98	470
1067.29	454
1069.6	462
1071.91	514
1074.22	474
1076.52	490
1078.83	476
1081.14	478
1083.44	478
1085.75	462
1088.05	472
1090.35	448
1092.65	490
1094.95	476
1097.26	454
1099.56	490
1101.86	486
1104.15	482
1106.45	432
1108.75	404
1111.05	400
1113.34	390
1115.64	372
1117.93	368
1120.22	338
1122.52	316
1124.81	308
1127.1	304
1129.39	338
1131.68	294
1133.97	320
1136.26	326
1138.54	342
1140.83	356
1143.12	376
1145.4	424
1147.69	472
1149.97	536
1152.25	688
1154.54	950
1156.82	1020
1159.1	904
1161.38	766
1163.66	600
1165.94	564
1168.22	564
1170.49	524
1172.77	576
1175.05	640
1177.32	816
1179.6	1038
1181.87	1178
1184.14	1212
1186.42	1152
1188.69	1062
1190.96	1134
1193.23	1180
1195.5	1276
1197.77	1244
1200.03	1218
1202.3	1226
1204.57	1118
1206.83	992
1209.1	844
1211.36	774
1213.63	662
1215.89	578
1218.15	562
1220.41	540
1222.67	500
1224.93	512
1227.19	512
1229.45	488
1231.71	420
1233.97	450
1236.22	436
1238.48	422
1240.73	388
1242.99	422
1245.24	414
1247.5	420
1249.75	412
1252	406
1254.25	410
1256.5	400
1258.75	390
1261	408
1263.25	382
1265.49	384
1267.74	404
1269.99	370
1272.23	402
1274.48	378
1276.72	400
1278.96	402
1281.21	384
1283.45	386
1285.69	398
1287.93	386
1290.17	390
1292.41	416
1294.64	414
1296.88	428
1299.12	444
1301.36	448
1303.59	450
1305.82	436
1308.06	482
1310.29	486
1312.52	472
1314.76	484
1316.99	496
1319.22	510
1321.45	560
1323.68	556
1325.9	572
1328.13	558
1330.36	576
1332.58	588
1334.81	534
1337.04	550
1339.26	512
1341.48	492
1343.71	490
1345.93	414
1348.15	426
1350.37	400
1352.59	414
1354.81	412
1357.03	408
1359.24	444
1361.46	400
1363.68	422
1365.89	424
1368.11	420
1370.32	418
1372.54	430
1374.75	390
1376.96	424
1379.17	412
1381.38	354
1383.59	378
1385.8	360
1388.01	326
1390.22	294
1392.43	318
1394.63	342
1396.84	316
1399.05	302
1401.25	300
1403.45	314
1405.66	322
1407.86	318
1410.06	334
1412.26	302
1414.46	298
1416.66	306
1418.86	302
1421.06	308
1423.26	300
1425.46	296
1427.65	310
1429.85	320
1432.04	334
1434.24	370
1436.43	416
1438.62	438
1440.82	488
1443.01	532
1445.2	594
1447.39	608
1449.58	650
1451.77	648
1453.95	606
1456.14	538
1458.33	456
1460.52	436
1462.7	386
1464.89	328
1467.07	330
1469.25	326
1471.44	312
1473.62	306
1475.8	306
1477.98	312
1480.16	316
1482.34	310
1484.52	306
1486.7	308
1488.87	308
1491.05	316
1493.23	354
1495.4	332
1497.58	304
1499.75	328
1501.92	322
1504.1	298
1506.27	306
1508.44	284
1510.61	306
1512.78	320
1514.95	274
1517.12	316
1519.28	302
1521.45	296
1523.62	302
1525.78	306
1527.95	284
1530.11	292
1532.28	296
1534.44	300
1536.6	312
1538.76	316
1540.93	302
1543.09	304
1545.25	298
1547.41	306
1549.56	324
1551.72	314
1553.88	312
1556.03	324
1558.19	316
1560.35	348
1562.5	326
1564.65	326
1566.81	350
1568.96	364
1571.11	370
1573.26	414
1575.41	436
1577.56	476
1579.71	630
1581.86	816
1584.01	1002
1586.15	888
1588.3	740
1590.45	668
1592.59	660
1594.74	732
1596.88	892
1599.02	1226
1601.17	1718
1603.31	1950
1605.45	1706
1607.59	1262
1609.73	914
1611.87	726
1614.01	568
1616.14	498
1618.28	444
1620.42	440
1622.55	388
1624.69	376
1626.82	378
1628.96	366
1631.09	352
1633.22	342
1635.36	350
1637.49	360
1639.62	350
1641.75	360
1643.88	384
1646	392
1648.13	380
1650.26	364
1652.39	328
1654.51	314
1656.64	314
1658.76	318
1660.89	324
1663.01	318
1665.13	308
1667.26	308
1669.38	304
1671.5	306
1673.62	302
1675.74	320
1677.86	302
1679.97	294
1682.09	330
1684.21	316
1686.33	306
1688.44	318
1690.56	304
1692.67	304
1694.78	314
1696.9	314
1699.01	304
1701.12	306
1703.23	292
1705.34	318
1707.45	316
1709.56	298
1711.67	294
1713.78	310
1715.88	296
1717.99	302
1720.1	294
1722.2	302
1724.31	294
1726.41	302
1728.51	312
1730.62	316
1732.72	306
1734.82	280
1736.92	292
1739.02	308
1741.12	312
1743.22	318
1745.32	294
1747.42	300
1749.51	292
1751.61	312
1753.7	314
1755.8	306
1757.89	306
1759.99	316
1762.08	286
1764.17	298
1766.26	316
1768.36	284
1770.45	322
1772.54	286
1774.62	294
1776.71	300
1778.8	294
1780.89	314
1782.98	318
1785.06	302
1787.15	308
1789.23	284
1791.32	328
1793.4	314
1795.48	306
1797.56	300
1799.65	312
1801.73	300
1803.81	326
1805.89	332
1807.97	302
1810.04	314
1812.12	320
1814.2	324
1816.28	298
1818.35	306
1820.43	302
1822.5	314
1824.58	306
1826.65	306
1828.72	302
1830.79	328
1832.86	298
1834.94	294
1837.01	290
1839.08	306
1841.15	302
1843.21	308
1845.28	312
1847.35	300
1849.41	306
1851.48	302
1853.55	320
1855.61	290
1857.67	288
1859.74	302
1861.8	318
1863.86	312
1865.92	296
1867.98	300
1870.05	292
1872.1	312
1874.16	304
1876.22	320
1878.28	308
1880.34	310
1882.39	314
1884.45	332
1886.5	312
1888.56	290
1890.61	300
1892.67	296
1894.72	314
1896.77	310
1898.82	300
1900.87	296
1902.92	316
1904.97	320
1907.02	328
1909.07	328
1911.12	332
1913.17	318
1915.21	302
1917.26	322
1919.3	324
1921.35	310
1923.39	308
1925.43	322
1927.48	314
1929.52	334
1931.56	320
1933.6	314
1935.64	332
1937.68	316
1939.72	352
1941.76	340
1943.8	314
1945.83	332
1947.87	356
1949.91	302
1951.94	310
1953.98	308
1956.01	338
1958.05	320
1960.08	342
1962.11	318
1964.14	330
1966.17	324
1968.2	324
1970.23	338
1972.26	304
1974.29	314
1976.32	328
1978.35	310
1980.37	300
1982.4	314
1984.43	324
1986.45	330
1988.48	334
1990.5	336
1992.52	308
1994.55	320
1996.57	326
1998.59	302
2000.61	328
2002.63	324
2004.65	332
2006.67	316
2008.69	304
2010.7	344
2012.72	318
2014.74	328
2016.75	312
2018.77	304
2020.78	322
2022.8	328
2024.81	312
2026.83	346
2028.84	330
2030.85	322
2032.86	338
2034.87	334
2036.88	328
2038.89	320
2040.9	334
2042.91	334
2044.91	328
2046.92	314
2048.93	312
2050.93	326
2052.94	324
2054.94	324
2056.95	330
2058.95	330
2060.95	330
2062.95	352
2064.96	336
2066.96	322
2068.96	336
2070.96	330
2072.96	342
2074.95	332
2076.95	334
2078.95	320
2080.95	336
2082.94	346
2084.94	350
2086.93	318
2088.93	342
2090.92	338
2092.91	348
2094.91	322
2096.9	340
2098.89	334
2100.88	352
2102.87	338
2104.86	350
2106.85	330
2108.84	340
2110.83	344
2112.81	350
2114.8	336
2116.78	316
2118.77	356
2120.75	328
2122.74	350
2124.72	334
2126.71	348
2128.69	346
2130.67	340
2132.65	338
2134.63	330
2136.61	350
2138.59	334
2140.57	326
2142.55	338
2144.53	336
2146.5	344
2148.48	362
2150.46	362
2152.43	340
2154.41	360
2156.38	332
2158.35	354
2160.33	350
2162.3	328
2164.27	304
2166.24	330
2168.21	340
2170.18	348
2172.15	350
2174.12	360
2176.09	354
2178.06	334
2180.03	354
2181.99	334
2183.96	346
2185.92	330
2187.89	348
2189.85	368
2191.82	336
2193.78	338
2195.74	364
2197.7	350
2199.67	342
2201.63	344
2203.59	344
2205.55	358
2207.51	316
2209.46	336
2211.42	350
2213.38	340
2215.34	352
2217.29	370
2219.25	338
2221.2	350
2223.16	368
2225.11	330
2227.06	336
2229.02	346
2230.97	352
2232.92	338
2234.87	366
2236.82	336
2238.77	358
2240.72	336
2242.67	344
2244.62	324
2246.57	322
2248.51	366
2250.46	350
2252.4	352
2254.35	360
2256.29	342
2258.24	348
2260.18	338
2262.13	346
2264.07	366
2266.01	340
2267.95	348
2269.89	356
2271.83	360
2273.77	346
2275.71	364
2277.65	356
2279.58	356
2281.52	360
2283.46	364
2285.4	348
2287.33	350
2289.27	340
2291.2	338
2293.13	358
2295.07	342
2297	346
2298.93	358
2300.86	336
2302.79	366
2304.72	348
2306.65	340
2308.58	354
2310.51	362
2312.44	362
2314.37	374
2316.29	342
2318.22	382
2320.15	346
2322.07	360
2324	362
2325.92	364
2327.84	382
2329.77	340
2331.69	370
2333.61	346
2335.53	368
2337.45	344
2339.37	376
2341.29	366
2343.21	338
2345.13	352
2347.05	356
2348.97	358
2350.88	354
2352.8	348
2354.71	334
2356.63	340
2358.54	350
2360.46	340
2362.37	364
2364.28	356
2366.2	358
2368.11	358
2370.02	370
2371.93	344
2373.84	364
2375.75	342
2377.66	364
2379.57	378
2381.47	366
2383.38	368
2385.29	356
2387.2	368
2389.1	354
2391.01	344
2392.91	350
2394.81	356
2396.72	354
2398.62	362
2400.52	370
2402.42	354
2404.33	370
2406.23	338
2408.13	362
2410.03	348
2411.92	350
2413.82	346
2415.72	334
2417.62	368
2419.51	376
2421.41	354
2423.31	376
2425.2	348
2427.1	362
2428.99	376
2430.88	350
2432.78	374
2434.67	350
2436.56	364
2438.45	368
2440.34	370
2442.23	368
2444.12	384
2446.01	388
2447.9	360
2449.79	382