File: Mixture_Classification/Jesse_Dataset_v2/Pure Raman/Polystyrene/633nm/ps-ppo-7jan25-1,0000-map3_Y05_X05.txt
182.393	968
184.993	994
187.593	922
190.193	926
192.79	910
195.387	896
197.983	882
200.578	882
203.174	910
205.766	926
208.36	938
210.951	956
213.542	1004
216.131	1036
218.721	1034
221.309	1014
223.897	1054
226.483	1000
229.069	914
231.654	876
234.238	808
236.821	718
239.404	644
241.984	548
244.566	476
247.145	426
249.723	392
252.302	390
254.878	344
257.455	324
260.03	310
262.604	318
265.178	304
267.75	294
270.322	296
272.893	294
275.463	278
278.032	272
280.601	260
283.168	256
285.734	236
288.301	252
290.866	230
293.429	226
295.992	218
298.556	190
301.117	204
303.677	196
306.236	202
308.795	192
311.354	206
313.911	178
316.467	202
319.022	194
321.577	216
324.13	218
326.684	200
329.236	200
331.787	196
334.337	210
336.887	206
339.435	196
341.983	196
344.529	210
347.075	202
349.621	188
352.165	180
354.708	182
357.251	174
359.793	182
362.334	176
364.874	198
367.413	186
369.951	178
372.489	198
375.026	192
377.562	194
380.097	206
382.631	204
385.164	220
387.697	220
390.229	240
392.76	246
395.29	266
397.819	256
400.346	274
402.873	268
405.4	302
407.926	306
410.451	330
412.976	292
415.499	260
418.02	248
420.542	240
423.063	226
425.583	214
428.101	210
430.619	198
433.137	202
435.654	210
438.169	202
440.684	200
443.198	190
445.712	184
448.223	176
450.735	172
453.246	174
455.755	162
458.264	154
460.771	160
463.279	152
465.786	152
468.291	158
470.796	158
473.301	160
475.803	138
478.306	158
480.807	150
483.308	144
485.807	140
488.307	144
490.804	136
493.302	144
495.798	132
498.294	152
500.788	152
503.283	160
505.775	166
508.269	160
510.759	166
513.251	162
515.74	162
518.23	170
520.718	158
523.204	146
525.692	174
528.177	186
530.663	194
533.147	198
535.629	220
538.113	218
540.594	230
543.074	232
545.555	228
548.034	236
550.512	218
552.989	220
555.467	224
557.942	220
560.417	204
562.892	220
565.365	216
567.838	218
570.309	222
572.78	214
575.251	234
577.72	220
580.189	204
582.656	198
585.123	184
587.589	192
590.055	192
592.52	174
594.983	174
597.446	180
599.908	186
602.369	196
604.829	210
607.289	220
609.747	238
612.205	244
614.663	292
617.119	380
619.574	678
622.029	1086
624.483	920
626.936	490
629.389	310
631.84	250
634.291	218
636.741	198
639.19	176
641.639	160
644.086	166
646.533	154
648.979	156
651.424	154
653.869	146
656.313	144
658.754	142
661.196	136
663.638	150
666.078	150
668.518	140
670.957	140
673.394	134
675.831	142
678.268	142
680.703	140
683.137	130
685.571	152
688.005	146
690.437	140
692.868	150
695.299	162
697.729	152
700.159	162
702.586	176
705.014	186
707.441	186
709.866	182
712.292	180
714.716	186
717.14	180
719.563	190
721.984	226
724.406	258
726.825	286
729.246	248
731.665	250
734.082	226
736.5	266
738.916	310
741.332	330
743.746	334
746.161	346
748.574	340
750.987	378
753.398	412
755.81	412
758.219	412
760.629	426
763.037	436
765.445	438
767.852	400
770.258	420
772.664	398
775.068	384
777.472	384
779.876	390
782.278	422
784.679	458
787.08	526
789.48	582
791.879	618
794.278	662
796.675	686
799.072	666
801.467	596
803.864	520
806.258	444
808.651	408
811.044	374
813.437	348
815.828	314
818.218	294
820.608	244
822.997	250
825.385	236
827.773	242
830.16	236
832.546	246
834.931	254
837.315	276
839.699	316
842.081	318
844.463	336
846.844	332
849.226	314
851.606	276
853.985	272
856.363	268
858.741	278
861.117	248
863.493	264
865.868	268
868.243	268
870.616	266
872.989	256
875.36	274
877.731	274
880.102	256
882.472	266
884.841	256
887.209	268
889.577	240
891.944	256
894.31	260
896.674	268
899.039	260
901.403	286
903.766	302
906.128	312
908.49	322
910.849	316
913.209	278
915.569	262
917.927	248
920.284	248
922.641	232
924.997	232
927.353	214
929.707	224
932.061	218
934.414	222
936.765	228
939.117	230
941.469	220
943.818	248
946.167	236
948.515	228
950.863	230
953.211	226
955.556	240
957.902	252
960.246	254
962.59	286
964.933	296
967.276	284
969.617	304
971.958	300
974.298	320
976.638	318
978.976	392
981.314	426
983.651	490
985.988	578
988.323	744
990.659	1154
992.992	1666
995.325	1856
997.658	2348
999.99	4116
1002.32	6460
1004.65	6076
1006.98	3372
1009.31	1568
1011.64	784
1013.97	546
1016.29	454
1018.62	432
1020.94	486
1023.27	594
1025.59	764
1027.91	1180
1030.24	1610
1032.56	1870
1034.88	1856
1037.2	1430
1039.52	956
1041.84	656
1044.15	536
1046.47	442
1048.79	422
1051.1	390
1053.42	382
1055.73	386
1058.04	368
1060.36	358
1062.67	368
1064.98	408
1067.29	422
1069.6	406
1071.91	422
1074.22	410
1076.52	418
1078.83	398
1081.14	390
1083.44	392
1085.75	388
1088.05	382
1090.35	372
1092.65	396
1094.95	410
1097.26	392
1099.56	412
1101.86	398
1104.15	386
1106.45	356
1108.75	324
1111.05	324
1113.34	320
1115.64	294
1117.93	296
1120.22	288
1122.52	252
1124.81	250
1127.1	258
1129.39	242
1131.68	240
1133.97	250
1136.26	258
1138.54	258
1140.83	280
1143.12	304
1145.4	350
1147.69	396
1149.97	472
1152.25	630
1154.54	862
1156.82	926
1159.1	842
1161.38	676
1163.66	552
1165.94	470
1168.22	472
1170.49	494
1172.77	534
1175.05	618
1177.32	734
1179.6	974
1181.87	1120
1184.14	1166
1186.42	1058
1188.69	1004
1190.96	1026
1193.23	1086
1195.5	1202
1197.77	1194
1200.03	1200
1202.3	1136
1204.57	1052
1206.83	928
1209.1	852
1211.36	710
1213.63	612
1215.89	520
1218.15	496
1220.41	448
1222.67	424
1224.93	434
1227.19	428
1229.45	406
1231.71	390
1233.97	370
1236.22	368
1238.48	334
1240.73	350
1242.99	336
1245.24	330
1247.5	338
1249.75	328
1252	326
1254.25	328
1256.5	318
1258.75	318
1261	324
1263.25	324
1265.49	326
1267.74	322
1269.99	348
1272.23	328
1274.48	306
1276.72	324
1278.96	320
1281.21	326
1283.45	338
1285.69	320
1287.93	334
1290.17	348
1292.41	340
1294.64	364
1296.88	364
1299.12	374
1301.36	386
1303.59	370
1305.82	390
1308.06	392
1310.29	380
1312.52	412
1314.76	424
1316.99	428
1319.22	448
1321.45	474
1323.68	496
1325.9	494
1328.13	488
1330.36	506
1332.58	490
1334.81	498
1337.04	460
1339.26	428
1341.48	404
1343.71	380
1345.93	370
1348.15	358
1350.37	346
1352.59	354
1354.81	352
1357.03	330
1359.24	334
1361.46	346
1363.68	350
1365.89	340
1368.11	358
1370.32	350
1372.54	352
1374.75	336
1376.96	326
1379.17	354
1381.38	314
1383.59	306
1385.8	306
1388.01	270
1390.22	258
1392.43	246
1394.63	236
1396.84	244
1399.05	248
1401.25	264
1403.45	232
1405.66	226
1407.86	256
1410.06	252
1412.26	242
1414.46	236
1416.66	230
1418.86	240
1421.06	242
1423.26	224
1425.46	236
1427.65	254
1429.85	252
1432.04	254
1434.24	288
1436.43	348
1438.62	372
1440.82	412
1443.01	470
1445.2	518
1447.39	554
1449.58	578
1451.77	552
1453.95	544
1456.14	506
1458.33	426
1460.52	356
1462.7	304
1464.89	282
1467.07	252
1469.25	262
1471.44	256
1473.62	256
1475.8	256
1477.98	270
1480.16	250
1482.34	244
1484.52	240
1486.7	246
1488.87	244
1491.05	252
1493.23	256
1495.4	288
1497.58	288
1499.75	246
1501.92	242
1504.1	236
1506.27	234
1508.44	240
1510.61	226
1512.78	240
1514.95	228
1517.12	252
1519.28	248
1521.45	250
1523.62	248
1525.78	232
1527.95	240
1530.11	244
1532.28	246
1534.44	244
1536.6	262
1538.76	242
1540.93	242
1543.09	248
1545.25	272
1547.41	254
1549.56	244
1551.72	252
1553.88	272
1556.03	262
1558.19	264
1560.35	270
1562.5	292
1564.65	280
1566.81	294
1568.96	310
1571.11	338
1573.26	360
1575.41	388
1577.56	434
1579.71	562
1581.86	786
1584.01	986
1586.15	858
1588.3	700
1590.45	578
1592.59	580
1594.74	668
1596.88	842
1599.02	1182
1601.17	1638
1603.31	1822
1605.45	1654
1607.59	1282
1609.73	896
1611.87	656
1614.01	538
1616.14	478
1618.28	392
1620.42	372
1622.55	350
1624.69	336
1626.82	316
1628.96	316
1631.09	292
1633.22	292
1635.36	302
1637.49	292
1639.62	296
1641.75	312
1643.88	320
1646	320
1648.13	316
1650.26	322
1652.39	330
1654.51	272
1656.64	290
1658.76	284
1660.89	258
1663.01	278
1665.13	244
1667.26	264
1669.38	274
1671.5	274
1673.62	276
1675.74	272
1677.86	272
1679.97	268
1682.09	266
1684.21	274
1686.33	268
1688.44	260
1690.56	248
1692.67	280
1694.78	276
1696.9	262
1699.01	252
1701.12	254
1703.23	258
1705.34	238
1707.45	246
1709.56	246
1711.67	272
1713.78	240
1715.88	252
1717.99	252
1720.1	264
1722.2	256
1724.31	258
1726.41	252
1728.51	258
1730.62	262
1732.72	254
1734.82	250
1736.92	258
1739.02	258
1741.12	260
1743.22	256
1745.32	258
1747.42	246
1749.51	276
1751.61	256
1753.7	256
1755.8	236
1757.89	254
1759.99	270
1762.08	262
1764.17	260
1766.26	256
1768.36	256
1770.45	264
1772.54	248
1774.62	248
1776.71	260
1778.8	250
1780.89	258
1782.98	248
1785.06	278
1787.15	262
1789.23	252
1791.32	270
1793.4	270
1795.48	260
1797.56	258
1799.65	266
1801.73	266
1803.81	268
1805.89	270
1807.97	268
1810.04	264
1812.12	282
1814.2	274
1816.28	262
1818.35	274
1820.43	270
1822.5	274
1824.58	258
1826.65	278
1828.72	250
1830.79	284
1832.86	256
1834.94	274
1837.01	254
1839.08	286
1841.15	276
1843.21	280
1845.28	244
1847.35	274
1849.41	286
1851.48	254
1853.55	274
1855.61	258
1857.67	266
1859.74	272
1861.8	278
1863.86	272
1865.92	252
1867.98	278
1870.05	270
1872.1	274
1874.16	258
1876.22	278
1878.28	268
1880.34	246
1882.39	270
1884.45	268
1886.5	274
1888.56	288
1890.61	284
1892.67	274
1894.72	272
1896.77	280
1898.82	294
1900.87	286
1902.92	286
1904.97	282
1907.02	278
1909.07	288
1911.12	274
1913.17	302
1915.21	274
1917.26	284
1919.3	272
1921.35	276
1923.39	284
1925.43	272
1927.48	296
1929.52	284
1931.56	288
1933.6	302
1935.64	268
1937.68	298
1939.72	284
1941.76	302
1943.8	282
1945.83	298
1947.87	288
1949.91	288
1951.94	284
1953.98	286
1956.01	290
1958.05	292
1960.08	290
1962.11	274
1964.14	276
1966.17	290
1968.2	274
1970.23	270
1972.26	280
1974.29	274
1976.32	286
1978.35	288
1980.37	286
1982.4	292
1984.43	284
1986.45	294
1988.48	286
1990.5	280
1992.52	272
1994.55	286
1996.57	290
1998.59	296
2000.61	282
2002.63	294
2004.65	282
2006.67	286
2008.69	300
2010.7	300
2012.72	304
2014.74	288
2016.75	304
2018.77	290
2020.78	278
2022.8	306
2024.81	302
2026.83	292
2028.84	300
2030.85	298
2032.86	282
2034.87	274
2036.88	296
2038.89	302
2040.9	282
2042.91	294
2044.91	300
2046.92	288
2048.93	306
2050.93	294
2052.94	300
2054.94	304
2056.95	290
2058.95	302
2060.95	292
2062.95	314
2064.96	298
2066.96	302
2068.96	290
2070.96	302
2072.96	300
2074.95	310
2076.95	298
2078.95	284
2080.95	302
2082.94	294
2084.94	286
2086.93	282
2088.93	304
2090.92	308
2092.91	312
2094.91	326
2096.9	308
2098.89	298
2100.88	302
2102.87	312
2104.86	290
2106.85	288
2108.84	292
2110.83	308
2112.81	298
2114.8	306
2116.78	306
2118.77	314
2120.75	304
2122.74	312
2124.72	320
2126.71	316
2128.69	302
2130.67	308
2132.65	304
2134.63	310
2136.61	312
2138.59	310
2140.57	306
2142.55	320
2144.53	298
2146.5	298
2148.48	294
2150.46	314
2152.43	306
2154.41	314
2156.38	310
2158.35	320
2160.33	314
2162.3	314
2164.27	332
2166.24	304
2168.21	298
2170.18	308
2172.15	302
2174.12	306
2176.09	308
2178.06	306
2180.03	322
2181.99	318
2183.96	332
2185.92	316
2187.89	306
2189.85	330
2191.82	328
2193.78	304
2195.74	320
2197.7	314
2199.67	312
2201.63	328
2203.59	322
2205.55	322
2207.51	316
2209.46	298
2211.42	298
2213.38	322
2215.34	320
2217.29	316
2219.25	320
2221.2	320
2223.16	294
2225.11	320
2227.06	332
2229.02	308
2230.97	330
2232.92	318
2234.87	324
2236.82	316
2238.77	306
2240.72	304
2242.67	322
2244.62	316
2246.57	314
2248.51	332
2250.46	314
2252.4	336
2254.35	320
2256.29	310
2258.24	312
2260.18	314
2262.13	314
2264.07	322
2266.01	308
2267.95	328
2269.89	310
2271.83	304
2273.77	324
2275.71	318
2277.65	312
2279.58	306
2281.52	310
2283.46	316
2285.4	328
2287.33	332
2289.27	310
2291.2	320
2293.13	312
2295.07	314
2297	334
2298.93	316
2300.86	330
2302.79	328
2304.72	322
2306.65	322
2308.58	330
2310.51	338
2312.44	342
2314.37	336
2316.29	338
2318.22	328
2320.15	326
2322.07	316
2324	324
2325.92	340
2327.84	342
2329.77	308
2331.69	328
2333.61	324
2335.53	332
2337.45	334
2339.37	320
2341.29	354
2343.21	332
2345.13	310
2347.05	322
2348.97	338
2350.88	328
2352.8	324
2354.71	334
2356.63	336
2358.54	340
2360.46	322
2362.37	336
2364.28	314
2366.2	332
2368.11	342
2370.02	318
2371.93	336
2373.84	326
2375.75	348
2377.66	340
2379.57	330
2381.47	322
2383.38	314
2385.29	332
2387.2	338
2389.1	332
2391.01	322
2392.91	324
2394.81	328
2396.72	330
2398.62	330
2400.52	336
2402.42	338
2404.33	346
2406.23	338
2408.13	344
2410.03	334
2411.92	344
2413.82	336
2415.72	348
2417.62	348
2419.51	318
2421.41	342
2423.31	344
2425.2	324
2427.1	348
2428.99	348
2430.88	330
2432.78	350
2434.67	320
2436.56	356
2438.45	334
2440.34	344
2442.23	356
2444.12	332
2446.01	354
2447.9	338
2449.79	346