File: Mixture_Classification/Jesse_Dataset_v2/Pure Raman/Polystyrene/633nm/ps-ppo-7jan25-1,0000-map3_Y09_X01.txt
182.393	1124
184.993	1074
187.593	1072
190.193	1066
192.79	1042
195.387	1036
197.983	1018
200.578	1002
203.174	1038
205.766	1050
208.36	1076
210.951	1070
213.542	1108
216.131	1144
218.721	1142
221.309	1158
223.897	1158
226.483	1100
229.069	1076
231.654	1004
234.238	894
236.821	826
239.404	758
241.984	666
244.566	574
247.145	540
249.723	504
252.302	466
254.878	450
257.455	428
260.03	432
262.604	408
265.178	398
267.75	410
270.322	396
272.893	380
275.463	380
278.032	400
280.601	380
283.168	364
285.734	352
288.301	356
290.866	334
293.429	318
295.992	328
298.556	298
301.117	310
303.677	308
306.236	296
308.795	302
311.354	314
313.911	318
316.467	324
319.022	316
321.577	314
324.13	308
326.684	294
329.236	312
331.787	302
334.337	306
336.887	298
339.435	280
341.983	284
344.529	308
347.075	300
349.621	272
352.165	278
354.708	292
357.251	266
359.793	288
362.334	284
364.874	292
367.413	276
369.951	282
372.489	286
375.026	292
377.562	282
380.097	306
382.631	312
385.164	320
387.697	318
390.229	338
392.76	334
395.29	346
397.819	350
400.346	362
402.873	366
405.4	396
407.926	404
410.451	400
412.976	394
415.499	358
418.02	352
420.542	338
423.063	318
425.583	318
428.101	296
430.619	290
433.137	290
435.654	276
438.169	282
440.684	284
443.198	284
445.712	262
448.223	262
450.735	246
453.246	258
455.755	234
458.264	248
460.771	230
463.279	244
465.786	238
468.291	242
470.796	252
473.301	238
475.803	240
478.306	242
480.807	238
483.308	222
485.807	212
488.307	218
490.804	222
493.302	232
495.798	222
498.294	226
500.788	246
503.283	254
505.775	252
508.269	252
510.759	236
513.251	236
515.74	230
518.23	242
520.718	252
523.204	250
525.692	248
528.177	250
530.663	274
533.147	280
535.629	284
538.113	298
540.594	310
543.074	300
545.555	312
548.034	290
550.512	302
552.989	296
555.467	296
557.942	292
560.417	302
562.892	290
565.365	294
567.838	294
570.309	306
572.78	292
575.251	300
577.72	278
580.189	292
582.656	252
585.123	250
587.589	254
590.055	256
592.52	260
594.983	248
597.446	272
599.908	268
602.369	252
604.829	272
607.289	316
609.747	322
612.205	314
614.663	366
617.119	462
619.574	758
622.029	1140
624.483	1030
626.936	588
629.389	368
631.84	316
634.291	282
636.741	258
639.19	258
641.639	244
644.086	224
646.533	222
648.979	220
651.424	218
653.869	214
656.313	198
658.754	210
661.196	208
663.638	214
666.078	222
668.518	212
670.957	198
673.394	216
675.831	222
678.268	208
680.703	204
683.137	218
685.571	210
688.005	222
690.437	218
692.868	220
695.299	210
697.729	242
700.159	252
702.586	254
705.014	258
707.441	252
709.866	244
712.292	248
714.716	258
717.14	250
719.563	268
721.984	296
724.406	334
726.825	360
729.246	348
731.665	302
734.082	314
736.5	330
738.916	384
741.332	414
743.746	426
746.161	442
748.574	442
750.987	444
753.398	484
755.81	500
758.219	500
760.629	534
763.037	534
765.445	524
767.852	510
770.258	500
772.664	480
775.068	458
777.472	460
779.876	474
782.278	520
784.679	542
787.08	614
789.48	654
791.879	704
794.278	732
796.675	746
799.072	744
801.467	660
803.864	580
806.258	526
808.651	472
811.044	432
813.437	432
815.828	414
818.218	370
820.608	350
822.997	306
825.385	320
827.773	316
830.16	298
832.546	334
834.931	334
837.315	362
839.699	414
842.081	404
844.463	422
846.844	428
849.226	372
851.606	378
853.985	342
856.363	358
858.741	340
861.117	344
863.493	340
865.868	368
868.243	336
870.616	356
872.989	350
875.36	356
877.731	340
880.102	340
882.472	334
884.841	326
887.209	324
889.577	330
891.944	348
894.31	348
896.674	342
899.039	346
901.403	360
903.766	386
906.128	416
908.49	404
910.849	400
913.209	398
915.569	358
917.927	350
920.284	324
922.641	316
924.997	324
927.353	316
929.707	316
932.061	296
934.414	306
936.765	306
939.117	342
941.469	316
943.818	304
946.167	294
948.515	342
950.863	334
953.211	350
955.556	330
957.902	322
960.246	344
962.59	370
964.933	372
967.276	388
969.617	394
971.958	390
974.298	404
976.638	430
978.976	498
981.314	514
983.651	584
985.988	676
988.323	832
990.659	1232
992.992	1816
995.325	1966
997.658	2430
999.99	4280
1002.32	6670
1004.65	6120
1006.98	3436
1009.31	1644
1011.64	906
1013.97	646
1016.29	564
1018.62	554
1020.94	588
1023.27	706
1025.59	896
1027.91	1294
1030.24	1710
1032.56	2078
1034.88	1930
1037.2	1514
1039.52	1074
1041.84	790
1044.15	652
1046.47	554
1048.79	516
1051.1	498
1053.42	472
1055.73	480
1058.04	476
1060.36	452
1062.67	498
1064.98	534
1067.29	500
1069.6	516
1071.91	536
1074.22	492
1076.52	496
1078.83	506
1081.14	474
1083.44	496
1085.75	500
1088.05	504
1090.35	486
1092.65	490
1094.95	494
1097.26	500
1099.56	500
1101.86	496
1104.15	472
1106.45	478
1108.75	436
1111.05	416
1113.34	426
1115.64	388
1117.93	408
1120.22	388
1122.52	382
1124.81	358
1127.1	366
1129.39	346
1131.68	330
1133.97	352
1136.26	374
1138.54	374
1140.83	394
1143.12	406
1145.4	434
1147.69	478
1149.97	572
1152.25	718
1154.54	972
1156.82	1046
1159.1	918
1161.38	748
1163.66	676
1165.94	614
1168.22	568
1170.49	570
1172.77	632
1175.05	668
1177.32	860
1179.6	1036
1181.87	1198
1184.14	1290
1186.42	1172
1188.69	1088
1190.96	1108
1193.23	1204
1195.5	1256
1197.77	1328
1200.03	1268
1202.3	1224
1204.57	1164
1206.83	1056
1209.1	918
1211.36	790
1213.63	676
1215.89	630
1218.15	576
1220.41	558
1222.67	536
1224.93	530
1227.19	522
1229.45	494
1231.71	488
1233.97	464
1236.22	444
1238.48	444
1240.73	416
1242.99	434
1245.24	424
1247.5	432
1249.75	406
1252	416
1254.25	430
1256.5	414
1258.75	410
1261	416
1263.25	398
1265.49	414
1267.74	408
1269.99	394
1272.23	406
1274.48	402
1276.72	406
1278.96	408
1281.21	410
1283.45	406
1285.69	398
1287.93	418
1290.17	396
1292.41	424
1294.64	430
1296.88	434
1299.12	436
1301.36	472
1303.59	486
1305.82	458
1308.06	476
1310.29	490
1312.52	484
1314.76	470
1316.99	514
1319.22	524
1321.45	534
1323.68	560
1325.9	580
1328.13	558
1330.36	574
1332.58	552
1334.81	562
1337.04	534
1339.26	508
1341.48	506
1343.71	454
1345.93	464
1348.15	398
1350.37	414
1352.59	426
1354.81	394
1357.03	398
1359.24	402
1361.46	424
1363.68	422
1365.89	422
1368.11	412
1370.32	426
1372.54	434
1374.75	410
1376.96	380
1379.17	416
1381.38	378
1383.59	384
1385.8	352
1388.01	336
1390.22	332
1392.43	316
1394.63	310
1396.84	280
1399.05	332
1401.25	304
1403.45	330
1405.66	316
1407.86	314
1410.06	318
1412.26	318
1414.46	306
1416.66	324
1418.86	308
1421.06	302
1423.26	308
1425.46	296
1427.65	310
1429.85	318
1432.04	364
1434.24	364
1436.43	406
1438.62	424
1440.82	492
1443.01	520
1445.2	588
1447.39	630
1449.58	614
1451.77	608
1453.95	624
1456.14	544
1458.33	494
1460.52	414
1462.7	360
1464.89	352
1467.07	324
1469.25	316
1471.44	312
1473.62	310
1475.8	312
1477.98	292
1480.16	306
1482.34	314
1484.52	310
1486.7	314
1488.87	312
1491.05	326
1493.23	336
1495.4	334
1497.58	324
1499.75	306
1501.92	308
1504.1	296
1506.27	288
1508.44	314
1510.61	300
1512.78	310
1514.95	300
1517.12	308
1519.28	302
1521.45	294
1523.62	300
1525.78	308
1527.95	324
1530.11	322
1532.28	310
1534.44	296
1536.6	294
1538.76	288
1540.93	314
1543.09	292
1545.25	318
1547.41	306
1549.56	300
1551.72	298
1553.88	310
1556.03	326
1558.19	330
1560.35	314
1562.5	330
1564.65	330
1566.81	352
1568.96	358
1571.11	372
1573.26	410
1575.41	436
1577.56	508
1579.71	602
1581.86	828
1584.01	1034
1586.15	952
1588.3	758
1590.45	634
1592.59	660
1594.74	728
1596.88	884
1599.02	1246
1601.17	1694
1603.31	1948
1605.45	1722
1607.59	1352
1609.73	942
1611.87	706
1614.01	572
1616.14	500
1618.28	458
1620.42	430
1622.55	412
1624.69	384
1626.82	378
1628.96	352
1631.09	364
1633.22	356
1635.36	342
1637.49	342
1639.62	348
1641.75	346
1643.88	348
1646	378
1648.13	362
1650.26	348
1652.39	352
1654.51	322
1656.64	318
1658.76	332
1660.89	296
1663.01	298
1665.13	332
1667.26	306
1669.38	302
1671.5	300
1673.62	308
1675.74	320
1677.86	314
1679.97	314
1682.09	326
1684.21	310
1686.33	324
1688.44	304
1690.56	298
1692.67	302
1694.78	312
1696.9	322
1699.01	304
1701.12	336
1703.23	308
1705.34	296
1707.45	292
1709.56	296
1711.67	298
1713.78	296
1715.88	288
1717.99	304
1720.1	334
1722.2	306
1724.31	302
1726.41	318
1728.51	298
1730.62	302
1732.72	298
1734.82	308
1736.92	306
1739.02	306
1741.12	310
1743.22	296
1745.32	296
1747.42	298
1749.51	310
1751.61	304
1753.7	310
1755.8	294
1757.89	296
1759.99	308
1762.08	306
1764.17	312
1766.26	302
1768.36	306
1770.45	314
1772.54	308
1774.62	302
1776.71	306
1778.8	300
1780.89	296
1782.98	298
1785.06	312
1787.15	296
1789.23	322
1791.32	294
1793.4	302
1795.48	306
1797.56	312
1799.65	310
1801.73	318
1803.81	278
1805.89	298
1807.97	290
1810.04	314
1812.12	324
1814.2	330
1816.28	314
1818.35	296
1820.43	318
1822.5	304
1824.58	322
1826.65	324
1828.72	298
1830.79	316
1832.86	302
1834.94	314
1837.01	298
1839.08	316
1841.15	312
1843.21	310
1845.28	312
1847.35	296
1849.41	306
1851.48	312
1853.55	314
1855.61	314
1857.67	308
1859.74	318
1861.8	318
1863.86	306
1865.92	302
1867.98	308
1870.05	308
1872.1	318
1874.16	288
1876.22	332
1878.28	298
1880.34	308
1882.39	318
1884.45	298
1886.5	314
1888.56	304
1890.61	302
1892.67	318
1894.72	314
1896.77	306
1898.82	334
1900.87	314
1902.92	312
1904.97	318
1907.02	308
1909.07	330
1911.12	316
1913.17	328
1915.21	318
1917.26	322
1919.3	332
1921.35	324
1923.39	328
1925.43	326
1927.48	308
1929.52	318
1931.56	306
1933.6	308
1935.64	326
1937.68	328
1939.72	332
1941.76	324
1943.8	324
1945.83	328
1947.87	334
1949.91	334
1951.94	340
1953.98	306
1956.01	338
1958.05	310
1960.08	330
1962.11	354
1964.14	314
1966.17	308
1968.2	330
1970.23	336
1972.26	318
1974.29	324
1976.32	314
1978.35	320
1980.37	318
1982.4	332
1984.43	310
1986.45	314
1988.48	330
1990.5	314
1992.52	330
1994.55	312
1996.57	316
1998.59	334
2000.61	320
2002.63	312
2004.65	326
2006.67	314
2008.69	324
2010.7	336
2012.72	298
2014.74	328
2016.75	304
2018.77	310
2020.78	328
2022.8	322
2024.81	316
2026.83	326
2028.84	348
2030.85	316
2032.86	324
2034.87	310
2036.88	338
2038.89	324
2040.9	312
2042.91	332
2044.91	332
2046.92	334
2048.93	340
2050.93	328
2052.94	338
2054.94	334
2056.95	342
2058.95	324
2060.95	342
2062.95	330
2064.96	330
2066.96	342
2068.96	332
2070.96	336
2072.96	322
2074.95	328
2076.95	324
2078.95	320
2080.95	334
2082.94	336
2084.94	332
2086.93	326
2088.93	328
2090.92	304
2092.91	324
2094.91	330
2096.9	326
2098.89	340
2100.88	312
2102.87	328
2104.86	322
2106.85	328
2108.84	332
2110.83	328
2112.81	338
2114.8	336
2116.78	322
2118.77	336
2120.75	344
2122.74	320
2124.72	346
2126.71	328
2128.69	342
2130.67	348
2132.65	332
2134.63	330
2136.61	334
2138.59	334
2140.57	310
2142.55	334
2144.53	332
2146.5	330
2148.48	334
2150.46	338
2152.43	340
2154.41	318
2156.38	350
2158.35	348
2160.33	340
2162.3	340
2164.27	342
2166.24	346
2168.21	366
2170.18	348
2172.15	336
2174.12	340
2176.09	352
2178.06	338
2180.03	326
2181.99	324
2183.96	336
2185.92	342
2187.89	322
2189.85	346
2191.82	340
2193.78	362
2195.74	352
2197.7	342
2199.67	356
2201.63	354
2203.59	332
2205.55	344
2207.51	328
2209.46	336
2211.42	344
2213.38	334
2215.34	344
2217.29	352
2219.25	336
2221.2	346
2223.16	346
2225.11	350
2227.06	336
2229.02	332
2230.97	342
2232.92	360
2234.87	334
2236.82	338
2238.77	342
2240.72	348
2242.67	336
2244.62	334
2246.57	348
2248.51	340
2250.46	346
2252.4	344
2254.35	334
2256.29	348
2258.24	360
2260.18	336
2262.13	336
2264.07	328
2266.01	352
2267.95	346
2269.89	332
2271.83	344
2273.77	330
2275.71	338
2277.65	346
2279.58	318
2281.52	332
2283.46	342
2285.4	332
2287.33	350
2289.27	340
2291.2	354
2293.13	334
2295.07	346
2297	332
2298.93	338
2300.86	340
2302.79	342
2304.72	348
2306.65	356
2308.58	358
2310.51	342
2312.44	332
2314.37	352
2316.29	326
2318.22	340
2320.15	358
2322.07	344
2324	350
2325.92	352
2327.84	348
2329.77	344
2331.69	352
2333.61	336
2335.53	368
2337.45	352
2339.37	332
2341.29	344
2343.21	340
2345.13	350
2347.05	354
2348.97	364
2350.88	354
2352.8	346
2354.71	354
2356.63	340
2358.54	360
2360.46	346
2362.37	358
2364.28	372
2366.2	362
2368.11	340
2370.02	352
2371.93	336
2373.84	354
2375.75	372
2377.66	352
2379.57	362
2381.47	352
2383.38	344
2385.29	364
2387.2	328
2389.1	356
2391.01	354
2392.91	344
2394.81	354
2396.72	338
2398.62	356
2400.52	346
2402.42	350
2404.33	364
2406.23	352
2408.13	354
2410.03	358
2411.92	358
2413.82	374
2415.72	356
2417.62	358
2419.51	342
2421.41	350
2423.31	346
2425.2	358
2427.1	340
2428.99	366
2430.88	350
2432.78	344
2434.67	356
2436.56	358
2438.45	368
2440.34	364
2442.23	364
2444.12	360
2446.01	374
2447.9	348
2449.79	348