File: Mixture_Classification/Jesse_Dataset_v2/Pure Raman/Polystyrene/633nm/ps-ppo-7jan25-1,0000-map3_Y03_X02.txt
182.393	978
184.993	984
187.593	968
190.193	922
192.79	906
195.387	950
197.983	918
200.578	890
203.174	956
205.766	1006
208.36	986
210.951	998
213.542	1042
216.131	1054
218.721	1060
221.309	1110
223.897	1058
226.483	1006
229.069	1010
231.654	926
234.238	842
236.821	740
239.404	682
241.984	586
244.566	512
247.145	454
249.723	408
252.302	406
254.878	386
257.455	358
260.03	338
262.604	346
265.178	324
267.75	322
270.322	318
272.893	324
275.463	302
278.032	306
280.601	298
283.168	306
285.734	272
288.301	276
290.866	274
293.429	242
295.992	238
298.556	238
301.117	216
303.677	224
306.236	230
308.795	220
311.354	240
313.911	246
316.467	234
319.022	224
321.577	232
324.13	232
326.684	230
329.236	232
331.787	266
334.337	232
336.887	244
339.435	230
341.983	236
344.529	210
347.075	210
349.621	214
352.165	224
354.708	232
357.251	204
359.793	216
362.334	200
364.874	216
367.413	204
369.951	212
372.489	230
375.026	226
377.562	242
380.097	252
382.631	236
385.164	258
387.697	256
390.229	258
392.76	278
395.29	276
397.819	280
400.346	290
402.873	298
405.4	326
407.926	340
410.451	360
412.976	312
415.499	292
418.02	284
420.542	270
423.063	260
425.583	254
428.101	232
430.619	238
433.137	216
435.654	214
438.169	206
440.684	224
443.198	220
445.712	196
448.223	210
450.735	184
453.246	190
455.755	192
458.264	172
460.771	180
463.279	182
465.786	174
468.291	168
470.796	174
473.301	170
475.803	180
478.306	168
480.807	172
483.308	166
485.807	176
488.307	164
490.804	162
493.302	176
495.798	182
498.294	188
500.788	190
503.283	186
505.775	192
508.269	184
510.759	182
513.251	198
515.74	184
518.23	186
520.718	190
523.204	196
525.692	180
528.177	220
530.663	188
533.147	214
535.629	234
538.113	240
540.594	250
543.074	258
545.555	272
548.034	248
550.512	252
552.989	256
555.467	252
557.942	240
560.417	242
562.892	250
565.365	238
567.838	242
570.309	244
572.78	254
575.251	258
577.72	242
580.189	222
582.656	220
585.123	210
587.589	214
590.055	208
592.52	202
594.983	206
597.446	214
599.908	220
602.369	210
604.829	220
607.289	272
609.747	266
612.205	264
614.663	306
617.119	390
619.574	688
622.029	1102
624.483	990
626.936	526
629.389	336
631.84	290
634.291	238
636.741	212
639.19	196
641.639	198
644.086	194
646.533	176
648.979	176
651.424	170
653.869	164
656.313	172
658.754	168
661.196	152
663.638	166
666.078	172
668.518	170
670.957	164
673.394	174
675.831	174
678.268	168
680.703	170
683.137	168
685.571	172
688.005	174
690.437	162
692.868	158
695.299	162
697.729	186
700.159	194
702.586	214
705.014	202
707.441	208
709.866	202
712.292	212
714.716	208
717.14	206
719.563	214
721.984	238
724.406	292
726.825	318
729.246	292
731.665	270
734.082	272
736.5	300
738.916	318
741.332	350
743.746	376
746.161	400
748.574	396
750.987	402
753.398	436
755.81	434
758.219	468
760.629	478
763.037	458
765.445	464
767.852	482
770.258	424
772.664	414
775.068	414
777.472	408
779.876	438
782.278	462
784.679	480
787.08	534
789.48	610
791.879	648
794.278	634
796.675	708
799.072	686
801.467	610
803.864	550
806.258	462
808.651	418
811.044	396
813.437	372
815.828	358
818.218	314
820.608	282
822.997	260
825.385	254
827.773	238
830.16	266
832.546	272
834.931	300
837.315	316
839.699	334
842.081	362
844.463	358
846.844	346
849.226	328
851.606	310
853.985	312
856.363	312
858.741	288
861.117	268
863.493	294
865.868	298
868.243	294
870.616	292
872.989	302
875.36	296
877.731	298
880.102	292
882.472	266
884.841	274
887.209	268
889.577	294
891.944	258
894.31	270
896.674	300
899.039	306
901.403	314
903.766	330
906.128	336
908.49	358
910.849	314
913.209	326
915.569	298
917.927	274
920.284	266
922.641	260
924.997	242
927.353	240
929.707	258
932.061	240
934.414	252
936.765	246
939.117	240
941.469	260
943.818	248
946.167	274
948.515	280
950.863	254
953.211	266
955.556	256
957.902	284
960.246	286
962.59	314
964.933	324
967.276	318
969.617	326
971.958	334
974.298	326
976.638	354
978.976	402
981.314	446
983.651	516
985.988	604
988.323	794
990.659	1156
992.992	1680
995.325	1908
997.658	2324
999.99	4154
1002.32	6586
1004.65	6080
1006.98	3432
1009.31	1566
1011.64	846
1013.97	590
1016.29	482
1018.62	464
1020.94	528
1023.27	612
1025.59	826
1027.91	1198
1030.24	1616
1032.56	1970
1034.88	1880
1037.2	1440
1039.52	974
1041.84	704
1044.15	554
1046.47	500
1048.79	442
1051.1	394
1053.42	396
1055.73	394
1058.04	392
1060.36	404
1062.67	418
1064.98	420
1067.29	454
1069.6	422
1071.91	450
1074.22	418
1076.52	428
1078.83	430
1081.14	418
1083.44	424
1085.75	420
1088.05	416
1090.35	400
1092.65	392
1094.95	424
1097.26	440
1099.56	414
1101.86	410
1104.15	396
1106.45	378
1108.75	358
1111.05	346
1113.34	330
1115.64	338
1117.93	316
1120.22	312
1122.52	300
1124.81	274
1127.1	298
1129.39	266
1131.68	270
1133.97	270
1136.26	274
1138.54	312
1140.83	290
1143.12	338
1145.4	358
1147.69	392
1149.97	486
1152.25	656
1154.54	850
1156.82	988
1159.1	888
1161.38	714
1163.66	544
1165.94	520
1168.22	510
1170.49	506
1172.77	554
1175.05	644
1177.32	778
1179.6	964
1181.87	1176
1184.14	1210
1186.42	1114
1188.69	1032
1190.96	1090
1193.23	1132
1195.5	1212
1197.77	1230
1200.03	1220
1202.3	1166
1204.57	1072
1206.83	990
1209.1	874
1211.36	738
1213.63	634
1215.89	548
1218.15	504
1220.41	500
1222.67	478
1224.93	452
1227.19	452
1229.45	410
1231.71	384
1233.97	384
1236.22	358
1238.48	392
1240.73	350
1242.99	374
1245.24	352
1247.5	340
1249.75	350
1252	366
1254.25	350
1256.5	352
1258.75	352
1261	348
1263.25	352
1265.49	354
1267.74	350
1269.99	350
1272.23	350
1274.48	328
1276.72	344
1278.96	338
1281.21	342
1283.45	344
1285.69	338
1287.93	332
1290.17	372
1292.41	384
1294.64	364
1296.88	390
1299.12	398
1301.36	384
1303.59	426
1305.82	404
1308.06	410
1310.29	406
1312.52	416
1314.76	402
1316.99	448
1319.22	462
1321.45	470
1323.68	514
1325.9	526
1328.13	532
1330.36	524
1332.58	524
1334.81	510
1337.04	480
1339.26	466
1341.48	436
1343.71	422
1345.93	394
1348.15	386
1350.37	360
1352.59	370
1354.81	360
1357.03	358
1359.24	362
1361.46	370
1363.68	380
1365.89	372
1368.11	364
1370.32	384
1372.54	372
1374.75	382
1376.96	364
1379.17	340
1381.38	342
1383.59	322
1385.8	308
1388.01	292
1390.22	272
1392.43	266
1394.63	262
1396.84	268
1399.05	270
1401.25	268
1403.45	270
1405.66	256
1407.86	266
1410.06	282
1412.26	278
1414.46	256
1416.66	266
1418.86	262
1421.06	262
1423.26	242
1425.46	274
1427.65	278
1429.85	284
1432.04	296
1434.24	302
1436.43	350
1438.62	368
1440.82	434
1443.01	480
1445.2	528
1447.39	584
1449.58	572
1451.77	610
1453.95	596
1456.14	526
1458.33	450
1460.52	396
1462.7	340
1464.89	312
1467.07	288
1469.25	262
1471.44	268
1473.62	262
1475.8	268
1477.98	258
1480.16	274
1482.34	262
1484.52	248
1486.7	254
1488.87	266
1491.05	278
1493.23	280
1495.4	286
1497.58	294
1499.75	264
1501.92	272
1504.1	264
1506.27	258
1508.44	260
1510.61	256
1512.78	246
1514.95	270
1517.12	270
1519.28	256
1521.45	268
1523.62	256
1525.78	266
1527.95	244
1530.11	262
1532.28	274
1534.44	276
1536.6	238
1538.76	252
1540.93	270
1543.09	264
1545.25	250
1547.41	288
1549.56	278
1551.72	292
1553.88	276
1556.03	274
1558.19	282
1560.35	296
1562.5	294
1564.65	304
1566.81	314
1568.96	320
1571.11	344
1573.26	372
1575.41	400
1577.56	464
1579.71	586
1581.86	784
1584.01	972
1586.15	884
1588.3	704
1590.45	606
1592.59	590
1594.74	684
1596.88	886
1599.02	1212
1601.17	1644
1603.31	1910
1605.45	1726
1607.59	1304
1609.73	938
1611.87	680
1614.01	554
1616.14	488
1618.28	428
1620.42	380
1622.55	360
1624.69	342
1626.82	354
1628.96	334
1631.09	316
1633.22	312
1635.36	312
1637.49	332
1639.62	312
1641.75	310
1643.88	348
1646	330
1648.13	330
1650.26	352
1652.39	330
1654.51	320
1656.64	300
1658.76	288
1660.89	290
1663.01	284
1665.13	276
1667.26	284
1669.38	288
1671.5	274
1673.62	284
1675.74	274
1677.86	274
1679.97	276
1682.09	284
1684.21	296
1686.33	288
1688.44	298
1690.56	280
1692.67	284
1694.78	294
1696.9	284
1699.01	272
1701.12	272
1703.23	264
1705.34	286
1707.45	266
1709.56	288
1711.67	280
1713.78	276
1715.88	280
1717.99	274
1720.1	280
1722.2	280
1724.31	288
1726.41	288
1728.51	286
1730.62	284
1732.72	270
1734.82	292
1736.92	280
1739.02	264
1741.12	276
1743.22	260
1745.32	266
1747.42	256
1749.51	276
1751.61	266
1753.7	268
1755.8	288
1757.89	268
1759.99	272
1762.08	280
1764.17	282
1766.26	262
1768.36	280
1770.45	274
1772.54	284
1774.62	270
1776.71	282
1778.8	282
1780.89	290
1782.98	268
1785.06	262
1787.15	270
1789.23	276
1791.32	274
1793.4	276
1795.48	278
1797.56	286
1799.65	276
1801.73	282
1803.81	296
1805.89	274
1807.97	296
1810.04	296
1812.12	286
1814.2	294
1816.28	288
1818.35	294
1820.43	278
1822.5	278
1824.58	290
1826.65	266
1828.72	264
1830.79	288
1832.86	292
1834.94	290
1837.01	294
1839.08	280
1841.15	300
1843.21	278
1845.28	298
1847.35	292
1849.41	284
1851.48	264
1853.55	276
1855.61	280
1857.67	290
1859.74	288
1861.8	302
1863.86	286
1865.92	274
1867.98	288
1870.05	304
1872.1	296
1874.16	286
1876.22	298
1878.28	282
1880.34	280
1882.39	302
1884.45	292
1886.5	280
1888.56	312
1890.61	274
1892.67	304
1894.72	296
1896.77	282
1898.82	282
1900.87	292
1902.92	308
1904.97	292
1907.02	302
1909.07	296
1911.12	298
1913.17	302
1915.21	300
1917.26	286
1919.3	302
1921.35	300
1923.39	312
1925.43	298
1927.48	310
1929.52	316
1931.56	292
1933.6	296
1935.64	312
1937.68	312
1939.72	316
1941.76	316
1943.8	296
1945.83	300
1947.87	294
1949.91	306
1951.94	298
1953.98	306
1956.01	300
1958.05	318
1960.08	304
1962.11	310
1964.14	298
1966.17	288
1968.2	300
1970.23	318
1972.26	314
1974.29	302
1976.32	300
1978.35	310
1980.37	312
1982.4	292
1984.43	298
1986.45	302
1988.48	290
1990.5	306
1992.52	292
1994.55	296
1996.57	302
1998.59	306
2000.61	320
2002.63	300
2004.65	302
2006.67	298
2008.69	296
2010.7	300
2012.72	302
2014.74	310
2016.75	296
2018.77	310
2020.78	296
2022.8	324
2024.81	296
2026.83	320
2028.84	308
2030.85	302
2032.86	318
2034.87	306
2036.88	302
2038.89	308
2040.9	300
2042.91	328
2044.91	320
2046.92	310
2048.93	312
2050.93	296
2052.94	318
2054.94	308
2056.95	304
2058.95	316
2060.95	304
2062.95	326
2064.96	314
2066.96	312
2068.96	332
2070.96	322
2072.96	318
2074.95	302
2076.95	320
2078.95	318
2080.95	324
2082.94	304
2084.94	306
2086.93	322
2088.93	310
2090.92	320
2092.91	310
2094.91	324
2096.9	322
2098.89	318
2100.88	314
2102.87	314
2104.86	306
2106.85	302
2108.84	316
2110.83	318
2112.81	326
2114.8	332
2116.78	322
2118.77	334
2120.75	326
2122.74	312
2124.72	338
2126.71	328
2128.69	330
2130.67	326
2132.65	334
2134.63	318
2136.61	312
2138.59	330
2140.57	312
2142.55	324
2144.53	336
2146.5	334
2148.48	340
2150.46	336
2152.43	334
2154.41	322
2156.38	328
2158.35	330
2160.33	320
2162.3	330
2164.27	334
2166.24	310
2168.21	322
2170.18	324
2172.15	324
2174.12	332
2176.09	308
2178.06	338
2180.03	334
2181.99	318
2183.96	328
2185.92	336
2187.89	348
2189.85	316
2191.82	330
2193.78	338
2195.74	328
2197.7	326
2199.67	330
2201.63	336
2203.59	330
2205.55	336
2207.51	318
2209.46	342
2211.42	318
2213.38	336
2215.34	338
2217.29	340
2219.25	320
2221.2	336
2223.16	336
2225.11	320
2227.06	344
2229.02	348
2230.97	340
2232.92	338
2234.87	318
2236.82	342
2238.77	346
2240.72	332
2242.67	352
2244.62	340
2246.57	326
2248.51	338
2250.46	328
2252.4	326
2254.35	310
2256.29	330
2258.24	336
2260.18	312
2262.13	336
2264.07	344
2266.01	338
2267.95	330
2269.89	352
2271.83	332
2273.77	340
2275.71	340
2277.65	336
2279.58	334
2281.52	340
2283.46	316
2285.4	326
2287.33	334
2289.27	326
2291.2	344
2293.13	334
2295.07	328
2297	342
2298.93	346
2300.86	330
2302.79	326
2304.72	342
2306.65	338
2308.58	350
2310.51	338
2312.44	332
2314.37	340
2316.29	346
2318.22	350
2320.15	346
2322.07	336
2324	344
2325.92	346
2327.84	342
2329.77	344
2331.69	330
2333.61	326
2335.53	344
2337.45	326
2339.37	330
2341.29	352
2343.21	348
2345.13	344
2347.05	350
2348.97	332
2350.88	348
2352.8	342
2354.71	344
2356.63	346
2358.54	318
2360.46	332
2362.37	352
2364.28	358
2366.2	362
2368.11	354
2370.02	346
2371.93	346
2373.84	352
2375.75	350
2377.66	354
2379.57	364
2381.47	358
2383.38	342
2385.29	342
2387.2	346
2389.1	342
2391.01	352
2392.91	358
2394.81	340
2396.72	360
2398.62	334
2400.52	338
2402.42	356
2404.33	336
2406.23	338
2408.13	342
2410.03	362
2411.92	366
2413.82	346
2415.72	350
2417.62	362
2419.51	360
2421.41	372
2423.31	342
2425.2	374
2427.1	352
2428.99	362
2430.88	364
2432.78	362
2434.67	360
2436.56	352
2438.45	354
2440.34	366
2442.23	362
2444.12	374
2446.01	350
2447.9	366
2449.79	360