File: Mixture_Classification/Jesse_Dataset_v2/Pure Raman/Polystyrene/633nm/ps-ppo-7jan25-1,0000-map3_Y09_X06.txt
182.393	1024
184.993	996
187.593	948
190.193	922
192.79	950
195.387	890
197.983	932
200.578	942
203.174	914
205.766	926
208.36	1006
210.951	1020
213.542	1022
216.131	1000
218.721	1064
221.309	1064
223.897	1068
226.483	1006
229.069	972
231.654	908
234.238	798
236.821	708
239.404	674
241.984	560
244.566	506
247.145	472
249.723	428
252.302	406
254.878	372
257.455	366
260.03	332
262.604	322
265.178	326
267.75	336
270.322	326
272.893	304
275.463	318
278.032	306
280.601	280
283.168	290
285.734	276
288.301	260
290.866	252
293.429	248
295.992	240
298.556	218
301.117	232
303.677	224
306.236	238
308.795	214
311.354	228
313.911	230
316.467	226
319.022	218
321.577	242
324.13	222
326.684	222
329.236	222
331.787	210
334.337	226
336.887	226
339.435	222
341.983	214
344.529	218
347.075	204
349.621	206
352.165	200
354.708	212
357.251	204
359.793	184
362.334	206
364.874	196
367.413	214
369.951	210
372.489	214
375.026	234
377.562	228
380.097	224
382.631	218
385.164	258
387.697	222
390.229	250
392.76	262
395.29	274
397.819	276
400.346	280
402.873	288
405.4	330
407.926	334
410.451	322
412.976	300
415.499	288
418.02	266
420.542	260
423.063	254
425.583	248
428.101	214
430.619	228
433.137	218
435.654	222
438.169	198
440.684	212
443.198	212
445.712	222
448.223	200
450.735	198
453.246	186
455.755	188
458.264	172
460.771	160
463.279	174
465.786	174
468.291	170
470.796	164
473.301	170
475.803	190
478.306	158
480.807	180
483.308	156
485.807	162
488.307	158
490.804	162
493.302	164
495.798	168
498.294	170
500.788	192
503.283	196
505.775	198
508.269	182
510.759	178
513.251	184
515.74	184
518.23	178
520.718	180
523.204	186
525.692	190
528.177	200
530.663	218
533.147	214
535.629	230
538.113	230
540.594	258
543.074	266
545.555	254
548.034	254
550.512	238
552.989	258
555.467	232
557.942	234
560.417	222
562.892	224
565.365	226
567.838	238
570.309	222
572.78	230
575.251	238
577.72	230
580.189	210
582.656	196
585.123	218
587.589	198
590.055	212
592.52	210
594.983	200
597.446	194
599.908	220
602.369	194
604.829	232
607.289	212
609.747	268
612.205	262
614.663	308
617.119	412
619.574	682
622.029	1110
624.483	994
626.936	522
629.389	292
631.84	272
634.291	222
636.741	216
639.19	188
641.639	182
644.086	172
646.533	152
648.979	160
651.424	156
653.869	162
656.313	156
658.754	156
661.196	160
663.638	162
666.078	164
668.518	144
670.957	150
673.394	160
675.831	138
678.268	156
680.703	158
683.137	158
685.571	150
688.005	142
690.437	156
692.868	166
695.299	164
697.729	166
700.159	176
702.586	184
705.014	184
707.441	200
709.866	208
712.292	186
714.716	218
717.14	198
719.563	206
721.984	254
724.406	296
726.825	290
729.246	266
731.665	264
734.082	260
736.5	292
738.916	298
741.332	350
743.746	358
746.161	360
748.574	362
750.987	396
753.398	400
755.81	432
758.219	448
760.629	470
763.037	450
765.445	440
767.852	430
770.258	410
772.664	402
775.068	410
777.472	394
779.876	408
782.278	442
784.679	462
787.08	540
789.48	598
791.879	638
794.278	642
796.675	648
799.072	642
801.467	582
803.864	524
806.258	442
808.651	430
811.044	360
813.437	356
815.828	318
818.218	300
820.608	284
822.997	256
825.385	262
827.773	236
830.16	260
832.546	266
834.931	278
837.315	304
839.699	338
842.081	352
844.463	346
846.844	340
849.226	304
851.606	282
853.985	296
856.363	282
858.741	270
861.117	262
863.493	256
865.868	304
868.243	264
870.616	284
872.989	272
875.36	270
877.731	274
880.102	276
882.472	256
884.841	256
887.209	258
889.577	262
891.944	252
894.31	262
896.674	254
899.039	258
901.403	302
903.766	314
906.128	338
908.49	338
910.849	298
913.209	288
915.569	288
917.927	244
920.284	236
922.641	234
924.997	240
927.353	226
929.707	244
932.061	222
934.414	240
936.765	222
939.117	228
941.469	248
943.818	242
946.167	244
948.515	226
950.863	218
953.211	240
955.556	252
957.902	254
960.246	254
962.59	284
964.933	300
967.276	328
969.617	298
971.958	320
974.298	308
976.638	338
978.976	376
981.314	458
983.651	472
985.988	636
988.323	774
990.659	1106
992.992	1674
995.325	1844
997.658	2256
999.99	4178
1002.32	6502
1004.65	5960
1006.98	3364
1009.31	1542
1011.64	790
1013.97	566
1016.29	450
1018.62	458
1020.94	464
1023.27	598
1025.59	822
1027.91	1138
1030.24	1618
1032.56	1918
1034.88	1822
1037.2	1398
1039.52	964
1041.84	692
1044.15	528
1046.47	458
1048.79	436
1051.1	402
1053.42	384
1055.73	360
1058.04	376
1060.36	370
1062.67	396
1064.98	402
1067.29	414
1069.6	418
1071.91	424
1074.22	410
1076.52	424
1078.83	436
1081.14	432
1083.44	378
1085.75	404
1088.05	392
1090.35	404
1092.65	392
1094.95	440
1097.26	426
1099.56	418
1101.86	402
1104.15	380
1106.45	394
1108.75	334
1111.05	322
1113.34	338
1115.64	314
1117.93	302
1120.22	320
1122.52	284
1124.81	262
1127.1	242
1129.39	228
1131.68	270
1133.97	252
1136.26	252
1138.54	262
1140.83	270
1143.12	296
1145.4	328
1147.69	398
1149.97	472
1152.25	644
1154.54	860
1156.82	936
1159.1	864
1161.38	732
1163.66	548
1165.94	496
1168.22	478
1170.49	476
1172.77	534
1175.05	616
1177.32	732
1179.6	934
1181.87	1142
1184.14	1168
1186.42	1040
1188.69	992
1190.96	1040
1193.23	1080
1195.5	1174
1197.77	1210
1200.03	1224
1202.3	1120
1204.57	1066
1206.83	940
1209.1	790
1211.36	698
1213.63	634
1215.89	538
1218.15	476
1220.41	450
1222.67	424
1224.93	428
1227.19	432
1229.45	422
1231.71	422
1233.97	366
1236.22	362
1238.48	342
1240.73	338
1242.99	352
1245.24	338
1247.5	352
1249.75	314
1252	342
1254.25	336
1256.5	316
1258.75	334
1261	314
1263.25	356
1265.49	340
1267.74	344
1269.99	338
1272.23	334
1274.48	324
1276.72	336
1278.96	334
1281.21	320
1283.45	352
1285.69	330
1287.93	334
1290.17	354
1292.41	376
1294.64	342
1296.88	360
1299.12	386
1301.36	394
1303.59	390
1305.82	400
1308.06	420
1310.29	402
1312.52	394
1314.76	426
1316.99	442
1319.22	442
1321.45	460
1323.68	510
1325.9	520
1328.13	520
1330.36	526
1332.58	522
1334.81	488
1337.04	456
1339.26	442
1341.48	410
1343.71	398
1345.93	360
1348.15	364
1350.37	362
1352.59	360
1354.81	346
1357.03	354
1359.24	352
1361.46	334
1363.68	354
1365.89	358
1368.11	362
1370.32	352
1372.54	364
1374.75	356
1376.96	346
1379.17	346
1381.38	308
1383.59	312
1385.8	296
1388.01	286
1390.22	278
1392.43	258
1394.63	248
1396.84	262
1399.05	262
1401.25	248
1403.45	286
1405.66	252
1407.86	258
1410.06	274
1412.26	264
1414.46	240
1416.66	248
1418.86	248
1421.06	246
1423.26	256
1425.46	268
1427.65	274
1429.85	262
1432.04	272
1434.24	310
1436.43	366
1438.62	386
1440.82	436
1443.01	462
1445.2	498
1447.39	578
1449.58	584
1451.77	600
1453.95	556
1456.14	508
1458.33	458
1460.52	376
1462.7	322
1464.89	294
1467.07	278
1469.25	268
1471.44	264
1473.62	246
1475.8	248
1477.98	258
1480.16	250
1482.34	248
1484.52	248
1486.7	280
1488.87	266
1491.05	278
1493.23	294
1495.4	280
1497.58	278
1499.75	258
1501.92	272
1504.1	264
1506.27	262
1508.44	246
1510.61	244
1512.78	260
1514.95	256
1517.12	252
1519.28	256
1521.45	260
1523.62	252
1525.78	240
1527.95	258
1530.11	252
1532.28	262
1534.44	256
1536.6	270
1538.76	248
1540.93	264
1543.09	254
1545.25	260
1547.41	270
1549.56	280
1551.72	262
1553.88	280
1556.03	278
1558.19	266
1560.35	288
1562.5	300
1564.65	292
1566.81	300
1568.96	308
1571.11	344
1573.26	348
1575.41	402
1577.56	448
1579.71	584
1581.86	826
1584.01	992
1586.15	898
1588.3	714
1590.45	588
1592.59	580
1594.74	676
1596.88	904
1599.02	1210
1601.17	1656
1603.31	1880
1605.45	1712
1607.59	1280
1609.73	930
1611.87	642
1614.01	542
1616.14	474
1618.28	406
1620.42	390
1622.55	340
1624.69	342
1626.82	326
1628.96	316
1631.09	322
1633.22	300
1635.36	302
1637.49	306
1639.62	312
1641.75	330
1643.88	308
1646	336
1648.13	350
1650.26	324
1652.39	316
1654.51	284
1656.64	308
1658.76	292
1660.89	278
1663.01	268
1665.13	250
1667.26	256
1669.38	262
1671.5	286
1673.62	282
1675.74	288
1677.86	270
1679.97	286
1682.09	274
1684.21	272
1686.33	276
1688.44	272
1690.56	274
1692.67	274
1694.78	274
1696.9	270
1699.01	276
1701.12	284
1703.23	282
1705.34	278
1707.45	274
1709.56	270
1711.67	262
1713.78	284
1715.88	284
1717.99	272
1720.1	262
1722.2	268
1724.31	270
1726.41	256
1728.51	280
1730.62	266
1732.72	274
1734.82	254
1736.92	280
1739.02	270
1741.12	272
1743.22	268
1745.32	258
1747.42	270
1749.51	276
1751.61	272
1753.7	262
1755.8	268
1757.89	276
1759.99	284
1762.08	262
1764.17	260
1766.26	270
1768.36	284
1770.45	268
1772.54	252
1774.62	272
1776.71	272
1778.8	284
1780.89	292
1782.98	290
1785.06	280
1787.15	284
1789.23	286
1791.32	266
1793.4	272
1795.48	280
1797.56	292
1799.65	278
1801.73	270
1803.81	292
1805.89	300
1807.97	292
1810.04	264
1812.12	292
1814.2	294
1816.28	284
1818.35	258
1820.43	270
1822.5	286
1824.58	286
1826.65	252
1828.72	274
1830.79	280
1832.86	276
1834.94	276
1837.01	286
1839.08	300
1841.15	294
1843.21	284
1845.28	282
1847.35	264
1849.41	274
1851.48	288
1853.55	286
1855.61	298
1857.67	284
1859.74	280
1861.8	296
1863.86	288
1865.92	270
1867.98	274
1870.05	286
1872.1	290
1874.16	294
1876.22	282
1878.28	294
1880.34	280
1882.39	284
1884.45	276
1886.5	276
1888.56	266
1890.61	296
1892.67	286
1894.72	312
1896.77	282
1898.82	290
1900.87	286
1902.92	282
1904.97	278
1907.02	290
1909.07	284
1911.12	280
1913.17	298
1915.21	294
1917.26	296
1919.3	282
1921.35	294
1923.39	294
1925.43	292
1927.48	308
1929.52	304
1931.56	280
1933.6	294
1935.64	302
1937.68	282
1939.72	308
1941.76	290
1943.8	302
1945.83	300
1947.87	304
1949.91	286
1951.94	304
1953.98	290
1956.01	302
1958.05	298
1960.08	290
1962.11	294
1964.14	310
1966.17	294
1968.2	298
1970.23	300
1972.26	288
1974.29	306
1976.32	304
1978.35	314
1980.37	300
1982.4	294
1984.43	300
1986.45	306
1988.48	314
1990.5	280
1992.52	310
1994.55	306
1996.57	296
1998.59	288
2000.61	304
2002.63	296
2004.65	318
2006.67	302
2008.69	296
2010.7	306
2012.72	292
2014.74	302
2016.75	322
2018.77	282
2020.78	290
2022.8	286
2024.81	296
2026.83	310
2028.84	320
2030.85	322
2032.86	304
2034.87	308
2036.88	302
2038.89	298
2040.9	308
2042.91	294
2044.91	310
2046.92	320
2048.93	308
2050.93	298
2052.94	312
2054.94	312
2056.95	316
2058.95	292
2060.95	300
2062.95	318
2064.96	316
2066.96	308
2068.96	320
2070.96	314
2072.96	324
2074.95	322
2076.95	302
2078.95	314
2080.95	302
2082.94	316
2084.94	312
2086.93	322
2088.93	320
2090.92	324
2092.91	294
2094.91	316
2096.9	306
2098.89	308
2100.88	320
2102.87	330
2104.86	310
2106.85	316
2108.84	294
2110.83	310
2112.81	334
2114.8	320
2116.78	308
2118.77	314
2120.75	320
2122.74	330
2124.72	316
2126.71	320
2128.69	312
2130.67	316
2132.65	324
2134.63	310
2136.61	330
2138.59	318
2140.57	300
2142.55	330
2144.53	330
2146.5	328
2148.48	338
2150.46	316
2152.43	314
2154.41	338
2156.38	312
2158.35	298
2160.33	318
2162.3	324
2164.27	300
2166.24	320
2168.21	318
2170.18	334
2172.15	338
2174.12	312
2176.09	338
2178.06	328
2180.03	322
2181.99	324
2183.96	318
2185.92	332
2187.89	310
2189.85	314
2191.82	310
2193.78	312
2195.74	304
2197.7	340
2199.67	322
2201.63	314
2203.59	328
2205.55	320
2207.51	346
2209.46	320
2211.42	320
2213.38	332
2215.34	326
2217.29	334
2219.25	322
2221.2	330
2223.16	320
2225.11	340
2227.06	340
2229.02	344
2230.97	330
2232.92	346
2234.87	334
2236.82	324
2238.77	330
2240.72	318
2242.67	334
2244.62	324
2246.57	328
2248.51	322
2250.46	326
2252.4	332
2254.35	340
2256.29	340
2258.24	318
2260.18	330
2262.13	328
2264.07	322
2266.01	348
2267.95	334
2269.89	336
2271.83	336
2273.77	336
2275.71	344
2277.65	314
2279.58	350
2281.52	320
2283.46	342
2285.4	324
2287.33	334
2289.27	326
2291.2	332
2293.13	338
2295.07	338
2297	340
2298.93	316
2300.86	330
2302.79	324
2304.72	344
2306.65	338
2308.58	358
2310.51	344
2312.44	346
2314.37	348
2316.29	344
2318.22	344
2320.15	340
2322.07	322
2324	326
2325.92	342
2327.84	342
2329.77	330
2331.69	352
2333.61	334
2335.53	332
2337.45	342
2339.37	338
2341.29	346
2343.21	338
2345.13	340
2347.05	326
2348.97	346
2350.88	344
2352.8	340
2354.71	336
2356.63	352
2358.54	354
2360.46	338
2362.37	324
2364.28	340
2366.2	350
2368.11	334
2370.02	348
2371.93	334
2373.84	344
2375.75	334
2377.66	348
2379.57	352
2381.47	342
2383.38	358
2385.29	348
2387.2	334
2389.1	340
2391.01	334
2392.91	344
2394.81	350
2396.72	342
2398.62	354
2400.52	358
2402.42	354
2404.33	354
2406.23	324
2408.13	332
2410.03	334
2411.92	338
2413.82	350
2415.72	350
2417.62	350
2419.51	354
2421.41	356
2423.31	368
2425.2	362
2427.1	366
2428.99	338
2430.88	372
2432.78	352
2434.67	350
2436.56	364
2438.45	342
2440.34	364
2442.23	362
2444.12	342
2446.01	372
2447.9	372
2449.79	358