File: Mixture_Classification/Jesse_Dataset_v2/Pure Raman/Polystyrene/633nm/ps-ppo-7jan25-1,0000-map3_Y02_X07.txt
182.393	1038
184.993	1020
187.593	936
190.193	942
192.79	870
195.387	924
197.983	978
200.578	928
203.174	944
205.766	960
208.36	990
210.951	1046
213.542	1070
216.131	1036
218.721	1078
221.309	1088
223.897	1086
226.483	1076
229.069	1048
231.654	938
234.238	852
236.821	760
239.404	698
241.984	574
244.566	490
247.145	462
249.723	460
252.302	384
254.878	396
257.455	376
260.03	350
262.604	344
265.178	330
267.75	346
270.322	332
272.893	322
275.463	346
278.032	316
280.601	310
283.168	298
285.734	308
288.301	304
290.866	274
293.429	272
295.992	270
298.556	240
301.117	254
303.677	246
306.236	246
308.795	244
311.354	252
313.911	236
316.467	230
319.022	258
321.577	262
324.13	238
326.684	244
329.236	254
331.787	250
334.337	232
336.887	258
339.435	240
341.983	234
344.529	248
347.075	252
349.621	236
352.165	232
354.708	232
357.251	224
359.793	228
362.334	228
364.874	216
367.413	224
369.951	240
372.489	234
375.026	242
377.562	252
380.097	248
382.631	264
385.164	278
387.697	262
390.229	290
392.76	290
395.29	278
397.819	306
400.346	314
402.873	324
405.4	360
407.926	382
410.451	370
412.976	332
415.499	310
418.02	312
420.542	288
423.063	278
425.583	256
428.101	260
430.619	258
433.137	242
435.654	240
438.169	236
440.684	228
443.198	238
445.712	236
448.223	226
450.735	220
453.246	206
455.755	208
458.264	196
460.771	198
463.279	198
465.786	190
468.291	198
470.796	202
473.301	210
475.803	190
478.306	186
480.807	186
483.308	178
485.807	180
488.307	188
490.804	194
493.302	188
495.798	192
498.294	200
500.788	198
503.283	210
505.775	214
508.269	212
510.759	198
513.251	204
515.74	216
518.23	202
520.718	202
523.204	214
525.692	212
528.177	224
530.663	242
533.147	256
535.629	252
538.113	286
540.594	262
543.074	280
545.555	280
548.034	274
550.512	276
552.989	260
555.467	268
557.942	240
560.417	248
562.892	272
565.365	270
567.838	268
570.309	278
572.78	260
575.251	280
577.72	264
580.189	244
582.656	240
585.123	232
587.589	230
590.055	234
592.52	228
594.983	244
597.446	218
599.908	238
602.369	232
604.829	244
607.289	264
609.747	284
612.205	298
614.663	326
617.119	440
619.574	696
622.029	1128
624.483	996
626.936	542
629.389	346
631.84	274
634.291	262
636.741	226
639.19	226
641.639	212
644.086	194
646.533	194
648.979	192
651.424	188
653.869	186
656.313	188
658.754	194
661.196	170
663.638	202
666.078	176
668.518	174
670.957	180
673.394	182
675.831	172
678.268	180
680.703	178
683.137	190
685.571	178
688.005	174
690.437	178
692.868	176
695.299	188
697.729	182
700.159	210
702.586	230
705.014	234
707.441	212
709.866	238
712.292	226
714.716	212
717.14	234
719.563	258
721.984	254
724.406	292
726.825	316
729.246	298
731.665	288
734.082	286
736.5	308
738.916	348
741.332	370
743.746	396
746.161	406
748.574	400
750.987	408
753.398	460
755.81	450
758.219	480
760.629	500
763.037	492
765.445	470
767.852	478
770.258	476
772.664	426
775.068	420
777.472	422
779.876	444
782.278	466
784.679	494
787.08	552
789.48	624
791.879	662
794.278	668
796.675	694
799.072	708
801.467	646
803.864	562
806.258	486
808.651	448
811.044	410
813.437	404
815.828	350
818.218	320
820.608	314
822.997	284
825.385	278
827.773	288
830.16	292
832.546	280
834.931	298
837.315	322
839.699	362
842.081	382
844.463	382
846.844	386
849.226	348
851.606	326
853.985	324
856.363	308
858.741	306
861.117	310
863.493	310
865.868	298
868.243	302
870.616	286
872.989	312
875.36	306
877.731	288
880.102	292
882.472	306
884.841	294
887.209	286
889.577	284
891.944	282
894.31	290
896.674	296
899.039	302
901.403	324
903.766	332
906.128	354
908.49	370
910.849	358
913.209	320
915.569	312
917.927	280
920.284	276
922.641	268
924.997	250
927.353	242
929.707	258
932.061	258
934.414	252
936.765	256
939.117	276
941.469	280
943.818	284
946.167	260
948.515	282
950.863	254
953.211	280
955.556	276
957.902	286
960.246	288
962.59	326
964.933	312
967.276	334
969.617	336
971.958	336
974.298	342
976.638	350
978.976	412
981.314	466
983.651	526
985.988	632
988.323	792
990.659	1140
992.992	1734
995.325	1900
997.658	2312
999.99	4164
1002.32	6576
1004.65	6072
1006.98	3424
1009.31	1578
1011.64	842
1013.97	584
1016.29	476
1018.62	464
1020.94	500
1023.27	608
1025.59	854
1027.91	1172
1030.24	1632
1032.56	2014
1034.88	1898
1037.2	1420
1039.52	1034
1041.84	698
1044.15	566
1046.47	488
1048.79	466
1051.1	430
1053.42	410
1055.73	410
1058.04	398
1060.36	406
1062.67	406
1064.98	422
1067.29	432
1069.6	464
1071.91	458
1074.22	456
1076.52	440
1078.83	462
1081.14	438
1083.44	434
1085.75	440
1088.05	412
1090.35	420
1092.65	434
1094.95	418
1097.26	432
1099.56	440
1101.86	410
1104.15	402
1106.45	380
1108.75	382
1111.05	350
1113.34	344
1115.64	348
1117.93	320
1120.22	318
1122.52	308
1124.81	280
1127.1	288
1129.39	290
1131.68	274
1133.97	276
1136.26	302
1138.54	302
1140.83	318
1143.12	334
1145.4	356
1147.69	426
1149.97	500
1152.25	642
1154.54	872
1156.82	990
1159.1	892
1161.38	710
1163.66	582
1165.94	542
1168.22	504
1170.49	532
1172.77	562
1175.05	642
1177.32	766
1179.6	978
1181.87	1184
1184.14	1204
1186.42	1110
1188.69	1080
1190.96	1070
1193.23	1146
1195.5	1220
1197.77	1248
1200.03	1242
1202.3	1210
1204.57	1104
1206.83	992
1209.1	834
1211.36	756
1213.63	594
1215.89	572
1218.15	534
1220.41	508
1222.67	494
1224.93	464
1227.19	470
1229.45	464
1231.71	416
1233.97	394
1236.22	416
1238.48	378
1240.73	380
1242.99	380
1245.24	384
1247.5	386
1249.75	394
1252	390
1254.25	350
1256.5	376
1258.75	370
1261	376
1263.25	384
1265.49	374
1267.74	382
1269.99	366
1272.23	368
1274.48	360
1276.72	370
1278.96	382
1281.21	358
1283.45	362
1285.69	370
1287.93	376
1290.17	352
1292.41	390
1294.64	414
1296.88	412
1299.12	424
1301.36	436
1303.59	444
1305.82	444
1308.06	438
1310.29	444
1312.52	444
1314.76	450
1316.99	474
1319.22	526
1321.45	518
1323.68	486
1325.9	552
1328.13	554
1330.36	558
1332.58	552
1334.81	540
1337.04	544
1339.26	524
1341.48	474
1343.71	434
1345.93	420
1348.15	428
1350.37	406
1352.59	402
1354.81	394
1357.03	396
1359.24	400
1361.46	406
1363.68	422
1365.89	372
1368.11	398
1370.32	416
1372.54	418
1374.75	390
1376.96	424
1379.17	396
1381.38	352
1383.59	350
1385.8	330
1388.01	310
1390.22	308
1392.43	304
1394.63	310
1396.84	294
1399.05	282
1401.25	306
1403.45	310
1405.66	286
1407.86	314
1410.06	306
1412.26	304
1414.46	300
1416.66	302
1418.86	302
1421.06	288
1423.26	298
1425.46	304
1427.65	310
1429.85	320
1432.04	318
1434.24	346
1436.43	400
1438.62	430
1440.82	456
1443.01	520
1445.2	558
1447.39	586
1449.58	630
1451.77	622
1453.95	618
1456.14	566
1458.33	482
1460.52	406
1462.7	354
1464.89	346
1467.07	340
1469.25	340
1471.44	294
1473.62	316
1475.8	302
1477.98	314
1480.16	322
1482.34	320
1484.52	314
1486.7	312
1488.87	308
1491.05	320
1493.23	322
1495.4	318
1497.58	326
1499.75	318
1501.92	294
1504.1	308
1506.27	306
1508.44	298
1510.61	306
1512.78	290
1514.95	294
1517.12	290
1519.28	308
1521.45	280
1523.62	312
1525.78	316
1527.95	312
1530.11	318
1532.28	306
1534.44	310
1536.6	314
1538.76	308
1540.93	310
1543.09	312
1545.25	318
1547.41	318
1549.56	328
1551.72	326
1553.88	336
1556.03	320
1558.19	324
1560.35	326
1562.5	336
1564.65	352
1566.81	372
1568.96	356
1571.11	388
1573.26	402
1575.41	448
1577.56	496
1579.71	608
1581.86	832
1584.01	1042
1586.15	948
1588.3	774
1590.45	638
1592.59	626
1594.74	708
1596.88	924
1599.02	1254
1601.17	1708
1603.31	1880
1605.45	1758
1607.59	1352
1609.73	964
1611.87	706
1614.01	588
1616.14	518
1618.28	472
1620.42	430
1622.55	420
1624.69	416
1626.82	350
1628.96	376
1631.09	360
1633.22	372
1635.36	366
1637.49	360
1639.62	362
1641.75	388
1643.88	382
1646	370
1648.13	406
1650.26	388
1652.39	356
1654.51	364
1656.64	354
1658.76	348
1660.89	338
1663.01	328
1665.13	330
1667.26	338
1669.38	330
1671.5	342
1673.62	314
1675.74	324
1677.86	324
1679.97	334
1682.09	334
1684.21	318
1686.33	354
1688.44	354
1690.56	334
1692.67	338
1694.78	336
1696.9	328
1699.01	344
1701.12	330
1703.23	336
1705.34	328
1707.45	330
1709.56	324
1711.67	312
1713.78	338
1715.88	318
1717.99	338
1720.1	344
1722.2	338
1724.31	326
1726.41	336
1728.51	334
1730.62	312
1732.72	324
1734.82	320
1736.92	318
1739.02	324
1741.12	320
1743.22	320
1745.32	344
1747.42	344
1749.51	318
1751.61	306
1753.7	300
1755.8	318
1757.89	304
1759.99	324
1762.08	324
1764.17	344
1766.26	312
1768.36	324
1770.45	324
1772.54	322
1774.62	324
1776.71	324
1778.8	330
1780.89	328
1782.98	326
1785.06	310
1787.15	318
1789.23	336
1791.32	318
1793.4	342
1795.48	348
1797.56	324
1799.65	334
1801.73	338
1803.81	342
1805.89	320
1807.97	330
1810.04	352
1812.12	332
1814.2	354
1816.28	336
1818.35	336
1820.43	332
1822.5	336
1824.58	346
1826.65	336
1828.72	346
1830.79	334
1832.86	336
1834.94	352
1837.01	342
1839.08	334
1841.15	330
1843.21	342
1845.28	334
1847.35	328
1849.41	338
1851.48	334
1853.55	342
1855.61	338
1857.67	314
1859.74	336
1861.8	336
1863.86	346
1865.92	336
1867.98	320
1870.05	358
1872.1	338
1874.16	324
1876.22	346
1878.28	334
1880.34	350
1882.39	346
1884.45	328
1886.5	336
1888.56	334
1890.61	352
1892.67	328
1894.72	334
1896.77	356
1898.82	346
1900.87	348
1902.92	356
1904.97	332
1907.02	342
1909.07	360
1911.12	346
1913.17	374
1915.21	364
1917.26	342
1919.3	354
1921.35	362
1923.39	360
1925.43	362
1927.48	364
1929.52	332
1931.56	366
1933.6	374
1935.64	340
1937.68	368
1939.72	348
1941.76	356
1943.8	332
1945.83	356
1947.87	338
1949.91	360
1951.94	352
1953.98	356
1956.01	356
1958.05	366
1960.08	366
1962.11	354
1964.14	372
1966.17	360
1968.2	354
1970.23	354
1972.26	352
1974.29	358
1976.32	358
1978.35	360
1980.37	360
1982.4	330
1984.43	350
1986.45	352
1988.48	322
1990.5	346
1992.52	356
1994.55	340
1996.57	370
1998.59	356
2000.61	366
2002.63	362
2004.65	366
2006.67	344
2008.69	374
2010.7	342
2012.72	372
2014.74	344
2016.75	312
2018.77	352
2020.78	350
2022.8	368
2024.81	348
2026.83	348
2028.84	354
2030.85	356
2032.86	360
2034.87	362
2036.88	344
2038.89	348
2040.9	384
2042.91	350
2044.91	342
2046.92	344
2048.93	352
2050.93	380
2052.94	364
2054.94	366
2056.95	360
2058.95	348
2060.95	364
2062.95	350
2064.96	342
2066.96	348
2068.96	360
2070.96	354
2072.96	378
2074.95	380
2076.95	354
2078.95	358
2080.95	364
2082.94	366
2084.94	364
2086.93	360
2088.93	346
2090.92	356
2092.91	364
2094.91	344
2096.9	356
2098.89	368
2100.88	372
2102.87	364
2104.86	368
2106.85	368
2108.84	360
2110.83	372
2112.81	374
2114.8	356
2116.78	340
2118.77	374
2120.75	368
2122.74	366
2124.72	376
2126.71	364
2128.69	372
2130.67	358
2132.65	350
2134.63	368
2136.61	346
2138.59	370
2140.57	382
2142.55	364
2144.53	376
2146.5	372
2148.48	372
2150.46	378
2152.43	374
2154.41	364
2156.38	384
2158.35	384
2160.33	350
2162.3	364
2164.27	340
2166.24	368
2168.21	374
2170.18	376
2172.15	356
2174.12	358
2176.09	364
2178.06	386
2180.03	384
2181.99	372
2183.96	360
2185.92	366
2187.89	348
2189.85	366
2191.82	356
2193.78	366
2195.74	358
2197.7	368
2199.67	376
2201.63	380
2203.59	384
2205.55	368
2207.51	368
2209.46	348
2211.42	380
2213.38	378
2215.34	390
2217.29	354
2219.25	380
2221.2	372
2223.16	374
2225.11	388
2227.06	382
2229.02	370
2230.97	384
2232.92	378
2234.87	352
2236.82	388
2238.77	370
2240.72	376
2242.67	362
2244.62	358
2246.57	368
2248.51	378
2250.46	360
2252.4	376
2254.35	358
2256.29	358
2258.24	366
2260.18	374
2262.13	366
2264.07	390
2266.01	370
2267.95	382
2269.89	386
2271.83	348
2273.77	358
2275.71	380
2277.65	368
2279.58	360
2281.52	372
2283.46	368
2285.4	374
2287.33	366
2289.27	398
2291.2	396
2293.13	374
2295.07	378
2297	368
2298.93	368
2300.86	370
2302.79	368
2304.72	364
2306.65	372
2308.58	386
2310.51	384
2312.44	372
2314.37	382
2316.29	380
2318.22	358
2320.15	364
2322.07	376
2324	376
2325.92	384
2327.84	372
2329.77	360
2331.69	358
2333.61	390
2335.53	370
2337.45	364
2339.37	388
2341.29	368
2343.21	376
2345.13	388
2347.05	374
2348.97	390
2350.88	382
2352.8	384
2354.71	378
2356.63	370
2358.54	388
2360.46	382
2362.37	400
2364.28	374
2366.2	392
2368.11	362
2370.02	358
2371.93	378
2373.84	380
2375.75	374
2377.66	384
2379.57	386
2381.47	374
2383.38	368
2385.29	406
2387.2	382
2389.1	384
2391.01	378
2392.91	382
2394.81	374
2396.72	390
2398.62	398
2400.52	370
2402.42	374
2404.33	388
2406.23	386
2408.13	390
2410.03	388
2411.92	356
2413.82	378
2415.72	400
2417.62	392
2419.51	370
2421.41	396
2423.31	400
2425.2	384
2427.1	402
2428.99	378
2430.88	382
2432.78	380
2434.67	382
2436.56	392
2438.45	388
2440.34	380
2442.23	394
2444.12	400
2446.01	402
2447.9	390
2449.79	408