File: Mixture_Classification/Jesse_Dataset_v2/Pure Raman/Polystyrene/633nm/ps-ppo-7jan25-1,0000-map3_Y01_X03.txt
182.393	1052
184.993	1058
187.593	1040
190.193	1002
192.79	980
195.387	968
197.983	994
200.578	984
203.174	980
205.766	1032
208.36	1026
210.951	1078
213.542	1076
216.131	1078
218.721	1136
221.309	1120
223.897	1122
226.483	1094
229.069	1070
231.654	966
234.238	922
236.821	800
239.404	708
241.984	650
244.566	592
247.145	516
249.723	476
252.302	438
254.878	426
257.455	402
260.03	414
262.604	414
265.178	394
267.75	362
270.322	390
272.893	384
275.463	360
278.032	372
280.601	342
283.168	348
285.734	328
288.301	306
290.866	314
293.429	300
295.992	284
298.556	304
301.117	280
303.677	280
306.236	278
308.795	252
311.354	290
313.911	308
316.467	306
319.022	298
321.577	296
324.13	294
326.684	296
329.236	262
331.787	286
334.337	286
336.887	278
339.435	290
341.983	266
344.529	268
347.075	270
349.621	264
352.165	252
354.708	250
357.251	272
359.793	256
362.334	262
364.874	264
367.413	246
369.951	280
372.489	280
375.026	280
377.562	266
380.097	280
382.631	288
385.164	308
387.697	298
390.229	334
392.76	300
395.29	320
397.819	318
400.346	328
402.873	376
405.4	378
407.926	380
410.451	378
412.976	376
415.499	334
418.02	316
420.542	324
423.063	332
425.583	294
428.101	294
430.619	288
433.137	266
435.654	262
438.169	268
440.684	274
443.198	270
445.712	254
448.223	238
450.735	256
453.246	248
455.755	242
458.264	236
460.771	226
463.279	230
465.786	228
468.291	236
470.796	220
473.301	238
475.803	226
478.306	214
480.807	212
483.308	216
485.807	224
488.307	222
490.804	216
493.302	216
495.798	210
498.294	232
500.788	236
503.283	236
505.775	230
508.269	244
510.759	236
513.251	244
515.74	238
518.23	244
520.718	238
523.204	246
525.692	250
528.177	262
530.663	248
533.147	280
535.629	280
538.113	304
540.594	294
543.074	298
545.555	316
548.034	296
550.512	290
552.989	308
555.467	280
557.942	288
560.417	292
562.892	292
565.365	274
567.838	274
570.309	290
572.78	314
575.251	300
577.72	300
580.189	272
582.656	264
585.123	250
587.589	260
590.055	252
592.52	246
594.983	236
597.446	262
599.908	282
602.369	272
604.829	274
607.289	310
609.747	330
612.205	334
614.663	334
617.119	462
619.574	740
622.029	1130
624.483	986
626.936	556
629.389	396
631.84	302
634.291	290
636.741	270
639.19	226
641.639	230
644.086	244
646.533	234
648.979	228
651.424	216
653.869	212
656.313	204
658.754	220
661.196	226
663.638	224
666.078	206
668.518	208
670.957	208
673.394	210
675.831	206
678.268	208
680.703	188
683.137	202
685.571	216
688.005	208
690.437	210
692.868	216
695.299	224
697.729	212
700.159	232
702.586	258
705.014	252
707.441	238
709.866	258
712.292	236
714.716	274
717.14	250
719.563	262
721.984	286
724.406	332
726.825	368
729.246	332
731.665	316
734.082	300
736.5	336
738.916	370
741.332	412
743.746	430
746.161	398
748.574	452
750.987	438
753.398	490
755.81	474
758.219	506
760.629	530
763.037	528
765.445	520
767.852	478
770.258	496
772.664	474
775.068	464
777.472	460
779.876	474
782.278	472
784.679	558
787.08	598
789.48	642
791.879	710
794.278	708
796.675	700
799.072	708
801.467	692
803.864	602
806.258	504
808.651	472
811.044	444
813.437	412
815.828	388
818.218	350
820.608	346
822.997	310
825.385	308
827.773	302
830.16	288
832.546	308
834.931	348
837.315	338
839.699	362
842.081	412
844.463	400
846.844	418
849.226	376
851.606	348
853.985	362
856.363	352
858.741	324
861.117	318
863.493	348
865.868	324
868.243	328
870.616	334
872.989	314
875.36	324
877.731	318
880.102	334
882.472	306
884.841	320
887.209	320
889.577	326
891.944	334
894.31	320
896.674	302
899.039	344
901.403	334
903.766	400
906.128	380
908.49	384
910.849	368
913.209	348
915.569	338
917.927	324
920.284	338
922.641	286
924.997	292
927.353	292
929.707	302
932.061	296
934.414	302
936.765	304
939.117	280
941.469	302
943.818	306
946.167	318
948.515	298
950.863	332
953.211	314
955.556	300
957.902	294
960.246	314
962.59	338
964.933	368
967.276	362
969.617	352
971.958	370
974.298	374
976.638	394
978.976	458
981.314	494
983.651	576
985.988	660
988.323	780
990.659	1200
992.992	1718
995.325	1926
997.658	2380
999.99	4202
1002.32	6558
1004.65	6186
1006.98	3476
1009.31	1598
1011.64	878
1013.97	614
1016.29	528
1018.62	510
1020.94	532
1023.27	670
1025.59	870
1027.91	1220
1030.24	1702
1032.56	1998
1034.88	1916
1037.2	1508
1039.52	1006
1041.84	740
1044.15	606
1046.47	550
1048.79	486
1051.1	466
1053.42	452
1055.73	420
1058.04	420
1060.36	436
1062.67	468
1064.98	470
1067.29	456
1069.6	486
1071.91	504
1074.22	450
1076.52	458
1078.83	480
1081.14	462
1083.44	482
1085.75	452
1088.05	474
1090.35	458
1092.65	464
1094.95	476
1097.26	478
1099.56	462
1101.86	462
1104.15	440
1106.45	424
1108.75	414
1111.05	356
1113.34	390
1115.64	380
1117.93	376
1120.22	352
1122.52	344
1124.81	314
1127.1	310
1129.39	324
1131.68	324
1133.97	310
1136.26	350
1138.54	356
1140.83	362
1143.12	386
1145.4	410
1147.69	436
1149.97	520
1152.25	696
1154.54	908
1156.82	1000
1159.1	900
1161.38	762
1163.66	626
1165.94	550
1168.22	530
1170.49	570
1172.77	602
1175.05	688
1177.32	794
1179.6	1024
1181.87	1196
1184.14	1250
1186.42	1134
1188.69	1100
1190.96	1076
1193.23	1160
1195.5	1262
1197.77	1260
1200.03	1212
1202.3	1204
1204.57	1118
1206.83	1024
1209.1	878
1211.36	776
1213.63	670
1215.89	618
1218.15	528
1220.41	498
1222.67	510
1224.93	480
1227.19	494
1229.45	476
1231.71	456
1233.97	438
1236.22	406
1238.48	412
1240.73	406
1242.99	430
1245.24	388
1247.5	416
1249.75	400
1252	386
1254.25	386
1256.5	380
1258.75	378
1261	378
1263.25	386
1265.49	404
1267.74	396
1269.99	386
1272.23	378
1274.48	396
1276.72	388
1278.96	390
1281.21	386
1283.45	394
1285.69	406
1287.93	412
1290.17	380
1292.41	420
1294.64	424
1296.88	420
1299.12	440
1301.36	434
1303.59	440
1305.82	480
1308.06	462
1310.29	458
1312.52	472
1314.76	468
1316.99	476
1319.22	506
1321.45	516
1323.68	544
1325.9	560
1328.13	566
1330.36	554
1332.58	522
1334.81	542
1337.04	532
1339.26	506
1341.48	468
1343.71	452
1345.93	442
1348.15	412
1350.37	404
1352.59	402
1354.81	384
1357.03	418
1359.24	416
1361.46	412
1363.68	410
1365.89	396
1368.11	410
1370.32	418
1372.54	396
1374.75	404
1376.96	390
1379.17	372
1381.38	374
1383.59	348
1385.8	348
1388.01	306
1390.22	304
1392.43	320
1394.63	294
1396.84	318
1399.05	316
1401.25	328
1403.45	304
1405.66	296
1407.86	298
1410.06	310
1412.26	290
1414.46	300
1416.66	284
1418.86	304
1421.06	288
1423.26	290
1425.46	310
1427.65	294
1429.85	314
1432.04	330
1434.24	354
1436.43	400
1438.62	424
1440.82	472
1443.01	508
1445.2	566
1447.39	608
1449.58	626
1451.77	648
1453.95	624
1456.14	534
1458.33	498
1460.52	412
1462.7	378
1464.89	346
1467.07	338
1469.25	328
1471.44	326
1473.62	302
1475.8	308
1477.98	302
1480.16	302
1482.34	312
1484.52	284
1486.7	304
1488.87	308
1491.05	314
1493.23	320
1495.4	336
1497.58	326
1499.75	296
1501.92	290
1504.1	306
1506.27	304
1508.44	304
1510.61	294
1512.78	298
1514.95	284
1517.12	292
1519.28	274
1521.45	304
1523.62	296
1525.78	280
1527.95	278
1530.11	288
1532.28	298
1534.44	292
1536.6	290
1538.76	294
1540.93	294
1543.09	294
1545.25	278
1547.41	322
1549.56	306
1551.72	308
1553.88	310
1556.03	302
1558.19	304
1560.35	330
1562.5	308
1564.65	340
1566.81	330
1568.96	358
1571.11	370
1573.26	392
1575.41	442
1577.56	494
1579.71	616
1581.86	812
1584.01	1016
1586.15	936
1588.3	742
1590.45	632
1592.59	618
1594.74	710
1596.88	860
1599.02	1234
1601.17	1648
1603.31	1920
1605.45	1734
1607.59	1320
1609.73	930
1611.87	690
1614.01	584
1616.14	496
1618.28	456
1620.42	438
1622.55	390
1624.69	388
1626.82	368
1628.96	362
1631.09	338
1633.22	330
1635.36	336
1637.49	336
1639.62	348
1641.75	366
1643.88	346
1646	362
1648.13	388
1650.26	396
1652.39	348
1654.51	362
1656.64	324
1658.76	332
1660.89	302
1663.01	316
1665.13	328
1667.26	312
1669.38	324
1671.5	308
1673.62	312
1675.74	336
1677.86	340
1679.97	330
1682.09	312
1684.21	332
1686.33	326
1688.44	322
1690.56	320
1692.67	322
1694.78	328
1696.9	324
1699.01	316
1701.12	314
1703.23	314
1705.34	326
1707.45	306
1709.56	318
1711.67	292
1713.78	328
1715.88	314
1717.99	310
1720.1	298
1722.2	328
1724.31	312
1726.41	296
1728.51	324
1730.62	304
1732.72	294
1734.82	308
1736.92	318
1739.02	332
1741.12	320
1743.22	324
1745.32	322
1747.42	326
1749.51	288
1751.61	324
1753.7	308
1755.8	312
1757.89	316
1759.99	300
1762.08	302
1764.17	328
1766.26	312
1768.36	314
1770.45	300
1772.54	326
1774.62	294
1776.71	328
1778.8	318
1780.89	330
1782.98	332
1785.06	328
1787.15	338
1789.23	326
1791.32	320
1793.4	332
1795.48	316
1797.56	340
1799.65	344
1801.73	326
1803.81	334
1805.89	350
1807.97	338
1810.04	322
1812.12	320
1814.2	342
1816.28	332
1818.35	338
1820.43	350
1822.5	332
1824.58	350
1826.65	344
1828.72	336
1830.79	340
1832.86	328
1834.94	340
1837.01	350
1839.08	354
1841.15	334
1843.21	326
1845.28	354
1847.35	322
1849.41	342
1851.48	352
1853.55	340
1855.61	336
1857.67	332
1859.74	340
1861.8	330
1863.86	338
1865.92	348
1867.98	350
1870.05	346
1872.1	340
1874.16	362
1876.22	348
1878.28	358
1880.34	346
1882.39	332
1884.45	332
1886.5	342
1888.56	362
1890.61	324
1892.67	352
1894.72	362
1896.77	364
1898.82	368
1900.87	344
1902.92	358
1904.97	362
1907.02	350
1909.07	380
1911.12	354
1913.17	354
1915.21	372
1917.26	364
1919.3	342
1921.35	374
1923.39	348
1925.43	374
1927.48	360
1929.52	358
1931.56	378
1933.6	384
1935.64	386
1937.68	374
1939.72	376
1941.76	366
1943.8	384
1945.83	388
1947.87	388
1949.91	388
1951.94	382
1953.98	376
1956.01	368
1958.05	396
1960.08	390
1962.11	382
1964.14	394
1966.17	374
1968.2	372
1970.23	382
1972.26	390
1974.29	370
1976.32	384
1978.35	362
1980.37	392
1982.4	406
1984.43	356
1986.45	384
1988.48	380
1990.5	404
1992.52	402
1994.55	410
1996.57	406
1998.59	400
2000.61	414
2002.63	400
2004.65	400
2006.67	416
2008.69	430
2010.7	414
2012.72	408
2014.74	424
2016.75	402
2018.77	406
2020.78	416
2022.8	418
2024.81	432
2026.83	400
2028.84	426
2030.85	432
2032.86	426
2034.87	426
2036.88	430
2038.89	412
2040.9	444
2042.91	452
2044.91	432
2046.92	442
2048.93	438
2050.93	444
2052.94	446
2054.94	436
2056.95	460
2058.95	476
2060.95	460
2062.95	474
2064.96	466
2066.96	452
2068.96	456
2070.96	454
2072.96	464
2074.95	462
2076.95	470
2078.95	490
2080.95	468
2082.94	468
2084.94	482
2086.93	470
2088.93	494
2090.92	484
2092.91	496
2094.91	516
2096.9	480
2098.89	498
2100.88	462
2102.87	488
2104.86	506
2106.85	466
2108.84	510
2110.83	498
2112.81	492
2114.8	492
2116.78	528
2118.77	508
2120.75	490
2122.74	488
2124.72	478
2126.71	502
2128.69	534
2130.67	508
2132.65	514
2134.63	500
2136.61	526
2138.59	506
2140.57	514
2142.55	494
2144.53	506
2146.5	522
2148.48	522
2150.46	506
2152.43	522
2154.41	514
2156.38	542
2158.35	518
2160.33	528
2162.3	518
2164.27	526
2166.24	486
2168.21	518
2170.18	510
2172.15	522
2174.12	520
2176.09	532
2178.06	514
2180.03	520
2181.99	520
2183.96	532
2185.92	514
2187.89	514
2189.85	536
2191.82	560
2193.78	508
2195.74	514
2197.7	540
2199.67	540
2201.63	512
2203.59	534
2205.55	502
2207.51	526
2209.46	502
2211.42	518
2213.38	506
2215.34	506
2217.29	498
2219.25	518
2221.2	524
2223.16	506
2225.11	528
2227.06	490
2229.02	524
2230.97	516
2232.92	490
2234.87	486
2236.82	502
2238.77	512
2240.72	496
2242.67	502
2244.62	524
2246.57	498
2248.51	482
2250.46	512
2252.4	488
2254.35	486
2256.29	482
2258.24	514
2260.18	496
2262.13	500
2264.07	514
2266.01	470
2267.95	476
2269.89	492
2271.83	480
2273.77	466
2275.71	486
2277.65	464
2279.58	488
2281.52	458
2283.46	470
2285.4	472
2287.33	470
2289.27	478
2291.2	472
2293.13	466
2295.07	468
2297	496
2298.93	456
2300.86	488
2302.79	484
2304.72	486
2306.65	452
2308.58	448
2310.51	482
2312.44	472
2314.37	496
2316.29	450
2318.22	474
2320.15	468
2322.07	454
2324	464
2325.92	470
2327.84	460
2329.77	470
2331.69	484
2333.61	450
2335.53	480
2337.45	464
2339.37	458
2341.29	464
2343.21	462
2345.13	458
2347.05	464
2348.97	476
2350.88	474
2352.8	462
2354.71	466
2356.63	484
2358.54	464
2360.46	448
2362.37	472
2364.28	474
2366.2	456
2368.11	454
2370.02	434
2371.93	448
2373.84	470
2375.75	444
2377.66	472
2379.57	432
2381.47	444
2383.38	454
2385.29	456
2387.2	436
2389.1	464
2391.01	434
2392.91	446
2394.81	456
2396.72	448
2398.62	456
2400.52	452
2402.42	466
2404.33	420
2406.23	416
2408.13	454
2410.03	462
2411.92	452
2413.82	430
2415.72	430
2417.62	456
2419.51	428
2421.41	446
2423.31	432
2425.2	452
2427.1	468
2428.99	456
2430.88	454
2432.78	444
2434.67	442
2436.56	458
2438.45	448
2440.34	464
2442.23	468
2444.12	440
2446.01	452
2447.9	462
2449.79	430