File: Mixture_Classification/Jesse_Dataset_v2/Pure Raman/Polystyrene/633nm/ps-ppo-7jan25-1,0000-map3_Y07_X01.txt
182.393	994
184.993	966
187.593	938
190.193	956
192.79	946
195.387	940
197.983	908
200.578	954
203.174	930
205.766	948
208.36	972
210.951	954
213.542	1044
216.131	1058
218.721	1070
221.309	1058
223.897	1064
226.483	1036
229.069	984
231.654	938
234.238	832
236.821	756
239.404	658
241.984	580
244.566	514
247.145	446
249.723	420
252.302	404
254.878	346
257.455	352
260.03	352
262.604	338
265.178	334
267.75	326
270.322	300
272.893	328
275.463	298
278.032	302
280.601	290
283.168	280
285.734	280
288.301	270
290.866	258
293.429	252
295.992	222
298.556	234
301.117	230
303.677	236
306.236	236
308.795	234
311.354	226
313.911	224
316.467	226
319.022	240
321.577	226
324.13	240
326.684	230
329.236	242
331.787	234
334.337	232
336.887	248
339.435	226
341.983	222
344.529	224
347.075	210
349.621	218
352.165	220
354.708	214
357.251	220
359.793	214
362.334	204
364.874	216
367.413	206
369.951	224
372.489	228
375.026	238
377.562	224
380.097	240
382.631	244
385.164	260
387.697	252
390.229	280
392.76	262
395.29	276
397.819	266
400.346	288
402.873	314
405.4	332
407.926	338
410.451	338
412.976	324
415.499	310
418.02	272
420.542	262
423.063	254
425.583	236
428.101	246
430.619	244
433.137	228
435.654	236
438.169	222
440.684	220
443.198	212
445.712	226
448.223	206
450.735	208
453.246	206
455.755	198
458.264	198
460.771	206
463.279	192
465.786	190
468.291	188
470.796	184
473.301	182
475.803	176
478.306	182
480.807	192
483.308	188
485.807	186
488.307	182
490.804	170
493.302	190
495.798	188
498.294	176
500.788	192
503.283	210
505.775	210
508.269	208
510.759	210
513.251	198
515.74	206
518.23	200
520.718	200
523.204	198
525.692	198
528.177	202
530.663	244
533.147	234
535.629	240
538.113	264
540.594	256
543.074	266
545.555	254
548.034	268
550.512	270
552.989	260
555.467	262
557.942	262
560.417	252
562.892	264
565.365	240
567.838	254
570.309	250
572.78	268
575.251	268
577.72	274
580.189	246
582.656	234
585.123	222
587.589	222
590.055	218
592.52	222
594.983	222
597.446	224
599.908	230
602.369	232
604.829	230
607.289	276
609.747	302
612.205	282
614.663	334
617.119	432
619.574	726
622.029	1110
624.483	954
626.936	550
629.389	362
631.84	298
634.291	264
636.741	238
639.19	218
641.639	208
644.086	212
646.533	200
648.979	182
651.424	190
653.869	196
656.313	202
658.754	178
661.196	192
663.638	198
666.078	176
668.518	180
670.957	178
673.394	180
675.831	180
678.268	180
680.703	192
683.137	192
685.571	184
688.005	188
690.437	188
692.868	186
695.299	184
697.729	196
700.159	200
702.586	240
705.014	230
707.441	228
709.866	222
712.292	238
714.716	244
717.14	236
719.563	240
721.984	260
724.406	308
726.825	330
729.246	316
731.665	264
734.082	292
736.5	312
738.916	344
741.332	384
743.746	386
746.161	390
748.574	428
750.987	414
753.398	438
755.81	450
758.219	480
760.629	510
763.037	512
765.445	490
767.852	490
770.258	476
772.664	440
775.068	452
777.472	440
779.876	458
782.278	476
784.679	512
787.08	560
789.48	636
791.879	656
794.278	714
796.675	726
799.072	694
801.467	660
803.864	564
806.258	508
808.651	436
811.044	410
813.437	404
815.828	384
818.218	328
820.608	308
822.997	284
825.385	282
827.773	286
830.16	274
832.546	276
834.931	296
837.315	318
839.699	364
842.081	378
844.463	408
846.844	384
849.226	368
851.606	336
853.985	296
856.363	314
858.741	310
861.117	324
863.493	314
865.868	324
868.243	312
870.616	312
872.989	306
875.36	320
877.731	338
880.102	298
882.472	300
884.841	294
887.209	298
889.577	300
891.944	292
894.31	292
896.674	300
899.039	292
901.403	324
903.766	346
906.128	374
908.49	382
910.849	352
913.209	352
915.569	330
917.927	308
920.284	274
922.641	282
924.997	276
927.353	280
929.707	252
932.061	278
934.414	264
936.765	274
939.117	268
941.469	266
943.818	268
946.167	278
948.515	284
950.863	280
953.211	286
955.556	288
957.902	286
960.246	304
962.59	314
964.933	336
967.276	336
969.617	352
971.958	356
974.298	360
976.638	358
978.976	416
981.314	474
983.651	532
985.988	616
988.323	796
990.659	1188
992.992	1724
995.325	1904
997.658	2330
999.99	4196
1002.32	6600
1004.65	6100
1006.98	3430
1009.31	1618
1011.64	852
1013.97	574
1016.29	492
1018.62	490
1020.94	484
1023.27	636
1025.59	822
1027.91	1172
1030.24	1648
1032.56	1996
1034.88	1882
1037.2	1428
1039.52	998
1041.84	716
1044.15	578
1046.47	496
1048.79	448
1051.1	426
1053.42	400
1055.73	402
1058.04	390
1060.36	410
1062.67	418
1064.98	442
1067.29	424
1069.6	428
1071.91	452
1074.22	442
1076.52	432
1078.83	428
1081.14	436
1083.44	436
1085.75	422
1088.05	426
1090.35	432
1092.65	406
1094.95	406
1097.26	432
1099.56	418
1101.86	432
1104.15	416
1106.45	408
1108.75	368
1111.05	358
1113.34	342
1115.64	336
1117.93	332
1120.22	320
1122.52	292
1124.81	302
1127.1	282
1129.39	290
1131.68	296
1133.97	286
1136.26	300
1138.54	300
1140.83	320
1143.12	336
1145.4	378
1147.69	400
1149.97	504
1152.25	650
1154.54	878
1156.82	922
1159.1	868
1161.38	698
1163.66	592
1165.94	490
1168.22	504
1170.49	520
1172.77	536
1175.05	620
1177.32	742
1179.6	972
1181.87	1108
1184.14	1208
1186.42	1140
1188.69	1014
1190.96	1062
1193.23	1134
1195.5	1238
1197.77	1228
1200.03	1204
1202.3	1182
1204.57	1068
1206.83	970
1209.1	854
1211.36	740
1213.63	632
1215.89	546
1218.15	512
1220.41	462
1222.67	460
1224.93	450
1227.19	452
1229.45	446
1231.71	418
1233.97	410
1236.22	408
1238.48	364
1240.73	386
1242.99	348
1245.24	376
1247.5	364
1249.75	354
1252	324
1254.25	364
1256.5	362
1258.75	340
1261	352
1263.25	340
1265.49	350
1267.74	362
1269.99	356
1272.23	344
1274.48	346
1276.72	350
1278.96	346
1281.21	346
1283.45	352
1285.69	340
1287.93	352
1290.17	370
1292.41	374
1294.64	384
1296.88	390
1299.12	398
1301.36	406
1303.59	420
1305.82	410
1308.06	408
1310.29	410
1312.52	438
1314.76	464
1316.99	460
1319.22	454
1321.45	478
1323.68	518
1325.9	510
1328.13	540
1330.36	524
1332.58	534
1334.81	498
1337.04	490
1339.26	480
1341.48	440
1343.71	418
1345.93	404
1348.15	394
1350.37	382
1352.59	378
1354.81	366
1357.03	362
1359.24	376
1361.46	366
1363.68	380
1365.89	372
1368.11	386
1370.32	396
1372.54	376
1374.75	352
1376.96	388
1379.17	356
1381.38	354
1383.59	330
1385.8	314
1388.01	298
1390.22	294
1392.43	276
1394.63	282
1396.84	280
1399.05	274
1401.25	272
1403.45	280
1405.66	296
1407.86	282
1410.06	280
1412.26	268
1414.46	266
1416.66	266
1418.86	256
1421.06	254
1423.26	256
1425.46	268
1427.65	252
1429.85	270
1432.04	284
1434.24	316
1436.43	370
1438.62	390
1440.82	454
1443.01	480
1445.2	546
1447.39	572
1449.58	610
1451.77	606
1453.95	594
1456.14	518
1458.33	474
1460.52	386
1462.7	340
1464.89	306
1467.07	294
1469.25	272
1471.44	276
1473.62	270
1475.8	276
1477.98	262
1480.16	296
1482.34	288
1484.52	266
1486.7	276
1488.87	280
1491.05	292
1493.23	286
1495.4	320
1497.58	288
1499.75	278
1501.92	274
1504.1	248
1506.27	246
1508.44	268
1510.61	266
1512.78	266
1514.95	258
1517.12	274
1519.28	274
1521.45	252
1523.62	276
1525.78	272
1527.95	270
1530.11	284
1532.28	272
1534.44	276
1536.6	256
1538.76	268
1540.93	276
1543.09	284
1545.25	282
1547.41	274
1549.56	290
1551.72	282
1553.88	290
1556.03	288
1558.19	298
1560.35	302
1562.5	290
1564.65	314
1566.81	320
1568.96	320
1571.11	348
1573.26	380
1575.41	400
1577.56	468
1579.71	568
1581.86	826
1584.01	1006
1586.15	920
1588.3	710
1590.45	592
1592.59	612
1594.74	682
1596.88	874
1599.02	1228
1601.17	1672
1603.31	1900
1605.45	1662
1607.59	1308
1609.73	926
1611.87	664
1614.01	548
1616.14	498
1618.28	420
1620.42	384
1622.55	374
1624.69	358
1626.82	344
1628.96	334
1631.09	336
1633.22	310
1635.36	316
1637.49	342
1639.62	302
1641.75	320
1643.88	330
1646	340
1648.13	356
1650.26	332
1652.39	330
1654.51	318
1656.64	310
1658.76	308
1660.89	304
1663.01	300
1665.13	286
1667.26	284
1669.38	298
1671.5	292
1673.62	290
1675.74	286
1677.86	286
1679.97	298
1682.09	304
1684.21	286
1686.33	288
1688.44	290
1690.56	308
1692.67	284
1694.78	296
1696.9	296
1699.01	288
1701.12	278
1703.23	288
1705.34	278
1707.45	276
1709.56	286
1711.67	270
1713.78	280
1715.88	288
1717.99	288
1720.1	296
1722.2	282
1724.31	282
1726.41	282
1728.51	276
1730.62	280
1732.72	278
1734.82	272
1736.92	282
1739.02	276
1741.12	282
1743.22	284
1745.32	282
1747.42	292
1749.51	280
1751.61	266
1753.7	290
1755.8	282
1757.89	266
1759.99	286
1762.08	286
1764.17	276
1766.26	276
1768.36	288
1770.45	288
1772.54	292
1774.62	282
1776.71	302
1778.8	276
1780.89	280
1782.98	280
1785.06	284
1787.15	298
1789.23	282
1791.32	286
1793.4	276
1795.48	280
1797.56	280
1799.65	294
1801.73	300
1803.81	294
1805.89	288
1807.97	302
1810.04	278
1812.12	306
1814.2	286
1816.28	300
1818.35	294
1820.43	304
1822.5	276
1824.58	300
1826.65	284
1828.72	284
1830.79	288
1832.86	280
1834.94	286
1837.01	294
1839.08	294
1841.15	300
1843.21	300
1845.28	294
1847.35	316
1849.41	294
1851.48	284
1853.55	290
1855.61	300
1857.67	292
1859.74	290
1861.8	302
1863.86	284
1865.92	276
1867.98	296
1870.05	286
1872.1	272
1874.16	292
1876.22	292
1878.28	290
1880.34	300
1882.39	298
1884.45	306
1886.5	288
1888.56	306
1890.61	296
1892.67	286
1894.72	306
1896.77	302
1898.82	298
1900.87	290
1902.92	306
1904.97	298
1907.02	304
1909.07	300
1911.12	322
1913.17	306
1915.21	304
1917.26	308
1919.3	306
1921.35	308
1923.39	306
1925.43	314
1927.48	316
1929.52	330
1931.56	290
1933.6	310
1935.64	306
1937.68	306
1939.72	330
1941.76	304
1943.8	302
1945.83	302
1947.87	302
1949.91	324
1951.94	282
1953.98	326
1956.01	314
1958.05	322
1960.08	302
1962.11	308
1964.14	310
1966.17	310
1968.2	310
1970.23	308
1972.26	308
1974.29	312
1976.32	302
1978.35	314
1980.37	320
1982.4	318
1984.43	312
1986.45	310
1988.48	296
1990.5	308
1992.52	312
1994.55	328
1996.57	322
1998.59	308
2000.61	294
2002.63	304
2004.65	304
2006.67	312
2008.69	308
2010.7	296
2012.72	316
2014.74	314
2016.75	302
2018.77	300
2020.78	308
2022.8	326
2024.81	296
2026.83	320
2028.84	318
2030.85	310
2032.86	308
2034.87	330
2036.88	338
2038.89	308
2040.9	316
2042.91	324
2044.91	324
2046.92	332
2048.93	318
2050.93	322
2052.94	320
2054.94	330
2056.95	338
2058.95	324
2060.95	336
2062.95	324
2064.96	310
2066.96	316
2068.96	318
2070.96	308
2072.96	328
2074.95	310
2076.95	316
2078.95	322
2080.95	330
2082.94	308
2084.94	322
2086.93	314
2088.93	316
2090.92	324
2092.91	326
2094.91	318
2096.9	324
2098.89	338
2100.88	324
2102.87	334
2104.86	308
2106.85	332
2108.84	334
2110.83	328
2112.81	330
2114.8	322
2116.78	314
2118.77	330
2120.75	326
2122.74	332
2124.72	328
2126.71	358
2128.69	336
2130.67	352
2132.65	308
2134.63	342
2136.61	316
2138.59	320
2140.57	324
2142.55	326
2144.53	340
2146.5	348
2148.48	328
2150.46	332
2152.43	320
2154.41	328
2156.38	334
2158.35	344
2160.33	332
2162.3	316
2164.27	346
2166.24	346
2168.21	334
2170.18	334
2172.15	322
2174.12	322
2176.09	332
2178.06	338
2180.03	316
2181.99	320
2183.96	338
2185.92	352
2187.89	334
2189.85	330
2191.82	336
2193.78	334
2195.74	342
2197.7	328
2199.67	328
2201.63	344
2203.59	340
2205.55	352
2207.51	340
2209.46	324
2211.42	332
2213.38	316
2215.34	336
2217.29	338
2219.25	348
2221.2	336
2223.16	344
2225.11	318
2227.06	342
2229.02	352
2230.97	330
2232.92	322
2234.87	342
2236.82	326
2238.77	316
2240.72	340
2242.67	340
2244.62	322
2246.57	344
2248.51	350
2250.46	342
2252.4	340
2254.35	322
2256.29	334
2258.24	334
2260.18	344
2262.13	324
2264.07	336
2266.01	328
2267.95	338
2269.89	344
2271.83	344
2273.77	344
2275.71	338
2277.65	336
2279.58	342
2281.52	320
2283.46	336
2285.4	342
2287.33	340
2289.27	322
2291.2	338
2293.13	334
2295.07	340
2297	360
2298.93	352
2300.86	324
2302.79	332
2304.72	330
2306.65	340
2308.58	342
2310.51	344
2312.44	340
2314.37	338
2316.29	358
2318.22	346
2320.15	328
2322.07	332
2324	332
2325.92	344
2327.84	334
2329.77	328
2331.69	340
2333.61	318
2335.53	346
2337.45	348
2339.37	338
2341.29	352
2343.21	344
2345.13	350
2347.05	328
2348.97	338
2350.88	346
2352.8	352
2354.71	326
2356.63	348
2358.54	364
2360.46	346
2362.37	350
2364.28	354
2366.2	330
2368.11	344
2370.02	324
2371.93	324
2373.84	340
2375.75	344
2377.66	330
2379.57	346
2381.47	346
2383.38	338
2385.29	352
2387.2	344
2389.1	336
2391.01	350
2392.91	342
2394.81	356
2396.72	328
2398.62	334
2400.52	356
2402.42	354
2404.33	340
2406.23	354
2408.13	324
2410.03	328
2411.92	342
2413.82	340
2415.72	326
2417.62	352
2419.51	352
2421.41	344
2423.31	346
2425.2	342
2427.1	356
2428.99	342
2430.88	312
2432.78	344
2434.67	362
2436.56	352
2438.45	342
2440.34	352
2442.23	360
2444.12	364
2446.01	358
2447.9	372
2449.79	348