File: Mixture_Classification/Jesse_Dataset_v2/Pure Raman/Polystyrene/633nm/ps-ppo-7jan25-1,0000-map3_Y00_X03.txt
182.393	1058
184.993	1028
187.593	1050
190.193	1016
192.79	964
195.387	966
197.983	984
200.578	944
203.174	980
205.766	1034
208.36	1032
210.951	1062
213.542	1092
216.131	1044
218.721	1094
221.309	1114
223.897	1084
226.483	1058
229.069	1020
231.654	974
234.238	888
236.821	760
239.404	726
241.984	658
244.566	580
247.145	516
249.723	464
252.302	434
254.878	432
257.455	414
260.03	398
262.604	380
265.178	370
267.75	370
270.322	376
272.893	362
275.463	334
278.032	346
280.601	338
283.168	336
285.734	310
288.301	338
290.866	332
293.429	284
295.992	306
298.556	250
301.117	292
303.677	272
306.236	290
308.795	272
311.354	272
313.911	284
316.467	296
319.022	282
321.577	284
324.13	282
326.684	296
329.236	274
331.787	280
334.337	266
336.887	284
339.435	270
341.983	280
344.529	290
347.075	266
349.621	278
352.165	254
354.708	256
357.251	264
359.793	264
362.334	270
364.874	258
367.413	248
369.951	274
372.489	258
375.026	268
377.562	284
380.097	284
382.631	278
385.164	294
387.697	312
390.229	296
392.76	332
395.29	334
397.819	332
400.346	326
402.873	358
405.4	380
407.926	396
410.451	366
412.976	358
415.499	322
418.02	318
420.542	304
423.063	282
425.583	300
428.101	286
430.619	284
433.137	290
435.654	272
438.169	260
440.684	262
443.198	262
445.712	254
448.223	226
450.735	226
453.246	244
455.755	238
458.264	202
460.771	226
463.279	234
465.786	220
468.291	218
470.796	224
473.301	230
475.803	214
478.306	230
480.807	208
483.308	218
485.807	216
488.307	218
490.804	206
493.302	218
495.798	228
498.294	214
500.788	206
503.283	222
505.775	226
508.269	242
510.759	230
513.251	230
515.74	232
518.23	236
520.718	234
523.204	242
525.692	238
528.177	260
530.663	270
533.147	248
535.629	270
538.113	286
540.594	294
543.074	282
545.555	292
548.034	286
550.512	290
552.989	288
555.467	284
557.942	284
560.417	280
562.892	288
565.365	266
567.838	290
570.309	290
572.78	304
575.251	280
577.72	278
580.189	266
582.656	252
585.123	254
587.589	246
590.055	230
592.52	252
594.983	248
597.446	252
599.908	268
602.369	244
604.829	262
607.289	286
609.747	334
612.205	312
614.663	342
617.119	472
619.574	758
622.029	1128
624.483	1016
626.936	562
629.389	370
631.84	314
634.291	282
636.741	260
639.19	242
641.639	220
644.086	220
646.533	214
648.979	190
651.424	190
653.869	194
656.313	208
658.754	204
661.196	210
663.638	176
666.078	206
668.518	206
670.957	208
673.394	206
675.831	206
678.268	214
680.703	192
683.137	204
685.571	194
688.005	200
690.437	206
692.868	222
695.299	212
697.729	216
700.159	234
702.586	248
705.014	250
707.441	238
709.866	242
712.292	244
714.716	246
717.14	248
719.563	252
721.984	292
724.406	320
726.825	350
729.246	316
731.665	302
734.082	292
736.5	332
738.916	354
741.332	390
743.746	418
746.161	428
748.574	410
750.987	422
753.398	444
755.81	490
758.219	502
760.629	534
763.037	508
765.445	526
767.852	510
770.258	476
772.664	464
775.068	442
777.472	472
779.876	488
782.278	488
784.679	540
787.08	582
789.48	632
791.879	676
794.278	704
796.675	698
799.072	704
801.467	654
803.864	582
806.258	496
808.651	472
811.044	434
813.437	422
815.828	370
818.218	368
820.608	316
822.997	314
825.385	306
827.773	292
830.16	308
832.546	314
834.931	310
837.315	360
839.699	378
842.081	400
844.463	390
846.844	394
849.226	382
851.606	356
853.985	336
856.363	330
858.741	322
861.117	344
863.493	308
865.868	322
868.243	316
870.616	314
872.989	330
875.36	346
877.731	330
880.102	322
882.472	324
884.841	328
887.209	322
889.577	318
891.944	306
894.31	316
896.674	330
899.039	320
901.403	344
903.766	386
906.128	384
908.49	404
910.849	384
913.209	372
915.569	340
917.927	304
920.284	298
922.641	294
924.997	294
927.353	290
929.707	276
932.061	278
934.414	292
936.765	284
939.117	286
941.469	306
943.818	292
946.167	306
948.515	306
950.863	290
953.211	304
955.556	312
957.902	300
960.246	318
962.59	346
964.933	352
967.276	360
969.617	362
971.958	356
974.298	376
976.638	400
978.976	442
981.314	496
983.651	554
985.988	668
988.323	806
990.659	1194
992.992	1710
995.325	1968
997.658	2376
999.99	4292
1002.32	6514
1004.65	6120
1006.98	3470
1009.31	1604
1011.64	886
1013.97	626
1016.29	514
1018.62	494
1020.94	518
1023.27	694
1025.59	852
1027.91	1230
1030.24	1658
1032.56	2002
1034.88	1902
1037.2	1468
1039.52	1008
1041.84	772
1044.15	616
1046.47	526
1048.79	470
1051.1	462
1053.42	458
1055.73	424
1058.04	440
1060.36	424
1062.67	448
1064.98	478
1067.29	484
1069.6	488
1071.91	486
1074.22	494
1076.52	482
1078.83	484
1081.14	500
1083.44	456
1085.75	466
1088.05	480
1090.35	468
1092.65	478
1094.95	458
1097.26	484
1099.56	464
1101.86	454
1104.15	456
1106.45	430
1108.75	410
1111.05	384
1113.34	376
1115.64	368
1117.93	370
1120.22	360
1122.52	334
1124.81	322
1127.1	318
1129.39	326
1131.68	318
1133.97	324
1136.26	336
1138.54	346
1140.83	352
1143.12	370
1145.4	408
1147.69	446
1149.97	560
1152.25	710
1154.54	892
1156.82	1048
1159.1	940
1161.38	726
1163.66	610
1165.94	574
1168.22	554
1170.49	572
1172.77	610
1175.05	632
1177.32	802
1179.6	1036
1181.87	1216
1184.14	1248
1186.42	1134
1188.69	1076
1190.96	1108
1193.23	1156
1195.5	1304
1197.77	1260
1200.03	1244
1202.3	1198
1204.57	1076
1206.83	1026
1209.1	896
1211.36	772
1213.63	668
1215.89	622
1218.15	572
1220.41	520
1222.67	510
1224.93	500
1227.19	484
1229.45	478
1231.71	464
1233.97	458
1236.22	426
1238.48	408
1240.73	432
1242.99	416
1245.24	404
1247.5	414
1249.75	414
1252	398
1254.25	406
1256.5	392
1258.75	404
1261	404
1263.25	392
1265.49	418
1267.74	378
1269.99	412
1272.23	408
1274.48	408
1276.72	374
1278.96	398
1281.21	384
1283.45	408
1285.69	384
1287.93	408
1290.17	404
1292.41	412
1294.64	436
1296.88	438
1299.12	460
1301.36	488
1303.59	452
1305.82	484
1308.06	470
1310.29	482
1312.52	474
1314.76	486
1316.99	512
1319.22	504
1321.45	550
1323.68	564
1325.9	580
1328.13	570
1330.36	610
1332.58	556
1334.81	576
1337.04	522
1339.26	518
1341.48	474
1343.71	476
1345.93	452
1348.15	426
1350.37	412
1352.59	402
1354.81	436
1357.03	430
1359.24	414
1361.46	408
1363.68	418
1365.89	416
1368.11	434
1370.32	392
1372.54	438
1374.75	414
1376.96	416
1379.17	402
1381.38	398
1383.59	390
1385.8	362
1388.01	348
1390.22	312
1392.43	330
1394.63	324
1396.84	324
1399.05	308
1401.25	350
1403.45	330
1405.66	350
1407.86	320
1410.06	340
1412.26	302
1414.46	316
1416.66	318
1418.86	316
1421.06	296
1423.26	286
1425.46	332
1427.65	316
1429.85	336
1432.04	348
1434.24	386
1436.43	408
1438.62	442
1440.82	456
1443.01	554
1445.2	558
1447.39	640
1449.58	678
1451.77	652
1453.95	644
1456.14	578
1458.33	518
1460.52	428
1462.7	376
1464.89	362
1467.07	352
1469.25	330
1471.44	332
1473.62	308
1475.8	308
1477.98	322
1480.16	336
1482.34	310
1484.52	320
1486.7	310
1488.87	340
1491.05	344
1493.23	344
1495.4	352
1497.58	320
1499.75	322
1501.92	322
1504.1	318
1506.27	318
1508.44	316
1510.61	324
1512.78	316
1514.95	320
1517.12	318
1519.28	326
1521.45	310
1523.62	312
1525.78	312
1527.95	320
1530.11	314
1532.28	324
1534.44	298
1536.6	328
1538.76	318
1540.93	308
1543.09	324
1545.25	316
1547.41	324
1549.56	320
1551.72	340
1553.88	324
1556.03	338
1558.19	340
1560.35	342
1562.5	336
1564.65	356
1566.81	362
1568.96	374
1571.11	400
1573.26	418
1575.41	468
1577.56	528
1579.71	624
1581.86	826
1584.01	1026
1586.15	978
1588.3	768
1590.45	642
1592.59	618
1594.74	736
1596.88	940
1599.02	1274
1601.17	1696
1603.31	1900
1605.45	1722
1607.59	1326
1609.73	964
1611.87	724
1614.01	584
1616.14	510
1618.28	464
1620.42	422
1622.55	440
1624.69	408
1626.82	402
1628.96	368
1631.09	380
1633.22	360
1635.36	372
1637.49	368
1639.62	366
1641.75	362
1643.88	376
1646	388
1648.13	378
1650.26	404
1652.39	352
1654.51	380
1656.64	354
1658.76	346
1660.89	330
1663.01	328
1665.13	340
1667.26	308
1669.38	324
1671.5	318
1673.62	334
1675.74	336
1677.86	336
1679.97	326
1682.09	340
1684.21	326
1686.33	322
1688.44	336
1690.56	348
1692.67	328
1694.78	338
1696.9	326
1699.01	356
1701.12	340
1703.23	336
1705.34	328
1707.45	332
1709.56	332
1711.67	340
1713.78	298
1715.88	296
1717.99	326
1720.1	334
1722.2	320
1724.31	332
1726.41	320
1728.51	330
1730.62	320
1732.72	336
1734.82	330
1736.92	316
1739.02	314
1741.12	320
1743.22	328
1745.32	318
1747.42	320
1749.51	318
1751.61	312
1753.7	328
1755.8	330
1757.89	312
1759.99	338
1762.08	300
1764.17	324
1766.26	324
1768.36	304
1770.45	320
1772.54	332
1774.62	320
1776.71	326
1778.8	344
1780.89	332
1782.98	322
1785.06	324
1787.15	320
1789.23	322
1791.32	330
1793.4	332
1795.48	310
1797.56	338
1799.65	324
1801.73	340
1803.81	320
1805.89	342
1807.97	322
1810.04	328
1812.12	322
1814.2	336
1816.28	338
1818.35	330
1820.43	322
1822.5	338
1824.58	344
1826.65	332
1828.72	336
1830.79	326
1832.86	334
1834.94	344
1837.01	316
1839.08	318
1841.15	332
1843.21	340
1845.28	324
1847.35	342
1849.41	318
1851.48	336
1853.55	326
1855.61	336
1857.67	306
1859.74	334
1861.8	342
1863.86	342
1865.92	336
1867.98	322
1870.05	328
1872.1	342
1874.16	318
1876.22	338
1878.28	328
1880.34	338
1882.39	322
1884.45	336
1886.5	330
1888.56	326
1890.61	330
1892.67	336
1894.72	334
1896.77	324
1898.82	334
1900.87	352
1902.92	356
1904.97	334
1907.02	348
1909.07	368
1911.12	332
1913.17	348
1915.21	348
1917.26	342
1919.3	332
1921.35	338
1923.39	350
1925.43	354
1927.48	350
1929.52	350
1931.56	340
1933.6	342
1935.64	340
1937.68	344
1939.72	352
1941.76	342
1943.8	342
1945.83	350
1947.87	344
1949.91	322
1951.94	330
1953.98	340
1956.01	338
1958.05	342
1960.08	360
1962.11	350
1964.14	364
1966.17	352
1968.2	340
1970.23	346
1972.26	344
1974.29	368
1976.32	332
1978.35	324
1980.37	348
1982.4	350
1984.43	332
1986.45	342
1988.48	314
1990.5	338
1992.52	318
1994.55	342
1996.57	344
1998.59	344
2000.61	356
2002.63	342
2004.65	346
2006.67	358
2008.69	360
2010.7	340
2012.72	358
2014.74	344
2016.75	354
2018.77	358
2020.78	356
2022.8	354
2024.81	336
2026.83	348
2028.84	322
2030.85	364
2032.86	344
2034.87	358
2036.88	340
2038.89	366
2040.9	356
2042.91	340
2044.91	352
2046.92	370
2048.93	346
2050.93	360
2052.94	380
2054.94	350
2056.95	352
2058.95	366
2060.95	358
2062.95	366
2064.96	352
2066.96	358
2068.96	370
2070.96	344
2072.96	362
2074.95	354
2076.95	342
2078.95	356
2080.95	364
2082.94	370
2084.94	344
2086.93	370
2088.93	350
2090.92	356
2092.91	350
2094.91	340
2096.9	346
2098.89	352
2100.88	350
2102.87	336
2104.86	356
2106.85	366
2108.84	354
2110.83	352
2112.81	338
2114.8	364
2116.78	346
2118.77	374
2120.75	350
2122.74	358
2124.72	358
2126.71	382
2128.69	370
2130.67	362
2132.65	366
2134.63	372
2136.61	346
2138.59	352
2140.57	380
2142.55	376
2144.53	362
2146.5	374
2148.48	378
2150.46	366
2152.43	360
2154.41	352
2156.38	358
2158.35	374
2160.33	376
2162.3	372
2164.27	360
2166.24	378
2168.21	358
2170.18	350
2172.15	390
2174.12	364
2176.09	372
2178.06	364
2180.03	370
2181.99	364
2183.96	372
2185.92	350
2187.89	380
2189.85	378
2191.82	350
2193.78	372
2195.74	336
2197.7	378
2199.67	380
2201.63	376
2203.59	372
2205.55	344
2207.51	362
2209.46	360
2211.42	370
2213.38	366
2215.34	376
2217.29	384
2219.25	370
2221.2	354
2223.16	386
2225.11	364
2227.06	364
2229.02	350
2230.97	372
2232.92	370
2234.87	368
2236.82	370
2238.77	376
2240.72	374
2242.67	352
2244.62	372
2246.57	384
2248.51	382
2250.46	366
2252.4	368
2254.35	366
2256.29	364
2258.24	356
2260.18	354
2262.13	358
2264.07	378
2266.01	354
2267.95	388
2269.89	382
2271.83	384
2273.77	378
2275.71	374
2277.65	392
2279.58	368
2281.52	370
2283.46	360
2285.4	370
2287.33	368
2289.27	376
2291.2	376
2293.13	384
2295.07	360
2297	372
2298.93	372
2300.86	356
2302.79	384
2304.72	372
2306.65	376
2308.58	376
2310.51	368
2312.44	378
2314.37	384
2316.29	380
2318.22	370
2320.15	376
2322.07	380
2324	370
2325.92	362
2327.84	390
2329.77	372
2331.69	374
2333.61	388
2335.53	382
2337.45	372
2339.37	374
2341.29	378
2343.21	378
2345.13	374
2347.05	364
2348.97	378
2350.88	392
2352.8	380
2354.71	366
2356.63	368
2358.54	390
2360.46	384
2362.37	388
2364.28	386
2366.2	374
2368.11	382
2370.02	390
2371.93	356
2373.84	372
2375.75	378
2377.66	378
2379.57	360
2381.47	382
2383.38	370
2385.29	384
2387.2	382
2389.1	380
2391.01	364
2392.91	382
2394.81	384
2396.72	364
2398.62	372
2400.52	364
2402.42	380
2404.33	370
2406.23	366
2408.13	372
2410.03	354
2411.92	386
2413.82	368
2415.72	368
2417.62	378
2419.51	382
2421.41	388
2423.31	380
2425.2	378
2427.1	368
2428.99	360
2430.88	370
2432.78	410
2434.67	382
2436.56	398
2438.45	374
2440.34	398
2442.23	398
2444.12	402
2446.01	386
2447.9	370
2449.79	396