File: Mixture_Classification/Jesse_Dataset_v2/Pure Raman/Polystyrene/633nm/ps-ppo-7jan25-1,0000-map3_Y03_X08.txt
182.393	1006
184.993	1010
187.593	982
190.193	934
192.79	922
195.387	894
197.983	924
200.578	932
203.174	950
205.766	960
208.36	1016
210.951	1012
213.542	1002
216.131	1044
218.721	1058
221.309	1058
223.897	1074
226.483	1046
229.069	980
231.654	940
234.238	802
236.821	774
239.404	698
241.984	592
244.566	510
247.145	452
249.723	410
252.302	406
254.878	384
257.455	354
260.03	342
262.604	338
265.178	338
267.75	316
270.322	332
272.893	310
275.463	304
278.032	306
280.601	284
283.168	296
285.734	274
288.301	276
290.866	248
293.429	248
295.992	242
298.556	248
301.117	236
303.677	230
306.236	234
308.795	244
311.354	234
313.911	220
316.467	238
319.022	248
321.577	234
324.13	212
326.684	220
329.236	230
331.787	236
334.337	238
336.887	220
339.435	238
341.983	232
344.529	230
347.075	224
349.621	208
352.165	210
354.708	220
357.251	206
359.793	220
362.334	222
364.874	222
367.413	206
369.951	220
372.489	244
375.026	206
377.562	232
380.097	224
382.631	236
385.164	250
387.697	266
390.229	264
392.76	272
395.29	280
397.819	292
400.346	296
402.873	324
405.4	334
407.926	318
410.451	326
412.976	334
415.499	304
418.02	268
420.542	254
423.063	236
425.583	244
428.101	236
430.619	238
433.137	226
435.654	232
438.169	224
440.684	210
443.198	204
445.712	208
448.223	204
450.735	188
453.246	194
455.755	200
458.264	176
460.771	182
463.279	182
465.786	170
468.291	188
470.796	186
473.301	198
475.803	180
478.306	176
480.807	164
483.308	174
485.807	174
488.307	162
490.804	162
493.302	164
495.798	174
498.294	182
500.788	196
503.283	186
505.775	200
508.269	190
510.759	186
513.251	194
515.74	194
518.23	206
520.718	186
523.204	192
525.692	196
528.177	208
530.663	204
533.147	212
535.629	236
538.113	264
540.594	258
543.074	242
545.555	240
548.034	240
550.512	252
552.989	252
555.467	242
557.942	254
560.417	262
562.892	234
565.365	230
567.838	252
570.309	244
572.78	256
575.251	234
577.72	250
580.189	206
582.656	216
585.123	210
587.589	214
590.055	220
592.52	204
594.983	206
597.446	224
599.908	222
602.369	224
604.829	224
607.289	268
609.747	264
612.205	268
614.663	298
617.119	408
619.574	676
622.029	1076
624.483	966
626.936	536
629.389	332
631.84	266
634.291	248
636.741	218
639.19	200
641.639	184
644.086	178
646.533	166
648.979	176
651.424	172
653.869	178
656.313	158
658.754	174
661.196	156
663.638	160
666.078	164
668.518	154
670.957	156
673.394	162
675.831	154
678.268	158
680.703	174
683.137	170
685.571	158
688.005	170
690.437	166
692.868	178
695.299	170
697.729	184
700.159	200
702.586	214
705.014	212
707.441	204
709.866	200
712.292	212
714.716	212
717.14	212
719.563	222
721.984	250
724.406	292
726.825	316
729.246	280
731.665	266
734.082	260
736.5	286
738.916	350
741.332	350
743.746	380
746.161	370
748.574	362
750.987	398
753.398	416
755.81	426
758.219	458
760.629	472
763.037	484
765.445	464
767.852	434
770.258	430
772.664	422
775.068	422
777.472	414
779.876	444
782.278	432
784.679	498
787.08	560
789.48	586
791.879	626
794.278	670
796.675	688
799.072	678
801.467	598
803.864	554
806.258	448
808.651	424
811.044	392
813.437	376
815.828	358
818.218	310
820.608	286
822.997	272
825.385	262
827.773	262
830.16	262
832.546	260
834.931	288
837.315	310
839.699	338
842.081	354
844.463	346
846.844	350
849.226	320
851.606	300
853.985	310
856.363	296
858.741	270
861.117	294
863.493	298
865.868	294
868.243	294
870.616	294
872.989	280
875.36	290
877.731	280
880.102	276
882.472	286
884.841	272
887.209	280
889.577	268
891.944	284
894.31	256
896.674	256
899.039	284
901.403	308
903.766	310
906.128	346
908.49	344
910.849	340
913.209	312
915.569	288
917.927	280
920.284	274
922.641	248
924.997	246
927.353	258
929.707	226
932.061	244
934.414	246
936.765	262
939.117	244
941.469	266
943.818	256
946.167	256
948.515	260
950.863	268
953.211	262
955.556	254
957.902	282
960.246	286
962.59	296
964.933	316
967.276	306
969.617	314
971.958	312
974.298	322
976.638	356
978.976	376
981.314	466
983.651	500
985.988	606
988.323	764
990.659	1158
992.992	1712
995.325	1932
997.658	2324
999.99	4148
1002.32	6506
1004.65	6078
1006.98	3416
1009.31	1550
1011.64	834
1013.97	586
1016.29	468
1018.62	454
1020.94	518
1023.27	608
1025.59	826
1027.91	1196
1030.24	1632
1032.56	1958
1034.88	1850
1037.2	1444
1039.52	948
1041.84	700
1044.15	534
1046.47	480
1048.79	424
1051.1	398
1053.42	394
1055.73	386
1058.04	398
1060.36	382
1062.67	412
1064.98	394
1067.29	432
1069.6	402
1071.91	428
1074.22	438
1076.52	412
1078.83	412
1081.14	430
1083.44	408
1085.75	386
1088.05	388
1090.35	396
1092.65	400
1094.95	418
1097.26	416
1099.56	420
1101.86	412
1104.15	396
1106.45	372
1108.75	360
1111.05	348
1113.34	324
1115.64	324
1117.93	294
1120.22	316
1122.52	290
1124.81	262
1127.1	276
1129.39	256
1131.68	254
1133.97	258
1136.26	274
1138.54	280
1140.83	294
1143.12	328
1145.4	344
1147.69	430
1149.97	458
1152.25	634
1154.54	854
1156.82	958
1159.1	876
1161.38	710
1163.66	558
1165.94	540
1168.22	486
1170.49	490
1172.77	534
1175.05	608
1177.32	738
1179.6	964
1181.87	1158
1184.14	1174
1186.42	1124
1188.69	1022
1190.96	1032
1193.23	1108
1195.5	1186
1197.77	1220
1200.03	1174
1202.3	1156
1204.57	1074
1206.83	976
1209.1	852
1211.36	718
1213.63	622
1215.89	566
1218.15	480
1220.41	468
1222.67	456
1224.93	408
1227.19	414
1229.45	418
1231.71	402
1233.97	396
1236.22	374
1238.48	376
1240.73	386
1242.99	354
1245.24	368
1247.5	354
1249.75	352
1252	360
1254.25	334
1256.5	360
1258.75	346
1261	342
1263.25	356
1265.49	356
1267.74	366
1269.99	362
1272.23	338
1274.48	334
1276.72	328
1278.96	344
1281.21	330
1283.45	336
1285.69	360
1287.93	364
1290.17	374
1292.41	382
1294.64	376
1296.88	392
1299.12	370
1301.36	402
1303.59	424
1305.82	418
1308.06	410
1310.29	418
1312.52	434
1314.76	428
1316.99	452
1319.22	478
1321.45	474
1323.68	518
1325.9	550
1328.13	542
1330.36	518
1332.58	522
1334.81	498
1337.04	458
1339.26	470
1341.48	426
1343.71	418
1345.93	386
1348.15	368
1350.37	380
1352.59	384
1354.81	370
1357.03	372
1359.24	386
1361.46	374
1363.68	366
1365.89	372
1368.11	374
1370.32	366
1372.54	378
1374.75	374
1376.96	366
1379.17	358
1381.38	360
1383.59	334
1385.8	306
1388.01	304
1390.22	274
1392.43	294
1394.63	272
1396.84	282
1399.05	256
1401.25	282
1403.45	272
1405.66	270
1407.86	254
1410.06	262
1412.26	276
1414.46	264
1416.66	264
1418.86	258
1421.06	270
1423.26	274
1425.46	260
1427.65	282
1429.85	296
1432.04	306
1434.24	316
1436.43	354
1438.62	400
1440.82	442
1443.01	474
1445.2	534
1447.39	586
1449.58	610
1451.77	594
1453.95	576
1456.14	540
1458.33	478
1460.52	372
1462.7	320
1464.89	302
1467.07	300
1469.25	280
1471.44	298
1473.62	288
1475.8	270
1477.98	254
1480.16	264
1482.34	278
1484.52	268
1486.7	258
1488.87	278
1491.05	286
1493.23	300
1495.4	278
1497.58	280
1499.75	286
1501.92	280
1504.1	278
1506.27	278
1508.44	260
1510.61	262
1512.78	240
1514.95	274
1517.12	250
1519.28	258
1521.45	270
1523.62	244
1525.78	254
1527.95	268
1530.11	264
1532.28	270
1534.44	272
1536.6	288
1538.76	282
1540.93	280
1543.09	278
1545.25	270
1547.41	264
1549.56	298
1551.72	280
1553.88	286
1556.03	294
1558.19	282
1560.35	288
1562.5	302
1564.65	310
1566.81	318
1568.96	344
1571.11	344
1573.26	350
1575.41	422
1577.56	468
1579.71	590
1581.86	806
1584.01	990
1586.15	884
1588.3	718
1590.45	616
1592.59	612
1594.74	714
1596.88	864
1599.02	1210
1601.17	1650
1603.31	1840
1605.45	1734
1607.59	1336
1609.73	920
1611.87	648
1614.01	550
1616.14	464
1618.28	446
1620.42	420
1622.55	390
1624.69	362
1626.82	346
1628.96	308
1631.09	320
1633.22	330
1635.36	288
1637.49	320
1639.62	330
1641.75	326
1643.88	346
1646	340
1648.13	336
1650.26	350
1652.39	320
1654.51	316
1656.64	308
1658.76	282
1660.89	296
1663.01	286
1665.13	292
1667.26	296
1669.38	284
1671.5	298
1673.62	278
1675.74	298
1677.86	282
1679.97	276
1682.09	282
1684.21	310
1686.33	290
1688.44	302
1690.56	294
1692.67	276
1694.78	316
1696.9	298
1699.01	274
1701.12	290
1703.23	278
1705.34	290
1707.45	282
1709.56	310
1711.67	296
1713.78	290
1715.88	280
1717.99	286
1720.1	282
1722.2	294
1724.31	278
1726.41	288
1728.51	266
1730.62	290
1732.72	270
1734.82	286
1736.92	278
1739.02	292
1741.12	292
1743.22	268
1745.32	290
1747.42	286
1749.51	288
1751.61	290
1753.7	270
1755.8	288
1757.89	292
1759.99	274
1762.08	280
1764.17	276
1766.26	268
1768.36	284
1770.45	282
1772.54	280
1774.62	266
1776.71	278
1778.8	288
1780.89	290
1782.98	284
1785.06	284
1787.15	294
1789.23	282
1791.32	270
1793.4	298
1795.48	296
1797.56	296
1799.65	294
1801.73	286
1803.81	284
1805.89	286
1807.97	300
1810.04	296
1812.12	306
1814.2	298
1816.28	278
1818.35	314
1820.43	290
1822.5	302
1824.58	292
1826.65	288
1828.72	290
1830.79	286
1832.86	308
1834.94	286
1837.01	292
1839.08	310
1841.15	292
1843.21	292
1845.28	292
1847.35	306
1849.41	306
1851.48	304
1853.55	300
1855.61	280
1857.67	296
1859.74	294
1861.8	288
1863.86	302
1865.92	292
1867.98	292
1870.05	290
1872.1	292
1874.16	304
1876.22	296
1878.28	308
1880.34	302
1882.39	316
1884.45	294
1886.5	292
1888.56	308
1890.61	312
1892.67	312
1894.72	292
1896.77	308
1898.82	310
1900.87	318
1902.92	300
1904.97	322
1907.02	302
1909.07	314
1911.12	304
1913.17	308
1915.21	300
1917.26	320
1919.3	310
1921.35	316
1923.39	312
1925.43	328
1927.48	322
1929.52	328
1931.56	324
1933.6	306
1935.64	318
1937.68	310
1939.72	300
1941.76	308
1943.8	328
1945.83	310
1947.87	298
1949.91	324
1951.94	298
1953.98	318
1956.01	308
1958.05	314
1960.08	304
1962.11	322
1964.14	302
1966.17	322
1968.2	304
1970.23	318
1972.26	302
1974.29	306
1976.32	318
1978.35	310
1980.37	276
1982.4	312
1984.43	318
1986.45	286
1988.48	310
1990.5	312
1992.52	312
1994.55	302
1996.57	310
1998.59	292
2000.61	328
2002.63	334
2004.65	306
2006.67	300
2008.69	294
2010.7	324
2012.72	324
2014.74	306
2016.75	336
2018.77	326
2020.78	324
2022.8	326
2024.81	314
2026.83	326
2028.84	326
2030.85	312
2032.86	320
2034.87	310
2036.88	326
2038.89	314
2040.9	314
2042.91	302
2044.91	328
2046.92	330
2048.93	300
2050.93	324
2052.94	336
2054.94	318
2056.95	320
2058.95	330
2060.95	318
2062.95	332
2064.96	304
2066.96	328
2068.96	334
2070.96	320
2072.96	334
2074.95	312
2076.95	320
2078.95	330
2080.95	328
2082.94	320
2084.94	326
2086.93	328
2088.93	328
2090.92	306
2092.91	334
2094.91	344
2096.9	344
2098.89	308
2100.88	330
2102.87	330
2104.86	336
2106.85	320
2108.84	342
2110.83	326
2112.81	342
2114.8	324
2116.78	320
2118.77	296
2120.75	334
2122.74	318
2124.72	338
2126.71	322
2128.69	346
2130.67	338
2132.65	330
2134.63	320
2136.61	314
2138.59	332
2140.57	328
2142.55	334
2144.53	334
2146.5	314
2148.48	336
2150.46	344
2152.43	316
2154.41	354
2156.38	354
2158.35	316
2160.33	336
2162.3	322
2164.27	324
2166.24	340
2168.21	340
2170.18	340
2172.15	334
2174.12	324
2176.09	330
2178.06	332
2180.03	334
2181.99	344
2183.96	320
2185.92	334
2187.89	326
2189.85	344
2191.82	348
2193.78	338
2195.74	332
2197.7	332
2199.67	330
2201.63	338
2203.59	352
2205.55	340
2207.51	328
2209.46	330
2211.42	346
2213.38	330
2215.34	336
2217.29	318
2219.25	334
2221.2	332
2223.16	330
2225.11	342
2227.06	336
2229.02	352
2230.97	334
2232.92	334
2234.87	342
2236.82	356
2238.77	330
2240.72	354
2242.67	344
2244.62	340
2246.57	346
2248.51	340
2250.46	340
2252.4	326
2254.35	348
2256.29	326
2258.24	340
2260.18	338
2262.13	340
2264.07	364
2266.01	332
2267.95	364
2269.89	350
2271.83	346
2273.77	348
2275.71	346
2277.65	356
2279.58	340
2281.52	344
2283.46	350
2285.4	316
2287.33	344
2289.27	350
2291.2	334
2293.13	330
2295.07	342
2297	340
2298.93	364
2300.86	348
2302.79	340
2304.72	356
2306.65	360
2308.58	360
2310.51	346
2312.44	370
2314.37	354
2316.29	360
2318.22	360
2320.15	342
2322.07	360
2324	338
2325.92	342
2327.84	374
2329.77	350
2331.69	346
2333.61	356
2335.53	358
2337.45	336
2339.37	352
2341.29	362
2343.21	360
2345.13	344
2347.05	362
2348.97	362
2350.88	348
2352.8	382
2354.71	360
2356.63	344
2358.54	356
2360.46	352
2362.37	350
2364.28	356
2366.2	336
2368.11	366
2370.02	350
2371.93	372
2373.84	368
2375.75	356
2377.66	342
2379.57	342
2381.47	362
2383.38	366
2385.29	352
2387.2	362
2389.1	348
2391.01	358
2392.91	358
2394.81	358
2396.72	348
2398.62	352
2400.52	370
2402.42	364
2404.33	362
2406.23	348
2408.13	352
2410.03	362
2411.92	366
2413.82	362
2415.72	358
2417.62	370
2419.51	372
2421.41	366
2423.31	370
2425.2	364
2427.1	352
2428.99	348
2430.88	374
2432.78	374
2434.67	352
2436.56	374
2438.45	352
2440.34	368
2442.23	378
2444.12	374
2446.01	382
2447.9	382
2449.79	366