File: Mixture_Classification/Jesse_Dataset_v2/Pure Raman/Polystyrene/633nm/ps-ppo-7jan25-1,0000-map3_Y09_X07.txt
182.393	1050
184.993	1028
187.593	992
190.193	992
192.79	926
195.387	944
197.983	888
200.578	932
203.174	938
205.766	986
208.36	984
210.951	1008
213.542	1026
216.131	1050
218.721	1042
221.309	1094
223.897	1090
226.483	1078
229.069	1014
231.654	966
234.238	854
236.821	762
239.404	658
241.984	606
244.566	524
247.145	470
249.723	446
252.302	412
254.878	410
257.455	366
260.03	366
262.604	378
265.178	362
267.75	356
270.322	354
272.893	348
275.463	332
278.032	350
280.601	322
283.168	286
285.734	300
288.301	278
290.866	280
293.429	258
295.992	240
298.556	230
301.117	244
303.677	254
306.236	218
308.795	250
311.354	252
313.911	254
316.467	260
319.022	254
321.577	256
324.13	266
326.684	246
329.236	240
331.787	256
334.337	252
336.887	246
339.435	236
341.983	242
344.529	250
347.075	222
349.621	230
352.165	246
354.708	240
357.251	236
359.793	234
362.334	234
364.874	238
367.413	248
369.951	240
372.489	254
375.026	236
377.562	252
380.097	270
382.631	274
385.164	264
387.697	282
390.229	292
392.76	272
395.29	286
397.819	290
400.346	314
402.873	324
405.4	340
407.926	370
410.451	340
412.976	342
415.499	328
418.02	308
420.542	292
423.063	258
425.583	274
428.101	252
430.619	252
433.137	238
435.654	228
438.169	220
440.684	252
443.198	232
445.712	224
448.223	232
450.735	236
453.246	216
455.755	204
458.264	206
460.771	200
463.279	192
465.786	180
468.291	178
470.796	204
473.301	208
475.803	194
478.306	186
480.807	188
483.308	184
485.807	188
488.307	198
490.804	190
493.302	190
495.798	194
498.294	200
500.788	196
503.283	198
505.775	216
508.269	216
510.759	204
513.251	208
515.74	214
518.23	192
520.718	212
523.204	220
525.692	204
528.177	222
530.663	228
533.147	232
535.629	252
538.113	270
540.594	284
543.074	276
545.555	260
548.034	270
550.512	262
552.989	268
555.467	260
557.942	258
560.417	254
562.892	256
565.365	256
567.838	250
570.309	238
572.78	260
575.251	280
577.72	260
580.189	240
582.656	228
585.123	228
587.589	216
590.055	214
592.52	226
594.983	216
597.446	234
599.908	238
602.369	230
604.829	242
607.289	266
609.747	304
612.205	290
614.663	332
617.119	432
619.574	738
622.029	1060
624.483	968
626.936	536
629.389	322
631.84	308
634.291	248
636.741	234
639.19	206
641.639	204
644.086	196
646.533	202
648.979	182
651.424	182
653.869	186
656.313	182
658.754	184
661.196	174
663.638	190
666.078	176
668.518	168
670.957	178
673.394	170
675.831	166
678.268	180
680.703	176
683.137	180
685.571	172
688.005	182
690.437	188
692.868	194
695.299	188
697.729	206
700.159	210
702.586	214
705.014	208
707.441	230
709.866	214
712.292	226
714.716	202
717.14	222
719.563	240
721.984	254
724.406	310
726.825	304
729.246	322
731.665	274
734.082	288
736.5	312
738.916	336
741.332	374
743.746	406
746.161	402
748.574	406
750.987	398
753.398	416
755.81	450
758.219	498
760.629	472
763.037	494
765.445	486
767.852	462
770.258	434
772.664	438
775.068	420
777.472	438
779.876	440
782.278	476
784.679	508
787.08	556
789.48	576
791.879	648
794.278	676
796.675	690
799.072	678
801.467	630
803.864	540
806.258	492
808.651	456
811.044	406
813.437	374
815.828	360
818.218	340
820.608	298
822.997	286
825.385	272
827.773	270
830.16	270
832.546	296
834.931	298
837.315	318
839.699	342
842.081	386
844.463	380
846.844	360
849.226	338
851.606	336
853.985	320
856.363	298
858.741	304
861.117	304
863.493	310
865.868	302
868.243	316
870.616	310
872.989	300
875.36	310
877.731	292
880.102	298
882.472	284
884.841	288
887.209	278
889.577	294
891.944	284
894.31	288
896.674	296
899.039	298
901.403	302
903.766	350
906.128	360
908.49	348
910.849	358
913.209	332
915.569	306
917.927	276
920.284	288
922.641	282
924.997	256
927.353	268
929.707	248
932.061	260
934.414	268
936.765	282
939.117	258
941.469	262
943.818	278
946.167	270
948.515	274
950.863	288
953.211	270
955.556	266
957.902	270
960.246	278
962.59	294
964.933	336
967.276	318
969.617	336
971.958	334
974.298	336
976.638	372
978.976	406
981.314	466
983.651	524
985.988	654
988.323	772
990.659	1190
992.992	1698
995.325	1856
997.658	2340
999.99	4258
1002.32	6494
1004.65	6130
1006.98	3408
1009.31	1582
1011.64	844
1013.97	548
1016.29	488
1018.62	466
1020.94	508
1023.27	614
1025.59	862
1027.91	1216
1030.24	1630
1032.56	1982
1034.88	1858
1037.2	1444
1039.52	1000
1041.84	704
1044.15	556
1046.47	502
1048.79	442
1051.1	410
1053.42	432
1055.73	394
1058.04	382
1060.36	404
1062.67	420
1064.98	418
1067.29	424
1069.6	444
1071.91	436
1074.22	450
1076.52	442
1078.83	424
1081.14	452
1083.44	440
1085.75	440
1088.05	418
1090.35	432
1092.65	432
1094.95	436
1097.26	432
1099.56	438
1101.86	418
1104.15	410
1106.45	412
1108.75	376
1111.05	360
1113.34	348
1115.64	326
1117.93	344
1120.22	320
1122.52	310
1124.81	288
1127.1	288
1129.39	280
1131.68	296
1133.97	278
1136.26	304
1138.54	302
1140.83	328
1143.12	326
1145.4	384
1147.69	430
1149.97	502
1152.25	670
1154.54	870
1156.82	970
1159.1	886
1161.38	720
1163.66	600
1165.94	522
1168.22	508
1170.49	528
1172.77	540
1175.05	638
1177.32	778
1179.6	966
1181.87	1176
1184.14	1224
1186.42	1096
1188.69	1038
1190.96	1068
1193.23	1128
1195.5	1206
1197.77	1238
1200.03	1200
1202.3	1166
1204.57	1096
1206.83	988
1209.1	846
1211.36	740
1213.63	622
1215.89	550
1218.15	528
1220.41	502
1222.67	464
1224.93	462
1227.19	466
1229.45	440
1231.71	414
1233.97	388
1236.22	408
1238.48	384
1240.73	358
1242.99	360
1245.24	374
1247.5	374
1249.75	356
1252	374
1254.25	366
1256.5	368
1258.75	360
1261	362
1263.25	368
1265.49	368
1267.74	362
1269.99	336
1272.23	358
1274.48	334
1276.72	350
1278.96	364
1281.21	344
1283.45	366
1285.69	354
1287.93	374
1290.17	342
1292.41	396
1294.64	386
1296.88	390
1299.12	390
1301.36	410
1303.59	428
1305.82	422
1308.06	420
1310.29	416
1312.52	458
1314.76	460
1316.99	460
1319.22	498
1321.45	488
1323.68	530
1325.9	528
1328.13	516
1330.36	558
1332.58	552
1334.81	544
1337.04	514
1339.26	476
1341.48	454
1343.71	424
1345.93	404
1348.15	420
1350.37	390
1352.59	390
1354.81	380
1357.03	366
1359.24	372
1361.46	364
1363.68	384
1365.89	374
1368.11	388
1370.32	388
1372.54	406
1374.75	380
1376.96	376
1379.17	352
1381.38	356
1383.59	338
1385.8	304
1388.01	306
1390.22	284
1392.43	278
1394.63	284
1396.84	274
1399.05	296
1401.25	268
1403.45	294
1405.66	282
1407.86	276
1410.06	276
1412.26	274
1414.46	284
1416.66	274
1418.86	286
1421.06	266
1423.26	278
1425.46	268
1427.65	274
1429.85	278
1432.04	312
1434.24	324
1436.43	390
1438.62	420
1440.82	452
1443.01	468
1445.2	540
1447.39	596
1449.58	600
1451.77	614
1453.95	604
1456.14	550
1458.33	448
1460.52	388
1462.7	342
1464.89	334
1467.07	300
1469.25	298
1471.44	282
1473.62	280
1475.8	272
1477.98	288
1480.16	266
1482.34	284
1484.52	294
1486.7	268
1488.87	284
1491.05	286
1493.23	310
1495.4	312
1497.58	302
1499.75	274
1501.92	268
1504.1	256
1506.27	272
1508.44	284
1510.61	278
1512.78	254
1514.95	294
1517.12	258
1519.28	280
1521.45	266
1523.62	274
1525.78	286
1527.95	268
1530.11	286
1532.28	284
1534.44	280
1536.6	280
1538.76	278
1540.93	290
1543.09	294
1545.25	294
1547.41	300
1549.56	296
1551.72	292
1553.88	302
1556.03	300
1558.19	294
1560.35	308
1562.5	304
1564.65	318
1566.81	336
1568.96	336
1571.11	358
1573.26	382
1575.41	436
1577.56	488
1579.71	600
1581.86	844
1584.01	984
1586.15	928
1588.3	710
1590.45	594
1592.59	610
1594.74	734
1596.88	904
1599.02	1262
1601.17	1654
1603.31	1892
1605.45	1684
1607.59	1254
1609.73	942
1611.87	690
1614.01	552
1616.14	488
1618.28	426
1620.42	390
1622.55	384
1624.69	366
1626.82	328
1628.96	324
1631.09	336
1633.22	318
1635.36	314
1637.49	336
1639.62	340
1641.75	348
1643.88	356
1646	360
1648.13	328
1650.26	342
1652.39	342
1654.51	324
1656.64	318
1658.76	294
1660.89	304
1663.01	310
1665.13	308
1667.26	276
1669.38	292
1671.5	312
1673.62	286
1675.74	300
1677.86	296
1679.97	292
1682.09	312
1684.21	308
1686.33	292
1688.44	316
1690.56	314
1692.67	306
1694.78	312
1696.9	298
1699.01	302
1701.12	296
1703.23	286
1705.34	296
1707.45	276
1709.56	290
1711.67	290
1713.78	274
1715.88	282
1717.99	294
1720.1	290
1722.2	298
1724.31	288
1726.41	266
1728.51	288
1730.62	312
1732.72	280
1734.82	272
1736.92	288
1739.02	310
1741.12	268
1743.22	262
1745.32	288
1747.42	286
1749.51	296
1751.61	280
1753.7	300
1755.8	296
1757.89	290
1759.99	296
1762.08	292
1764.17	282
1766.26	284
1768.36	286
1770.45	302
1772.54	288
1774.62	300
1776.71	288
1778.8	270
1780.89	282
1782.98	286
1785.06	304
1787.15	306
1789.23	294
1791.32	302
1793.4	282
1795.48	310
1797.56	300
1799.65	304
1801.73	290
1803.81	310
1805.89	304
1807.97	290
1810.04	326
1812.12	302
1814.2	300
1816.28	292
1818.35	324
1820.43	306
1822.5	296
1824.58	294
1826.65	298
1828.72	284
1830.79	290
1832.86	316
1834.94	328
1837.01	294
1839.08	292
1841.15	312
1843.21	326
1845.28	302
1847.35	304
1849.41	310
1851.48	306
1853.55	288
1855.61	286
1857.67	312
1859.74	300
1861.8	310
1863.86	296
1865.92	312
1867.98	292
1870.05	316
1872.1	294
1874.16	292
1876.22	300
1878.28	292
1880.34	290
1882.39	306
1884.45	294
1886.5	320
1888.56	288
1890.61	294
1892.67	310
1894.72	324
1896.77	310
1898.82	288
1900.87	304
1902.92	314
1904.97	312
1907.02	328
1909.07	298
1911.12	332
1913.17	320
1915.21	330
1917.26	332
1919.3	320
1921.35	334
1923.39	340
1925.43	328
1927.48	332
1929.52	310
1931.56	316
1933.6	316
1935.64	322
1937.68	308
1939.72	310
1941.76	318
1943.8	304
1945.83	296
1947.87	308
1949.91	316
1951.94	296
1953.98	312
1956.01	316
1958.05	320
1960.08	320
1962.11	316
1964.14	300
1966.17	318
1968.2	312
1970.23	336
1972.26	310
1974.29	326
1976.32	316
1978.35	298
1980.37	316
1982.4	300
1984.43	308
1986.45	322
1988.48	306
1990.5	328
1992.52	312
1994.55	318
1996.57	318
1998.59	294
2000.61	322
2002.63	322
2004.65	314
2006.67	310
2008.69	322
2010.7	320
2012.72	308
2014.74	300
2016.75	316
2018.77	336
2020.78	320
2022.8	318
2024.81	320
2026.83	302
2028.84	318
2030.85	304
2032.86	330
2034.87	326
2036.88	334
2038.89	330
2040.9	294
2042.91	314
2044.91	328
2046.92	328
2048.93	330
2050.93	332
2052.94	316
2054.94	324
2056.95	314
2058.95	324
2060.95	342
2062.95	336
2064.96	322
2066.96	322
2068.96	328
2070.96	314
2072.96	332
2074.95	332
2076.95	322
2078.95	340
2080.95	324
2082.94	316
2084.94	320
2086.93	348
2088.93	324
2090.92	328
2092.91	326
2094.91	324
2096.9	316
2098.89	320
2100.88	320
2102.87	342
2104.86	332
2106.85	330
2108.84	340
2110.83	322
2112.81	314
2114.8	318
2116.78	314
2118.77	334
2120.75	344
2122.74	336
2124.72	316
2126.71	324
2128.69	316
2130.67	310
2132.65	328
2134.63	348
2136.61	342
2138.59	326
2140.57	320
2142.55	328
2144.53	332
2146.5	324
2148.48	338
2150.46	332
2152.43	336
2154.41	318
2156.38	328
2158.35	330
2160.33	324
2162.3	326
2164.27	338
2166.24	338
2168.21	326
2170.18	344
2172.15	338
2174.12	336
2176.09	344
2178.06	322
2180.03	330
2181.99	326
2183.96	324
2185.92	350
2187.89	330
2189.85	338
2191.82	330
2193.78	338
2195.74	334
2197.7	344
2199.67	352
2201.63	358
2203.59	350
2205.55	340
2207.51	338
2209.46	344
2211.42	332
2213.38	326
2215.34	350
2217.29	360
2219.25	330
2221.2	336
2223.16	332
2225.11	338
2227.06	312
2229.02	338
2230.97	348
2232.92	340
2234.87	346
2236.82	322
2238.77	324
2240.72	324
2242.67	340
2244.62	336
2246.57	344
2248.51	346
2250.46	330
2252.4	334
2254.35	316
2256.29	342
2258.24	332
2260.18	348
2262.13	342
2264.07	328
2266.01	340
2267.95	350
2269.89	326
2271.83	340
2273.77	340
2275.71	358
2277.65	350
2279.58	324
2281.52	362
2283.46	332
2285.4	330
2287.33	342
2289.27	346
2291.2	354
2293.13	358
2295.07	358
2297	328
2298.93	348
2300.86	350
2302.79	340
2304.72	344
2306.65	340
2308.58	364
2310.51	342
2312.44	362
2314.37	356
2316.29	356
2318.22	348
2320.15	348
2322.07	348
2324	334
2325.92	344
2327.84	352
2329.77	346
2331.69	342
2333.61	330
2335.53	350
2337.45	360
2339.37	334
2341.29	352
2343.21	368
2345.13	328
2347.05	352
2348.97	356
2350.88	354
2352.8	348
2354.71	350
2356.63	350
2358.54	332
2360.46	350
2362.37	362
2364.28	352
2366.2	342
2368.11	328
2370.02	334
2371.93	352
2373.84	360
2375.75	352
2377.66	370
2379.57	334
2381.47	378
2383.38	352
2385.29	322
2387.2	346
2389.1	340
2391.01	356
2392.91	326
2394.81	342
2396.72	356
2398.62	352
2400.52	338
2402.42	346
2404.33	356
2406.23	358
2408.13	328
2410.03	342
2411.92	360
2413.82	368
2415.72	354
2417.62	354
2419.51	352
2421.41	334
2423.31	348
2425.2	346
2427.1	360
2428.99	362
2430.88	342
2432.78	380
2434.67	358
2436.56	352
2438.45	354
2440.34	368
2442.23	348
2444.12	358
2446.01	364
2447.9	374
2449.79	374