File: Mixture_Classification/Jesse_Dataset_v2/Pure Raman/Polystyrene/633nm/ps-ppo-7jan25-1,0000-map3_Y00_X05.txt
182.393	1090
184.993	1042
187.593	1028
190.193	1048
192.79	1022
195.387	988
197.983	986
200.578	1012
203.174	1036
205.766	1086
208.36	1060
210.951	1064
213.542	1104
216.131	1156
218.721	1164
221.309	1150
223.897	1114
226.483	1132
229.069	1078
231.654	986
234.238	900
236.821	848
239.404	754
241.984	708
244.566	606
247.145	550
249.723	528
252.302	488
254.878	456
257.455	452
260.03	420
262.604	450
265.178	424
267.75	410
270.322	410
272.893	406
275.463	386
278.032	400
280.601	394
283.168	402
285.734	388
288.301	372
290.866	354
293.429	348
295.992	330
298.556	330
301.117	316
303.677	312
306.236	316
308.795	336
311.354	322
313.911	306
316.467	318
319.022	330
321.577	318
324.13	328
326.684	342
329.236	324
331.787	336
334.337	320
336.887	318
339.435	320
341.983	302
344.529	318
347.075	290
349.621	310
352.165	304
354.708	292
357.251	298
359.793	296
362.334	288
364.874	294
367.413	314
369.951	300
372.489	294
375.026	322
377.562	330
380.097	344
382.631	342
385.164	336
387.697	334
390.229	336
392.76	358
395.29	374
397.819	382
400.346	366
402.873	376
405.4	418
407.926	416
410.451	436
412.976	410
415.499	376
418.02	384
420.542	346
423.063	342
425.583	326
428.101	316
430.619	302
433.137	308
435.654	296
438.169	306
440.684	292
443.198	286
445.712	286
448.223	278
450.735	278
453.246	274
455.755	268
458.264	256
460.771	262
463.279	250
465.786	270
468.291	260
470.796	264
473.301	248
475.803	248
478.306	260
480.807	262
483.308	264
485.807	248
488.307	250
490.804	252
493.302	236
495.798	258
498.294	264
500.788	254
503.283	284
505.775	256
508.269	300
510.759	264
513.251	278
515.74	282
518.23	270
520.718	286
523.204	280
525.692	282
528.177	300
530.663	286
533.147	286
535.629	322
538.113	322
540.594	346
543.074	340
545.555	322
548.034	316
550.512	308
552.989	324
555.467	326
557.942	316
560.417	330
562.892	336
565.365	312
567.838	308
570.309	316
572.78	324
575.251	338
577.72	320
580.189	314
582.656	284
585.123	278
587.589	264
590.055	274
592.52	288
594.983	286
597.446	274
599.908	300
602.369	278
604.829	310
607.289	346
609.747	346
612.205	344
614.663	386
617.119	478
619.574	784
622.029	1150
624.483	1060
626.936	634
629.389	406
631.84	334
634.291	328
636.741	290
639.19	274
641.639	286
644.086	276
646.533	246
648.979	240
651.424	240
653.869	256
656.313	232
658.754	230
661.196	232
663.638	218
666.078	258
668.518	230
670.957	238
673.394	234
675.831	238
678.268	240
680.703	240
683.137	242
685.571	256
688.005	252
690.437	254
692.868	266
695.299	254
697.729	256
700.159	246
702.586	274
705.014	286
707.441	284
709.866	286
712.292	262
714.716	286
717.14	276
719.563	284
721.984	310
724.406	370
726.825	368
729.246	340
731.665	342
734.082	322
736.5	364
738.916	376
741.332	436
743.746	428
746.161	450
748.574	440
750.987	464
753.398	464
755.81	514
758.219	544
760.629	536
763.037	554
765.445	536
767.852	508
770.258	484
772.664	484
775.068	482
777.472	482
779.876	490
782.278	538
784.679	560
787.08	620
789.48	678
791.879	708
794.278	746
796.675	758
799.072	744
801.467	680
803.864	608
806.258	530
808.651	486
811.044	444
813.437	414
815.828	420
818.218	378
820.608	362
822.997	342
825.385	332
827.773	314
830.16	332
832.546	360
834.931	348
837.315	390
839.699	388
842.081	400
844.463	438
846.844	428
849.226	402
851.606	376
853.985	360
856.363	362
858.741	334
861.117	354
863.493	324
865.868	350
868.243	352
870.616	366
872.989	360
875.36	356
877.731	352
880.102	340
882.472	324
884.841	348
887.209	308
889.577	334
891.944	348
894.31	348
896.674	334
899.039	348
901.403	362
903.766	408
906.128	436
908.49	386
910.849	404
913.209	398
915.569	344
917.927	328
920.284	298
922.641	308
924.997	306
927.353	314
929.707	308
932.061	288
934.414	320
936.765	296
939.117	312
941.469	312
943.818	336
946.167	326
948.515	306
950.863	322
953.211	316
955.556	328
957.902	340
960.246	344
962.59	354
964.933	360
967.276	396
969.617	404
971.958	402
974.298	382
976.638	408
978.976	456
981.314	514
983.651	600
985.988	688
988.323	834
990.659	1232
992.992	1776
995.325	1942
997.658	2384
999.99	4148
1002.32	6600
1004.65	6144
1006.98	3444
1009.31	1622
1011.64	896
1013.97	638
1016.29	534
1018.62	524
1020.94	532
1023.27	686
1025.59	876
1027.91	1212
1030.24	1678
1032.56	2044
1034.88	1940
1037.2	1442
1039.52	1060
1041.84	770
1044.15	634
1046.47	542
1048.79	488
1051.1	454
1053.42	464
1055.73	424
1058.04	422
1060.36	460
1062.67	446
1064.98	450
1067.29	492
1069.6	474
1071.91	492
1074.22	490
1076.52	482
1078.83	482
1081.14	478
1083.44	482
1085.75	462
1088.05	456
1090.35	448
1092.65	476
1094.95	504
1097.26	464
1099.56	480
1101.86	484
1104.15	436
1106.45	428
1108.75	408
1111.05	386
1113.34	402
1115.64	382
1117.93	386
1120.22	358
1122.52	322
1124.81	324
1127.1	314
1129.39	324
1131.68	314
1133.97	328
1136.26	326
1138.54	340
1140.83	366
1143.12	396
1145.4	390
1147.69	444
1149.97	560
1152.25	694
1154.54	926
1156.82	1004
1159.1	934
1161.38	768
1163.66	606
1165.94	570
1168.22	526
1170.49	556
1172.77	610
1175.05	684
1177.32	808
1179.6	1026
1181.87	1212
1184.14	1222
1186.42	1164
1188.69	1124
1190.96	1130
1193.23	1150
1195.5	1264
1197.77	1268
1200.03	1252
1202.3	1202
1204.57	1108
1206.83	978
1209.1	896
1211.36	804
1213.63	688
1215.89	578
1218.15	570
1220.41	546
1222.67	528
1224.93	514
1227.19	480
1229.45	464
1231.71	462
1233.97	452
1236.22	444
1238.48	412
1240.73	406
1242.99	422
1245.24	386
1247.5	398
1249.75	416
1252	434
1254.25	410
1256.5	406
1258.75	388
1261	382
1263.25	394
1265.49	398
1267.74	404
1269.99	412
1272.23	390
1274.48	394
1276.72	404
1278.96	374
1281.21	386
1283.45	390
1285.69	388
1287.93	416
1290.17	386
1292.41	426
1294.64	452
1296.88	430
1299.12	460
1301.36	460
1303.59	464
1305.82	462
1308.06	494
1310.29	464
1312.52	460
1314.76	474
1316.99	502
1319.22	504
1321.45	536
1323.68	578
1325.9	544
1328.13	568
1330.36	582
1332.58	574
1334.81	562
1337.04	542
1339.26	492
1341.48	454
1343.71	472
1345.93	444
1348.15	438
1350.37	458
1352.59	420
1354.81	432
1357.03	416
1359.24	426
1361.46	418
1363.68	440
1365.89	440
1368.11	434
1370.32	420
1372.54	426
1374.75	426
1376.96	426
1379.17	396
1381.38	410
1383.59	370
1385.8	362
1388.01	330
1390.22	332
1392.43	324
1394.63	312
1396.84	332
1399.05	326
1401.25	332
1403.45	326
1405.66	330
1407.86	312
1410.06	348
1412.26	332
1414.46	318
1416.66	286
1418.86	310
1421.06	292
1423.26	314
1425.46	318
1427.65	330
1429.85	324
1432.04	364
1434.24	376
1436.43	392
1438.62	446
1440.82	522
1443.01	516
1445.2	570
1447.39	650
1449.58	666
1451.77	654
1453.95	656
1456.14	606
1458.33	504
1460.52	452
1462.7	388
1464.89	360
1467.07	332
1469.25	318
1471.44	320
1473.62	348
1475.8	326
1477.98	324
1480.16	324
1482.34	330
1484.52	320
1486.7	322
1488.87	324
1491.05	326
1493.23	324
1495.4	354
1497.58	356
1499.75	308
1501.92	324
1504.1	300
1506.27	316
1508.44	330
1510.61	298
1512.78	304
1514.95	320
1517.12	320
1519.28	314
1521.45	282
1523.62	310
1525.78	302
1527.95	316
1530.11	312
1532.28	312
1534.44	324
1536.6	334
1538.76	310
1540.93	328
1543.09	322
1545.25	322
1547.41	302
1549.56	318
1551.72	328
1553.88	334
1556.03	342
1558.19	342
1560.35	334
1562.5	358
1564.65	352
1566.81	374
1568.96	372
1571.11	408
1573.26	392
1575.41	466
1577.56	534
1579.71	610
1581.86	834
1584.01	1036
1586.15	970
1588.3	740
1590.45	632
1592.59	632
1594.74	744
1596.88	910
1599.02	1274
1601.17	1704
1603.31	1978
1605.45	1706
1607.59	1352
1609.73	990
1611.87	718
1614.01	578
1616.14	522
1618.28	480
1620.42	470
1622.55	430
1624.69	392
1626.82	394
1628.96	410
1631.09	386
1633.22	388
1635.36	352
1637.49	378
1639.62	354
1641.75	366
1643.88	352
1646	404
1648.13	428
1650.26	378
1652.39	384
1654.51	362
1656.64	356
1658.76	346
1660.89	328
1663.01	320
1665.13	330
1667.26	324
1669.38	320
1671.5	328
1673.62	344
1675.74	336
1677.86	336
1679.97	344
1682.09	344
1684.21	332
1686.33	336
1688.44	338
1690.56	338
1692.67	332
1694.78	326
1696.9	330
1699.01	314
1701.12	334
1703.23	320
1705.34	318
1707.45	332
1709.56	352
1711.67	334
1713.78	332
1715.88	342
1717.99	338
1720.1	328
1722.2	322
1724.31	330
1726.41	312
1728.51	316
1730.62	326
1732.72	316
1734.82	342
1736.92	322
1739.02	332
1741.12	346
1743.22	340
1745.32	316
1747.42	334
1749.51	324
1751.61	316
1753.7	326
1755.8	326
1757.89	316
1759.99	306
1762.08	304
1764.17	304
1766.26	316
1768.36	332
1770.45	302
1772.54	334
1774.62	340
1776.71	318
1778.8	330
1780.89	328
1782.98	340
1785.06	318
1787.15	336
1789.23	338
1791.32	338
1793.4	332
1795.48	332
1797.56	340
1799.65	348
1801.73	352
1803.81	334
1805.89	306
1807.97	330
1810.04	326
1812.12	338
1814.2	326
1816.28	342
1818.35	318
1820.43	350
1822.5	322
1824.58	326
1826.65	324
1828.72	334
1830.79	332
1832.86	316
1834.94	338
1837.01	346
1839.08	346
1841.15	344
1843.21	330
1845.28	314
1847.35	312
1849.41	330
1851.48	340
1853.55	328
1855.61	316
1857.67	332
1859.74	340
1861.8	310
1863.86	322
1865.92	330
1867.98	334
1870.05	324
1872.1	324
1874.16	350
1876.22	326
1878.28	340
1880.34	330
1882.39	328
1884.45	346
1886.5	338
1888.56	322
1890.61	350
1892.67	348
1894.72	348
1896.77	344
1898.82	318
1900.87	324
1902.92	332
1904.97	338
1907.02	334
1909.07	368
1911.12	346
1913.17	342
1915.21	364
1917.26	360
1919.3	338
1921.35	338
1923.39	330
1925.43	346
1927.48	328
1929.52	360
1931.56	332
1933.6	342
1935.64	366
1937.68	364
1939.72	366
1941.76	310
1943.8	360
1945.83	340
1947.87	350
1949.91	350
1951.94	340
1953.98	342
1956.01	330
1958.05	340
1960.08	346
1962.11	354
1964.14	330
1966.17	358
1968.2	332
1970.23	360
1972.26	340
1974.29	346
1976.32	346
1978.35	326
1980.37	356
1982.4	342
1984.43	330
1986.45	338
1988.48	340
1990.5	374
1992.52	330
1994.55	348
1996.57	336
1998.59	332
2000.61	330
2002.63	338
2004.65	370
2006.67	332
2008.69	338
2010.7	348
2012.72	362
2014.74	344
2016.75	346
2018.77	336
2020.78	360
2022.8	336
2024.81	336
2026.83	366
2028.84	356
2030.85	334
2032.86	352
2034.87	350
2036.88	376
2038.89	374
2040.9	340
2042.91	352
2044.91	370
2046.92	358
2048.93	352
2050.93	346
2052.94	352
2054.94	332
2056.95	344
2058.95	362
2060.95	374
2062.95	350
2064.96	362
2066.96	338
2068.96	340
2070.96	364
2072.96	354
2074.95	350
2076.95	350
2078.95	360
2080.95	368
2082.94	360
2084.94	364
2086.93	364
2088.93	368
2090.92	354
2092.91	364
2094.91	356
2096.9	338
2098.89	342
2100.88	362
2102.87	368
2104.86	358
2106.85	344
2108.84	356
2110.83	352
2112.81	358
2114.8	338
2116.78	362
2118.77	366
2120.75	336
2122.74	352
2124.72	338
2126.71	336
2128.69	360
2130.67	356
2132.65	360
2134.63	364
2136.61	356
2138.59	342
2140.57	368
2142.55	350
2144.53	356
2146.5	354
2148.48	360
2150.46	368
2152.43	342
2154.41	356
2156.38	370
2158.35	358
2160.33	334
2162.3	350
2164.27	346
2166.24	370
2168.21	376
2170.18	368
2172.15	370
2174.12	346
2176.09	360
2178.06	354
2180.03	370
2181.99	346
2183.96	344
2185.92	364
2187.89	362
2189.85	342
2191.82	362
2193.78	340
2195.74	366
2197.7	350
2199.67	368
2201.63	384
2203.59	374
2205.55	364
2207.51	348
2209.46	368
2211.42	370
2213.38	376
2215.34	370
2217.29	360
2219.25	372
2221.2	372
2223.16	362
2225.11	366
2227.06	346
2229.02	370
2230.97	338
2232.92	362
2234.87	360
2236.82	370
2238.77	358
2240.72	362
2242.67	364
2244.62	392
2246.57	348
2248.51	392
2250.46	372
2252.4	352
2254.35	356
2256.29	374
2258.24	376
2260.18	370
2262.13	372
2264.07	380
2266.01	348
2267.95	366
2269.89	364
2271.83	366
2273.77	352
2275.71	366
2277.65	368
2279.58	350
2281.52	368
2283.46	344
2285.4	342
2287.33	356
2289.27	366
2291.2	376
2293.13	360
2295.07	350
2297	346
2298.93	352
2300.86	380
2302.79	356
2304.72	370
2306.65	364
2308.58	378
2310.51	386
2312.44	366
2314.37	344
2316.29	388
2318.22	362
2320.15	354
2322.07	380
2324	380
2325.92	366
2327.84	376
2329.77	372
2331.69	370
2333.61	372
2335.53	376
2337.45	368
2339.37	366
2341.29	376
2343.21	362
2345.13	384
2347.05	374
2348.97	364
2350.88	372
2352.8	360
2354.71	364
2356.63	362
2358.54	380
2360.46	386
2362.37	368
2364.28	374
2366.2	370
2368.11	370
2370.02	380
2371.93	378
2373.84	354
2375.75	364
2377.66	368
2379.57	378
2381.47	362
2383.38	364
2385.29	372
2387.2	368
2389.1	382
2391.01	350
2392.91	378
2394.81	370
2396.72	352
2398.62	366
2400.52	388
2402.42	360
2404.33	358
2406.23	370
2408.13	354
2410.03	362
2411.92	368
2413.82	374
2415.72	360
2417.62	380
2419.51	372
2421.41	360
2423.31	376
2425.2	380
2427.1	376
2428.99	396
2430.88	390
2432.78	382
2434.67	380
2436.56	352
2438.45	372
2440.34	374
2442.23	374
2444.12	384
2446.01	376
2447.9	372
2449.79	390