File: Mixture_Classification/Jesse_Dataset_v2/Pure Raman/Polystyrene/633nm/ps-ppo-7jan25-1,0000-map3_Y07_X02.txt
182.393	1022
184.993	968
187.593	972
190.193	950
192.79	916
195.387	916
197.983	922
200.578	922
203.174	918
205.766	918
208.36	1004
210.951	1002
213.542	1026
216.131	1060
218.721	1052
221.309	1046
223.897	1066
226.483	986
229.069	992
231.654	904
234.238	808
236.821	742
239.404	678
241.984	564
244.566	510
247.145	472
249.723	424
252.302	388
254.878	370
257.455	344
260.03	354
262.604	348
265.178	328
267.75	332
270.322	330
272.893	290
275.463	314
278.032	298
280.601	306
283.168	286
285.734	266
288.301	276
290.866	254
293.429	238
295.992	256
298.556	216
301.117	228
303.677	224
306.236	232
308.795	216
311.354	228
313.911	242
316.467	238
319.022	232
321.577	228
324.13	240
326.684	248
329.236	228
331.787	232
334.337	230
336.887	216
339.435	230
341.983	236
344.529	226
347.075	220
349.621	214
352.165	204
354.708	204
357.251	212
359.793	208
362.334	204
364.874	202
367.413	228
369.951	212
372.489	226
375.026	226
377.562	238
380.097	230
382.631	238
385.164	236
387.697	264
390.229	262
392.76	258
395.29	268
397.819	276
400.346	278
402.873	316
405.4	336
407.926	344
410.451	352
412.976	320
415.499	298
418.02	272
420.542	264
423.063	244
425.583	246
428.101	234
430.619	250
433.137	222
435.654	234
438.169	214
440.684	206
443.198	212
445.712	200
448.223	204
450.735	188
453.246	200
455.755	180
458.264	176
460.771	184
463.279	176
465.786	170
468.291	182
470.796	174
473.301	176
475.803	174
478.306	170
480.807	166
483.308	176
485.807	184
488.307	158
490.804	174
493.302	168
495.798	166
498.294	170
500.788	182
503.283	182
505.775	194
508.269	196
510.759	170
513.251	186
515.74	178
518.23	184
520.718	196
523.204	184
525.692	206
528.177	194
530.663	210
533.147	234
535.629	232
538.113	236
540.594	242
543.074	250
545.555	262
548.034	248
550.512	242
552.989	250
555.467	240
557.942	252
560.417	236
562.892	242
565.365	234
567.838	240
570.309	244
572.78	244
575.251	246
577.72	244
580.189	226
582.656	218
585.123	204
587.589	220
590.055	204
592.52	202
594.983	186
597.446	206
599.908	208
602.369	224
604.829	228
607.289	256
609.747	280
612.205	268
614.663	294
617.119	408
619.574	688
622.029	1084
624.483	930
626.936	518
629.389	328
631.84	268
634.291	226
636.741	216
639.19	194
641.639	186
644.086	176
646.533	172
648.979	174
651.424	170
653.869	156
656.313	158
658.754	152
661.196	174
663.638	144
666.078	160
668.518	158
670.957	134
673.394	154
675.831	160
678.268	150
680.703	164
683.137	168
685.571	162
688.005	152
690.437	154
692.868	154
695.299	168
697.729	178
700.159	200
702.586	196
705.014	224
707.441	200
709.866	200
712.292	210
714.716	198
717.14	206
719.563	216
721.984	240
724.406	280
726.825	298
729.246	272
731.665	254
734.082	262
736.5	280
738.916	326
741.332	338
743.746	378
746.161	356
748.574	364
750.987	364
753.398	404
755.81	428
758.219	462
760.629	466
763.037	472
765.445	450
767.852	440
770.258	424
772.664	422
775.068	408
777.472	400
779.876	402
782.278	428
784.679	474
787.08	548
789.48	572
791.879	646
794.278	654
796.675	676
799.072	664
801.467	630
803.864	518
806.258	478
808.651	412
811.044	376
813.437	370
815.828	316
818.218	294
820.608	286
822.997	264
825.385	246
827.773	244
830.16	278
832.546	250
834.931	286
837.315	300
839.699	340
842.081	348
844.463	354
846.844	338
849.226	328
851.606	308
853.985	292
856.363	294
858.741	276
861.117	288
863.493	302
865.868	272
868.243	298
870.616	280
872.989	298
875.36	280
877.731	258
880.102	268
882.472	270
884.841	268
887.209	284
889.577	270
891.944	246
894.31	262
896.674	264
899.039	270
901.403	292
903.766	308
906.128	352
908.49	330
910.849	332
913.209	310
915.569	274
917.927	262
920.284	262
922.641	240
924.997	250
927.353	244
929.707	248
932.061	238
934.414	240
936.765	230
939.117	234
941.469	242
943.818	238
946.167	250
948.515	246
950.863	254
953.211	256
955.556	266
957.902	260
960.246	272
962.59	296
964.933	292
967.276	298
969.617	310
971.958	296
974.298	328
976.638	338
978.976	374
981.314	432
983.651	518
985.988	594
988.323	768
990.659	1150
992.992	1682
995.325	1880
997.658	2292
999.99	4240
1002.32	6636
1004.65	6166
1006.98	3372
1009.31	1512
1011.64	792
1013.97	562
1016.29	466
1018.62	444
1020.94	494
1023.27	610
1025.59	834
1027.91	1176
1030.24	1662
1032.56	1922
1034.88	1928
1037.2	1436
1039.52	986
1041.84	668
1044.15	552
1046.47	452
1048.79	406
1051.1	396
1053.42	394
1055.73	366
1058.04	382
1060.36	372
1062.67	388
1064.98	392
1067.29	422
1069.6	422
1071.91	426
1074.22	434
1076.52	404
1078.83	410
1081.14	428
1083.44	398
1085.75	410
1088.05	398
1090.35	398
1092.65	412
1094.95	406
1097.26	410
1099.56	422
1101.86	398
1104.15	400
1106.45	362
1108.75	350
1111.05	330
1113.34	320
1115.64	320
1117.93	304
1120.22	284
1122.52	266
1124.81	240
1127.1	254
1129.39	260
1131.68	278
1133.97	272
1136.26	274
1138.54	288
1140.83	302
1143.12	328
1145.4	348
1147.69	384
1149.97	460
1152.25	652
1154.54	856
1156.82	974
1159.1	842
1161.38	656
1163.66	554
1165.94	494
1168.22	506
1170.49	480
1172.77	540
1175.05	598
1177.32	762
1179.6	938
1181.87	1134
1184.14	1244
1186.42	1124
1188.69	1018
1190.96	1012
1193.23	1090
1195.5	1180
1197.77	1206
1200.03	1200
1202.3	1114
1204.57	1040
1206.83	934
1209.1	868
1211.36	692
1213.63	622
1215.89	540
1218.15	500
1220.41	470
1222.67	458
1224.93	434
1227.19	430
1229.45	426
1231.71	402
1233.97	396
1236.22	352
1238.48	346
1240.73	342
1242.99	328
1245.24	358
1247.5	336
1249.75	352
1252	346
1254.25	350
1256.5	352
1258.75	332
1261	338
1263.25	342
1265.49	336
1267.74	324
1269.99	342
1272.23	310
1274.48	354
1276.72	338
1278.96	332
1281.21	336
1283.45	332
1285.69	340
1287.93	352
1290.17	364
1292.41	348
1294.64	366
1296.88	378
1299.12	390
1301.36	396
1303.59	380
1305.82	402
1308.06	422
1310.29	402
1312.52	434
1314.76	438
1316.99	432
1319.22	460
1321.45	494
1323.68	504
1325.9	510
1328.13	524
1330.36	520
1332.58	500
1334.81	492
1337.04	468
1339.26	424
1341.48	434
1343.71	400
1345.93	384
1348.15	366
1350.37	396
1352.59	366
1354.81	364
1357.03	372
1359.24	352
1361.46	364
1363.68	374
1365.89	352
1368.11	364
1370.32	372
1372.54	372
1374.75	364
1376.96	370
1379.17	336
1381.38	336
1383.59	310
1385.8	282
1388.01	290
1390.22	262
1392.43	256
1394.63	252
1396.84	272
1399.05	280
1401.25	266
1403.45	260
1405.66	260
1407.86	250
1410.06	256
1412.26	240
1414.46	254
1416.66	242
1418.86	244
1421.06	248
1423.26	252
1425.46	254
1427.65	280
1429.85	276
1432.04	272
1434.24	332
1436.43	352
1438.62	402
1440.82	444
1443.01	494
1445.2	522
1447.39	576
1449.58	598
1451.77	588
1453.95	572
1456.14	516
1458.33	458
1460.52	394
1462.7	320
1464.89	286
1467.07	262
1469.25	270
1471.44	280
1473.62	256
1475.8	268
1477.98	278
1480.16	262
1482.34	264
1484.52	256
1486.7	260
1488.87	270
1491.05	266
1493.23	288
1495.4	308
1497.58	292
1499.75	252
1501.92	270
1504.1	268
1506.27	266
1508.44	236
1510.61	268
1512.78	264
1514.95	258
1517.12	256
1519.28	262
1521.45	272
1523.62	256
1525.78	258
1527.95	258
1530.11	256
1532.28	256
1534.44	270
1536.6	244
1538.76	264
1540.93	256
1543.09	274
1545.25	264
1547.41	270
1549.56	278
1551.72	282
1553.88	266
1556.03	278
1558.19	290
1560.35	280
1562.5	288
1564.65	296
1566.81	308
1568.96	328
1571.11	338
1573.26	372
1575.41	408
1577.56	440
1579.71	550
1581.86	780
1584.01	978
1586.15	894
1588.3	690
1590.45	582
1592.59	620
1594.74	672
1596.88	898
1599.02	1224
1601.17	1608
1603.31	1880
1605.45	1724
1607.59	1294
1609.73	908
1611.87	654
1614.01	564
1616.14	476
1618.28	426
1620.42	394
1622.55	352
1624.69	348
1626.82	348
1628.96	338
1631.09	330
1633.22	330
1635.36	316
1637.49	300
1639.62	312
1641.75	298
1643.88	334
1646	334
1648.13	342
1650.26	358
1652.39	324
1654.51	300
1656.64	292
1658.76	298
1660.89	278
1663.01	278
1665.13	284
1667.26	284
1669.38	282
1671.5	268
1673.62	294
1675.74	282
1677.86	294
1679.97	270
1682.09	282
1684.21	282
1686.33	298
1688.44	276
1690.56	276
1692.67	294
1694.78	272
1696.9	274
1699.01	272
1701.12	258
1703.23	276
1705.34	268
1707.45	272
1709.56	280
1711.67	262
1713.78	272
1715.88	268
1717.99	270
1720.1	288
1722.2	250
1724.31	270
1726.41	266
1728.51	284
1730.62	258
1732.72	266
1734.82	264
1736.92	284
1739.02	260
1741.12	276
1743.22	258
1745.32	268
1747.42	284
1749.51	274
1751.61	280
1753.7	284
1755.8	280
1757.89	272
1759.99	268
1762.08	276
1764.17	268
1766.26	276
1768.36	296
1770.45	274
1772.54	286
1774.62	288
1776.71	268
1778.8	282
1780.89	266
1782.98	274
1785.06	270
1787.15	278
1789.23	286
1791.32	288
1793.4	296
1795.48	284
1797.56	270
1799.65	274
1801.73	274
1803.81	270
1805.89	282
1807.97	290
1810.04	288
1812.12	318
1814.2	280
1816.28	284
1818.35	298
1820.43	306
1822.5	278
1824.58	288
1826.65	268
1828.72	286
1830.79	294
1832.86	276
1834.94	284
1837.01	296
1839.08	294
1841.15	282
1843.21	274
1845.28	268
1847.35	286
1849.41	286
1851.48	286
1853.55	278
1855.61	282
1857.67	270
1859.74	296
1861.8	294
1863.86	286
1865.92	300
1867.98	292
1870.05	300
1872.1	282
1874.16	284
1876.22	294
1878.28	280
1880.34	274
1882.39	290
1884.45	290
1886.5	280
1888.56	276
1890.61	290
1892.67	296
1894.72	296
1896.77	302
1898.82	288
1900.87	300
1902.92	296
1904.97	288
1907.02	300
1909.07	296
1911.12	290
1913.17	300
1915.21	286
1917.26	310
1919.3	286
1921.35	326
1923.39	304
1925.43	312
1927.48	318
1929.52	294
1931.56	306
1933.6	302
1935.64	306
1937.68	298
1939.72	306
1941.76	280
1943.8	290
1945.83	306
1947.87	304
1949.91	298
1951.94	280
1953.98	280
1956.01	296
1958.05	312
1960.08	298
1962.11	304
1964.14	306
1966.17	320
1968.2	296
1970.23	302
1972.26	312
1974.29	304
1976.32	300
1978.35	296
1980.37	298
1982.4	300
1984.43	284
1986.45	294
1988.48	290
1990.5	296
1992.52	316
1994.55	304
1996.57	284
1998.59	290
2000.61	300
2002.63	302
2004.65	296
2006.67	310
2008.69	324
2010.7	294
2012.72	314
2014.74	296
2016.75	290
2018.77	316
2020.78	330
2022.8	294
2024.81	310
2026.83	296
2028.84	316
2030.85	322
2032.86	314
2034.87	312
2036.88	302
2038.89	324
2040.9	312
2042.91	312
2044.91	300
2046.92	318
2048.93	304
2050.93	320
2052.94	310
2054.94	300
2056.95	318
2058.95	310
2060.95	302
2062.95	304
2064.96	322
2066.96	316
2068.96	310
2070.96	324
2072.96	316
2074.95	328
2076.95	310
2078.95	328
2080.95	302
2082.94	320
2084.94	304
2086.93	278
2088.93	318
2090.92	310
2092.91	316
2094.91	308
2096.9	298
2098.89	310
2100.88	308
2102.87	326
2104.86	298
2106.85	318
2108.84	310
2110.83	316
2112.81	334
2114.8	334
2116.78	320
2118.77	308
2120.75	322
2122.74	312
2124.72	324
2126.71	322
2128.69	310
2130.67	322
2132.65	308
2134.63	314
2136.61	320
2138.59	340
2140.57	306
2142.55	320
2144.53	318
2146.5	314
2148.48	330
2150.46	322
2152.43	334
2154.41	328
2156.38	302
2158.35	330
2160.33	308
2162.3	326
2164.27	322
2166.24	322
2168.21	322
2170.18	338
2172.15	334
2174.12	320
2176.09	332
2178.06	324
2180.03	338
2181.99	312
2183.96	344
2185.92	322
2187.89	318
2189.85	328
2191.82	334
2193.78	332
2195.74	314
2197.7	316
2199.67	330
2201.63	308
2203.59	338
2205.55	332
2207.51	322
2209.46	340
2211.42	320
2213.38	326
2215.34	328
2217.29	332
2219.25	314
2221.2	316
2223.16	314
2225.11	320
2227.06	328
2229.02	342
2230.97	316
2232.92	338
2234.87	332
2236.82	312
2238.77	316
2240.72	336
2242.67	332
2244.62	316
2246.57	352
2248.51	338
2250.46	324
2252.4	316
2254.35	330
2256.29	318
2258.24	324
2260.18	316
2262.13	292
2264.07	320
2266.01	310
2267.95	318
2269.89	324
2271.83	310
2273.77	316
2275.71	328
2277.65	336
2279.58	338
2281.52	330
2283.46	336
2285.4	338
2287.33	328
2289.27	326
2291.2	308
2293.13	322
2295.07	318
2297	326
2298.93	316
2300.86	346
2302.79	330
2304.72	332
2306.65	328
2308.58	332
2310.51	316
2312.44	334
2314.37	350
2316.29	318
2318.22	326
2320.15	330
2322.07	334
2324	340
2325.92	342
2327.84	326
2329.77	334
2331.69	328
2333.61	340
2335.53	340
2337.45	332
2339.37	334
2341.29	346
2343.21	330
2345.13	326
2347.05	340
2348.97	330
2350.88	338
2352.8	334
2354.71	338
2356.63	342
2358.54	330
2360.46	314
2362.37	332
2364.28	346
2366.2	332
2368.11	340
2370.02	340
2371.93	354
2373.84	346
2375.75	338
2377.66	320
2379.57	312
2381.47	316
2383.38	318
2385.29	344
2387.2	320
2389.1	336
2391.01	340
2392.91	336
2394.81	342
2396.72	352
2398.62	340
2400.52	322
2402.42	340
2404.33	338
2406.23	328
2408.13	336
2410.03	336
2411.92	326
2413.82	342
2415.72	348
2417.62	320
2419.51	328
2421.41	342
2423.31	354
2425.2	352
2427.1	332
2428.99	342
2430.88	360
2432.78	342
2434.67	348
2436.56	342
2438.45	344
2440.34	368
2442.23	348
2444.12	360
2446.01	350
2447.9	356
2449.79	334