File: Mixture_Classification/Jesse_Dataset_v2/Pure Raman/Polystyrene/633nm/ps-ppo-7jan25-1,0000-map3_Y09_X04.txt
182.393	998
184.993	976
187.593	946
190.193	962
192.79	946
195.387	920
197.983	912
200.578	918
203.174	936
205.766	978
208.36	974
210.951	996
213.542	1032
216.131	1048
218.721	1054
221.309	1048
223.897	1058
226.483	1054
229.069	984
231.654	916
234.238	824
236.821	756
239.404	674
241.984	612
244.566	494
247.145	452
249.723	404
252.302	392
254.878	360
257.455	358
260.03	328
262.604	330
265.178	326
267.75	334
270.322	328
272.893	290
275.463	294
278.032	298
280.601	280
283.168	276
285.734	276
288.301	258
290.866	232
293.429	244
295.992	232
298.556	242
301.117	220
303.677	220
306.236	218
308.795	222
311.354	218
313.911	220
316.467	234
319.022	212
321.577	230
324.13	236
326.684	230
329.236	236
331.787	228
334.337	224
336.887	204
339.435	238
341.983	212
344.529	218
347.075	206
349.621	220
352.165	214
354.708	208
357.251	196
359.793	208
362.334	206
364.874	218
367.413	222
369.951	216
372.489	206
375.026	214
377.562	232
380.097	228
382.631	242
385.164	232
387.697	256
390.229	262
392.76	260
395.29	256
397.819	256
400.346	294
402.873	294
405.4	332
407.926	332
410.451	314
412.976	308
415.499	290
418.02	266
420.542	250
423.063	252
425.583	240
428.101	224
430.619	200
433.137	224
435.654	224
438.169	206
440.684	216
443.198	210
445.712	196
448.223	202
450.735	190
453.246	186
455.755	182
458.264	174
460.771	168
463.279	172
465.786	158
468.291	164
470.796	168
473.301	182
475.803	170
478.306	170
480.807	170
483.308	164
485.807	172
488.307	162
490.804	160
493.302	154
495.798	178
498.294	180
500.788	168
503.283	196
505.775	186
508.269	164
510.759	182
513.251	184
515.74	182
518.23	172
520.718	198
523.204	188
525.692	178
528.177	202
530.663	220
533.147	224
535.629	242
538.113	234
540.594	242
543.074	244
545.555	242
548.034	230
550.512	232
552.989	250
555.467	232
557.942	248
560.417	232
562.892	242
565.365	236
567.838	240
570.309	246
572.78	248
575.251	250
577.72	232
580.189	232
582.656	206
585.123	188
587.589	198
590.055	214
592.52	180
594.983	206
597.446	216
599.908	196
602.369	214
604.829	222
607.289	246
609.747	268
612.205	282
614.663	296
617.119	394
619.574	688
622.029	1060
624.483	956
626.936	522
629.389	334
631.84	254
634.291	238
636.741	220
639.19	190
641.639	186
644.086	184
646.533	172
648.979	162
651.424	160
653.869	158
656.313	162
658.754	158
661.196	146
663.638	162
666.078	164
668.518	160
670.957	168
673.394	152
675.831	144
678.268	160
680.703	162
683.137	162
685.571	150
688.005	146
690.437	158
692.868	160
695.299	174
697.729	174
700.159	198
702.586	192
705.014	198
707.441	208
709.866	198
712.292	196
714.716	202
717.14	210
719.563	212
721.984	228
724.406	288
726.825	298
729.246	268
731.665	254
734.082	250
736.5	286
738.916	312
741.332	366
743.746	376
746.161	382
748.574	382
750.987	396
753.398	416
755.81	434
758.219	432
760.629	446
763.037	474
765.445	452
767.852	432
770.258	448
772.664	420
775.068	418
777.472	408
779.876	398
782.278	466
784.679	504
787.08	522
789.48	596
791.879	626
794.278	648
796.675	676
799.072	660
801.467	634
803.864	548
806.258	474
808.651	406
811.044	386
813.437	378
815.828	352
818.218	302
820.608	284
822.997	266
825.385	272
827.773	248
830.16	272
832.546	280
834.931	268
837.315	298
839.699	312
842.081	362
844.463	368
846.844	356
849.226	328
851.606	310
853.985	306
856.363	288
858.741	284
861.117	290
863.493	274
865.868	286
868.243	290
870.616	278
872.989	294
875.36	282
877.731	270
880.102	272
882.472	262
884.841	260
887.209	262
889.577	270
891.944	282
894.31	268
896.674	276
899.039	268
901.403	308
903.766	324
906.128	326
908.49	354
910.849	348
913.209	306
915.569	280
917.927	280
920.284	262
922.641	246
924.997	246
927.353	258
929.707	238
932.061	238
934.414	266
936.765	246
939.117	240
941.469	256
943.818	248
946.167	254
948.515	250
950.863	258
953.211	258
955.556	252
957.902	248
960.246	278
962.59	300
964.933	300
967.276	320
969.617	334
971.958	294
974.298	334
976.638	352
978.976	396
981.314	440
983.651	528
985.988	598
988.323	790
990.659	1164
992.992	1678
995.325	1880
997.658	2298
999.99	4156
1002.32	6590
1004.65	6120
1006.98	3408
1009.31	1542
1011.64	788
1013.97	562
1016.29	478
1018.62	438
1020.94	496
1023.27	622
1025.59	802
1027.91	1164
1030.24	1640
1032.56	1994
1034.88	1854
1037.2	1412
1039.52	978
1041.84	712
1044.15	556
1046.47	468
1048.79	434
1051.1	424
1053.42	416
1055.73	398
1058.04	374
1060.36	370
1062.67	400
1064.98	404
1067.29	394
1069.6	406
1071.91	434
1074.22	436
1076.52	420
1078.83	426
1081.14	420
1083.44	404
1085.75	418
1088.05	378
1090.35	408
1092.65	408
1094.95	418
1097.26	424
1099.56	432
1101.86	416
1104.15	380
1106.45	364
1108.75	362
1111.05	328
1113.34	334
1115.64	316
1117.93	292
1120.22	300
1122.52	268
1124.81	282
1127.1	258
1129.39	258
1131.68	256
1133.97	250
1136.26	262
1138.54	284
1140.83	300
1143.12	312
1145.4	344
1147.69	404
1149.97	474
1152.25	670
1154.54	832
1156.82	966
1159.1	870
1161.38	696
1163.66	544
1165.94	496
1168.22	492
1170.49	486
1172.77	534
1175.05	614
1177.32	734
1179.6	956
1181.87	1162
1184.14	1218
1186.42	1092
1188.69	1054
1190.96	1062
1193.23	1112
1195.5	1172
1197.77	1220
1200.03	1180
1202.3	1164
1204.57	1008
1206.83	906
1209.1	830
1211.36	688
1213.63	600
1215.89	546
1218.15	484
1220.41	462
1222.67	450
1224.93	446
1227.19	442
1229.45	418
1231.71	390
1233.97	362
1236.22	372
1238.48	342
1240.73	348
1242.99	356
1245.24	368
1247.5	344
1249.75	356
1252	358
1254.25	338
1256.5	336
1258.75	326
1261	320
1263.25	336
1265.49	316
1267.74	352
1269.99	332
1272.23	348
1274.48	320
1276.72	340
1278.96	322
1281.21	326
1283.45	324
1285.69	312
1287.93	352
1290.17	350
1292.41	372
1294.64	368
1296.88	370
1299.12	384
1301.36	396
1303.59	404
1305.82	418
1308.06	418
1310.29	426
1312.52	416
1314.76	400
1316.99	440
1319.22	434
1321.45	470
1323.68	504
1325.9	528
1328.13	524
1330.36	508
1332.58	520
1334.81	498
1337.04	466
1339.26	454
1341.48	414
1343.71	378
1345.93	374
1348.15	384
1350.37	362
1352.59	362
1354.81	356
1357.03	348
1359.24	368
1361.46	352
1363.68	374
1365.89	356
1368.11	376
1370.32	372
1372.54	350
1374.75	356
1376.96	362
1379.17	332
1381.38	340
1383.59	314
1385.8	294
1388.01	282
1390.22	272
1392.43	260
1394.63	240
1396.84	268
1399.05	252
1401.25	262
1403.45	252
1405.66	262
1407.86	266
1410.06	260
1412.26	252
1414.46	242
1416.66	258
1418.86	248
1421.06	240
1423.26	248
1425.46	250
1427.65	242
1429.85	274
1432.04	276
1434.24	310
1436.43	344
1438.62	358
1440.82	430
1443.01	486
1445.2	510
1447.39	552
1449.58	554
1451.77	598
1453.95	596
1456.14	524
1458.33	444
1460.52	366
1462.7	348
1464.89	296
1467.07	278
1469.25	294
1471.44	264
1473.62	276
1475.8	254
1477.98	260
1480.16	248
1482.34	248
1484.52	246
1486.7	246
1488.87	262
1491.05	272
1493.23	278
1495.4	288
1497.58	272
1499.75	254
1501.92	258
1504.1	250
1506.27	246
1508.44	234
1510.61	258
1512.78	242
1514.95	258
1517.12	256
1519.28	244
1521.45	258
1523.62	250
1525.78	262
1527.95	260
1530.11	256
1532.28	258
1534.44	278
1536.6	252
1538.76	248
1540.93	258
1543.09	266
1545.25	270
1547.41	250
1549.56	256
1551.72	258
1553.88	270
1556.03	282
1558.19	268
1560.35	282
1562.5	278
1564.65	294
1566.81	298
1568.96	318
1571.11	354
1573.26	354
1575.41	386
1577.56	462
1579.71	596
1581.86	782
1584.01	954
1586.15	894
1588.3	686
1590.45	596
1592.59	580
1594.74	664
1596.88	856
1599.02	1194
1601.17	1664
1603.31	1926
1605.45	1698
1607.59	1308
1609.73	886
1611.87	652
1614.01	542
1616.14	462
1618.28	410
1620.42	396
1622.55	350
1624.69	328
1626.82	332
1628.96	304
1631.09	322
1633.22	320
1635.36	294
1637.49	308
1639.62	308
1641.75	302
1643.88	308
1646	316
1648.13	310
1650.26	332
1652.39	320
1654.51	286
1656.64	278
1658.76	284
1660.89	262
1663.01	262
1665.13	284
1667.26	278
1669.38	264
1671.5	268
1673.62	278
1675.74	268
1677.86	278
1679.97	268
1682.09	290
1684.21	286
1686.33	288
1688.44	284
1690.56	266
1692.67	264
1694.78	262
1696.9	262
1699.01	256
1701.12	256
1703.23	268
1705.34	270
1707.45	274
1709.56	250
1711.67	260
1713.78	244
1715.88	242
1717.99	270
1720.1	252
1722.2	264
1724.31	272
1726.41	264
1728.51	264
1730.62	262
1732.72	266
1734.82	266
1736.92	272
1739.02	270
1741.12	276
1743.22	258
1745.32	262
1747.42	268
1749.51	284
1751.61	254
1753.7	260
1755.8	248
1757.89	264
1759.99	258
1762.08	254
1764.17	270
1766.26	278
1768.36	258
1770.45	284
1772.54	256
1774.62	268
1776.71	274
1778.8	290
1780.89	272
1782.98	270
1785.06	270
1787.15	278
1789.23	268
1791.32	270
1793.4	268
1795.48	260
1797.56	256
1799.65	252
1801.73	288
1803.81	280
1805.89	266
1807.97	290
1810.04	288
1812.12	282
1814.2	292
1816.28	280
1818.35	282
1820.43	278
1822.5	276
1824.58	272
1826.65	282
1828.72	280
1830.79	272
1832.86	290
1834.94	262
1837.01	264
1839.08	266
1841.15	282
1843.21	260
1845.28	272
1847.35	268
1849.41	292
1851.48	256
1853.55	262
1855.61	268
1857.67	282
1859.74	274
1861.8	270
1863.86	272
1865.92	272
1867.98	268
1870.05	286
1872.1	270
1874.16	274
1876.22	282
1878.28	276
1880.34	266
1882.39	296
1884.45	280
1886.5	286
1888.56	278
1890.61	282
1892.67	278
1894.72	292
1896.77	280
1898.82	276
1900.87	288
1902.92	276
1904.97	270
1907.02	288
1909.07	298
1911.12	290
1913.17	304
1915.21	308
1917.26	286
1919.3	288
1921.35	290
1923.39	306
1925.43	296
1927.48	292
1929.52	278
1931.56	294
1933.6	290
1935.64	278
1937.68	294
1939.72	290
1941.76	284
1943.8	288
1945.83	300
1947.87	300
1949.91	292
1951.94	280
1953.98	298
1956.01	302
1958.05	284
1960.08	282
1962.11	286
1964.14	278
1966.17	302
1968.2	300
1970.23	296
1972.26	286
1974.29	298
1976.32	274
1978.35	300
1980.37	280
1982.4	288
1984.43	288
1986.45	280
1988.48	296
1990.5	296
1992.52	284
1994.55	278
1996.57	296
1998.59	282
2000.61	270
2002.63	280
2004.65	290
2006.67	294
2008.69	304
2010.7	292
2012.72	314
2014.74	306
2016.75	308
2018.77	304
2020.78	284
2022.8	290
2024.81	316
2026.83	306
2028.84	294
2030.85	306
2032.86	296
2034.87	294
2036.88	292
2038.89	296
2040.9	300
2042.91	306
2044.91	302
2046.92	304
2048.93	298
2050.93	314
2052.94	296
2054.94	318
2056.95	294
2058.95	294
2060.95	314
2062.95	310
2064.96	302
2066.96	290
2068.96	326
2070.96	310
2072.96	288
2074.95	290
2076.95	322
2078.95	324
2080.95	308
2082.94	304
2084.94	302
2086.93	298
2088.93	302
2090.92	302
2092.91	290
2094.91	304
2096.9	304
2098.89	310
2100.88	312
2102.87	312
2104.86	314
2106.85	304
2108.84	312
2110.83	320
2112.81	282
2114.8	322
2116.78	312
2118.77	314
2120.75	310
2122.74	304
2124.72	304
2126.71	308
2128.69	304
2130.67	306
2132.65	300
2134.63	308
2136.61	294
2138.59	312
2140.57	320
2142.55	318
2144.53	302
2146.5	314
2148.48	308
2150.46	326
2152.43	310
2154.41	296
2156.38	312
2158.35	314
2160.33	310
2162.3	308
2164.27	304
2166.24	318
2168.21	294
2170.18	308
2172.15	316
2174.12	312
2176.09	300
2178.06	330
2180.03	310
2181.99	310
2183.96	312
2185.92	290
2187.89	306
2189.85	310
2191.82	326
2193.78	306
2195.74	322
2197.7	300
2199.67	320
2201.63	332
2203.59	326
2205.55	336
2207.51	304
2209.46	324
2211.42	324
2213.38	328
2215.34	312
2217.29	322
2219.25	316
2221.2	322
2223.16	328
2225.11	326
2227.06	330
2229.02	308
2230.97	322
2232.92	316
2234.87	308
2236.82	308
2238.77	326
2240.72	324
2242.67	320
2244.62	308
2246.57	316
2248.51	322
2250.46	314
2252.4	320
2254.35	306
2256.29	328
2258.24	330
2260.18	298
2262.13	330
2264.07	324
2266.01	314
2267.95	318
2269.89	318
2271.83	328
2273.77	322
2275.71	318
2277.65	308
2279.58	348
2281.52	326
2283.46	308
2285.4	342
2287.33	306
2289.27	324
2291.2	324
2293.13	322
2295.07	322
2297	328
2298.93	318
2300.86	330
2302.79	338
2304.72	338
2306.65	330
2308.58	344
2310.51	340
2312.44	312
2314.37	318
2316.29	336
2318.22	344
2320.15	324
2322.07	334
2324	326
2325.92	328
2327.84	342
2329.77	330
2331.69	322
2333.61	330
2335.53	330
2337.45	326
2339.37	318
2341.29	330
2343.21	316
2345.13	338
2347.05	326
2348.97	330
2350.88	346
2352.8	322
2354.71	330
2356.63	324
2358.54	326
2360.46	350
2362.37	328
2364.28	334
2366.2	332
2368.11	334
2370.02	336
2371.93	342
2373.84	346
2375.75	324
2377.66	340
2379.57	336
2381.47	328
2383.38	346
2385.29	338
2387.2	326
2389.1	344
2391.01	328
2392.91	332
2394.81	344
2396.72	322
2398.62	340
2400.52	340
2402.42	344
2404.33	340
2406.23	324
2408.13	334
2410.03	336
2411.92	360
2413.82	340
2415.72	332
2417.62	348
2419.51	332
2421.41	334
2423.31	344
2425.2	356
2427.1	344
2428.99	340
2430.88	332
2432.78	338
2434.67	338
2436.56	344
2438.45	336
2440.34	348
2442.23	342
2444.12	346
2446.01	334
2447.9	356
2449.79	370