File: Mixture_Classification/Jesse_Dataset_v2/Pure Raman/Polystyrene/633nm/ps-ppo-7jan25-1,0000-map3_Y01_X04.txt
182.393	1028
184.993	1020
187.593	972
190.193	984
192.79	956
195.387	970
197.983	954
200.578	948
203.174	964
205.766	962
208.36	988
210.951	1038
213.542	1072
216.131	1062
218.721	1090
221.309	1040
223.897	1082
226.483	1038
229.069	1008
231.654	914
234.238	814
236.821	744
239.404	700
241.984	634
244.566	520
247.145	464
249.723	448
252.302	412
254.878	402
257.455	376
260.03	366
262.604	360
265.178	340
267.75	344
270.322	334
272.893	330
275.463	338
278.032	328
280.601	316
283.168	314
285.734	286
288.301	272
290.866	260
293.429	272
295.992	260
298.556	258
301.117	230
303.677	248
306.236	228
308.795	244
311.354	240
313.911	262
316.467	256
319.022	244
321.577	250
324.13	258
326.684	250
329.236	238
331.787	242
334.337	258
336.887	250
339.435	238
341.983	232
344.529	250
347.075	238
349.621	238
352.165	234
354.708	242
357.251	232
359.793	222
362.334	218
364.874	208
367.413	230
369.951	232
372.489	256
375.026	238
377.562	242
380.097	248
382.631	262
385.164	248
387.697	264
390.229	288
392.76	274
395.29	276
397.819	304
400.346	292
402.873	310
405.4	350
407.926	340
410.451	346
412.976	342
415.499	322
418.02	304
420.542	268
423.063	280
425.583	266
428.101	248
430.619	242
433.137	236
435.654	228
438.169	216
440.684	220
443.198	234
445.712	226
448.223	226
450.735	210
453.246	218
455.755	200
458.264	202
460.771	208
463.279	200
465.786	186
468.291	190
470.796	186
473.301	186
475.803	202
478.306	186
480.807	202
483.308	200
485.807	182
488.307	196
490.804	188
493.302	196
495.798	188
498.294	190
500.788	208
503.283	216
505.775	218
508.269	202
510.759	202
513.251	202
515.74	206
518.23	210
520.718	210
523.204	210
525.692	220
528.177	200
530.663	228
533.147	240
535.629	254
538.113	266
540.594	242
543.074	264
545.555	276
548.034	272
550.512	256
552.989	268
555.467	262
557.942	256
560.417	254
562.892	256
565.365	268
567.838	270
570.309	276
572.78	256
575.251	282
577.72	278
580.189	234
582.656	242
585.123	222
587.589	216
590.055	232
592.52	216
594.983	232
597.446	216
599.908	228
602.369	238
604.829	244
607.289	270
609.747	282
612.205	294
614.663	314
617.119	428
619.574	706
622.029	1112
624.483	990
626.936	540
629.389	350
631.84	272
634.291	260
636.741	244
639.19	216
641.639	198
644.086	182
646.533	182
648.979	190
651.424	172
653.869	184
656.313	174
658.754	162
661.196	174
663.638	178
666.078	172
668.518	162
670.957	172
673.394	176
675.831	162
678.268	180
680.703	172
683.137	180
685.571	176
688.005	166
690.437	182
692.868	182
695.299	178
697.729	204
700.159	206
702.586	222
705.014	224
707.441	222
709.866	218
712.292	220
714.716	202
717.14	202
719.563	226
721.984	264
724.406	300
726.825	326
729.246	310
731.665	286
734.082	266
736.5	310
738.916	322
741.332	360
743.746	392
746.161	370
748.574	380
750.987	400
753.398	428
755.81	444
758.219	464
760.629	478
763.037	462
765.445	440
767.852	450
770.258	448
772.664	430
775.068	414
777.472	410
779.876	432
782.278	458
784.679	506
787.08	544
789.48	606
791.879	644
794.278	688
796.675	690
799.072	706
801.467	588
803.864	546
806.258	490
808.651	408
811.044	386
813.437	374
815.828	354
818.218	328
820.608	296
822.997	276
825.385	274
827.773	274
830.16	262
832.546	284
834.931	288
837.315	322
839.699	336
842.081	356
844.463	352
846.844	366
849.226	344
851.606	316
853.985	302
856.363	286
858.741	290
861.117	292
863.493	290
865.868	298
868.243	312
870.616	302
872.989	290
875.36	292
877.731	298
880.102	274
882.472	284
884.841	298
887.209	276
889.577	268
891.944	266
894.31	280
896.674	268
899.039	292
901.403	328
903.766	308
906.128	366
908.49	358
910.849	368
913.209	334
915.569	318
917.927	282
920.284	262
922.641	266
924.997	258
927.353	258
929.707	244
932.061	252
934.414	266
936.765	250
939.117	262
941.469	256
943.818	264
946.167	254
948.515	262
950.863	262
953.211	258
955.556	266
957.902	290
960.246	284
962.59	302
964.933	306
967.276	320
969.617	320
971.958	336
974.298	334
976.638	356
978.976	396
981.314	418
983.651	538
985.988	600
988.323	756
990.659	1174
992.992	1680
995.325	1914
997.658	2332
999.99	4132
1002.32	6506
1004.65	6022
1006.98	3386
1009.31	1608
1011.64	806
1013.97	580
1016.29	486
1018.62	480
1020.94	526
1023.27	578
1025.59	808
1027.91	1178
1030.24	1626
1032.56	1984
1034.88	1844
1037.2	1454
1039.52	972
1041.84	698
1044.15	576
1046.47	466
1048.79	428
1051.1	418
1053.42	394
1055.73	412
1058.04	380
1060.36	400
1062.67	402
1064.98	442
1067.29	420
1069.6	448
1071.91	428
1074.22	442
1076.52	426
1078.83	392
1081.14	418
1083.44	410
1085.75	398
1088.05	390
1090.35	416
1092.65	406
1094.95	434
1097.26	426
1099.56	416
1101.86	432
1104.15	402
1106.45	396
1108.75	360
1111.05	348
1113.34	330
1115.64	330
1117.93	330
1120.22	304
1122.52	286
1124.81	264
1127.1	268
1129.39	288
1131.68	274
1133.97	294
1136.26	280
1138.54	304
1140.83	318
1143.12	328
1145.4	370
1147.69	416
1149.97	474
1152.25	658
1154.54	848
1156.82	974
1159.1	892
1161.38	702
1163.66	550
1165.94	520
1168.22	490
1170.49	502
1172.77	536
1175.05	614
1177.32	784
1179.6	1028
1181.87	1188
1184.14	1176
1186.42	1086
1188.69	1030
1190.96	1034
1193.23	1138
1195.5	1190
1197.77	1214
1200.03	1164
1202.3	1146
1204.57	1046
1206.83	980
1209.1	830
1211.36	690
1213.63	616
1215.89	536
1218.15	508
1220.41	494
1222.67	470
1224.93	452
1227.19	442
1229.45	430
1231.71	410
1233.97	386
1236.22	380
1238.48	392
1240.73	356
1242.99	364
1245.24	386
1247.5	370
1249.75	358
1252	358
1254.25	348
1256.5	354
1258.75	352
1261	338
1263.25	360
1265.49	364
1267.74	368
1269.99	354
1272.23	368
1274.48	334
1276.72	354
1278.96	340
1281.21	334
1283.45	354
1285.69	344
1287.93	348
1290.17	364
1292.41	374
1294.64	386
1296.88	366
1299.12	392
1301.36	428
1303.59	424
1305.82	420
1308.06	420
1310.29	404
1312.52	436
1314.76	438
1316.99	458
1319.22	466
1321.45	502
1323.68	514
1325.9	526
1328.13	530
1330.36	528
1332.58	522
1334.81	516
1337.04	492
1339.26	486
1341.48	458
1343.71	424
1345.93	400
1348.15	396
1350.37	368
1352.59	392
1354.81	380
1357.03	380
1359.24	364
1361.46	394
1363.68	364
1365.89	390
1368.11	368
1370.32	384
1372.54	370
1374.75	360
1376.96	360
1379.17	366
1381.38	352
1383.59	330
1385.8	318
1388.01	308
1390.22	290
1392.43	264
1394.63	270
1396.84	264
1399.05	274
1401.25	280
1403.45	302
1405.66	280
1407.86	248
1410.06	254
1412.26	264
1414.46	266
1416.66	266
1418.86	258
1421.06	274
1423.26	270
1425.46	280
1427.65	296
1429.85	300
1432.04	302
1434.24	338
1436.43	370
1438.62	392
1440.82	452
1443.01	480
1445.2	542
1447.39	574
1449.58	598
1451.77	574
1453.95	622
1456.14	528
1458.33	440
1460.52	388
1462.7	338
1464.89	316
1467.07	312
1469.25	300
1471.44	280
1473.62	280
1475.8	290
1477.98	290
1480.16	286
1482.34	288
1484.52	274
1486.7	278
1488.87	284
1491.05	284
1493.23	304
1495.4	302
1497.58	284
1499.75	280
1501.92	276
1504.1	270
1506.27	260
1508.44	268
1510.61	282
1512.78	278
1514.95	280
1517.12	268
1519.28	254
1521.45	278
1523.62	246
1525.78	272
1527.95	266
1530.11	250
1532.28	268
1534.44	258
1536.6	262
1538.76	264
1540.93	280
1543.09	280
1545.25	266
1547.41	268
1549.56	284
1551.72	282
1553.88	304
1556.03	298
1558.19	290
1560.35	278
1562.5	292
1564.65	306
1566.81	320
1568.96	350
1571.11	356
1573.26	360
1575.41	408
1577.56	478
1579.71	584
1581.86	802
1584.01	1002
1586.15	894
1588.3	688
1590.45	608
1592.59	606
1594.74	696
1596.88	876
1599.02	1230
1601.17	1692
1603.31	1920
1605.45	1688
1607.59	1306
1609.73	906
1611.87	690
1614.01	554
1616.14	478
1618.28	426
1620.42	404
1622.55	364
1624.69	368
1626.82	352
1628.96	342
1631.09	328
1633.22	324
1635.36	310
1637.49	338
1639.62	308
1641.75	314
1643.88	336
1646	358
1648.13	366
1650.26	350
1652.39	340
1654.51	316
1656.64	300
1658.76	300
1660.89	292
1663.01	274
1665.13	300
1667.26	306
1669.38	294
1671.5	286
1673.62	296
1675.74	278
1677.86	298
1679.97	300
1682.09	300
1684.21	302
1686.33	288
1688.44	288
1690.56	270
1692.67	292
1694.78	276
1696.9	304
1699.01	282
1701.12	282
1703.23	276
1705.34	274
1707.45	282
1709.56	298
1711.67	278
1713.78	280
1715.88	272
1717.99	268
1720.1	284
1722.2	272
1724.31	274
1726.41	288
1728.51	290
1730.62	282
1732.72	280
1734.82	268
1736.92	282
1739.02	288
1741.12	264
1743.22	282
1745.32	274
1747.42	292
1749.51	286
1751.61	286
1753.7	282
1755.8	298
1757.89	276
1759.99	292
1762.08	282
1764.17	270
1766.26	308
1768.36	286
1770.45	276
1772.54	266
1774.62	276
1776.71	304
1778.8	282
1780.89	280
1782.98	282
1785.06	280
1787.15	274
1789.23	288
1791.32	256
1793.4	292
1795.48	296
1797.56	298
1799.65	292
1801.73	304
1803.81	294
1805.89	268
1807.97	294
1810.04	276
1812.12	318
1814.2	292
1816.28	306
1818.35	292
1820.43	304
1822.5	290
1824.58	298
1826.65	304
1828.72	292
1830.79	294
1832.86	302
1834.94	280
1837.01	300
1839.08	288
1841.15	302
1843.21	280
1845.28	286
1847.35	300
1849.41	292
1851.48	298
1853.55	288
1855.61	286
1857.67	280
1859.74	284
1861.8	286
1863.86	294
1865.92	286
1867.98	294
1870.05	280
1872.1	296
1874.16	272
1876.22	300
1878.28	292
1880.34	298
1882.39	290
1884.45	290
1886.5	272
1888.56	300
1890.61	304
1892.67	290
1894.72	300
1896.77	298
1898.82	294
1900.87	290
1902.92	284
1904.97	306
1907.02	310
1909.07	300
1911.12	328
1913.17	312
1915.21	298
1917.26	294
1919.3	312
1921.35	292
1923.39	300
1925.43	318
1927.48	308
1929.52	328
1931.56	316
1933.6	312
1935.64	290
1937.68	296
1939.72	310
1941.76	324
1943.8	306
1945.83	310
1947.87	322
1949.91	312
1951.94	294
1953.98	310
1956.01	316
1958.05	290
1960.08	304
1962.11	300
1964.14	278
1966.17	298
1968.2	300
1970.23	290
1972.26	302
1974.29	310
1976.32	324
1978.35	306
1980.37	310
1982.4	326
1984.43	306
1986.45	294
1988.48	286
1990.5	298
1992.52	306
1994.55	314
1996.57	316
1998.59	308
2000.61	304
2002.63	296
2004.65	310
2006.67	298
2008.69	308
2010.7	300
2012.72	304
2014.74	326
2016.75	302
2018.77	300
2020.78	316
2022.8	308
2024.81	312
2026.83	316
2028.84	306
2030.85	314
2032.86	324
2034.87	310
2036.88	302
2038.89	320
2040.9	306
2042.91	318
2044.91	324
2046.92	316
2048.93	304
2050.93	322
2052.94	328
2054.94	322
2056.95	320
2058.95	310
2060.95	328
2062.95	314
2064.96	312
2066.96	316
2068.96	312
2070.96	332
2072.96	328
2074.95	292
2076.95	330
2078.95	310
2080.95	312
2082.94	324
2084.94	318
2086.93	316
2088.93	316
2090.92	318
2092.91	326
2094.91	326
2096.9	300
2098.89	310
2100.88	310
2102.87	318
2104.86	314
2106.85	314
2108.84	322
2110.83	320
2112.81	320
2114.8	324
2116.78	332
2118.77	312
2120.75	332
2122.74	322
2124.72	334
2126.71	322
2128.69	330
2130.67	330
2132.65	338
2134.63	310
2136.61	300
2138.59	320
2140.57	322
2142.55	330
2144.53	324
2146.5	324
2148.48	340
2150.46	310
2152.43	324
2154.41	328
2156.38	318
2158.35	326
2160.33	326
2162.3	316
2164.27	328
2166.24	326
2168.21	346
2170.18	326
2172.15	328
2174.12	326
2176.09	334
2178.06	322
2180.03	320
2181.99	316
2183.96	314
2185.92	330
2187.89	338
2189.85	326
2191.82	328
2193.78	346
2195.74	350
2197.7	320
2199.67	338
2201.63	336
2203.59	324
2205.55	344
2207.51	328
2209.46	334
2211.42	336
2213.38	338
2215.34	348
2217.29	346
2219.25	330
2221.2	330
2223.16	356
2225.11	334
2227.06	324
2229.02	342
2230.97	340
2232.92	324
2234.87	324
2236.82	338
2238.77	302
2240.72	330
2242.67	340
2244.62	332
2246.57	326
2248.51	334
2250.46	334
2252.4	340
2254.35	326
2256.29	348
2258.24	328
2260.18	334
2262.13	348
2264.07	322
2266.01	342
2267.95	312
2269.89	342
2271.83	334
2273.77	332
2275.71	342
2277.65	340
2279.58	320
2281.52	342
2283.46	346
2285.4	342
2287.33	334
2289.27	352
2291.2	336
2293.13	354
2295.07	356
2297	356
2298.93	326
2300.86	344
2302.79	358
2304.72	350
2306.65	352
2308.58	350
2310.51	338
2312.44	360
2314.37	362
2316.29	356
2318.22	344
2320.15	350
2322.07	320
2324	338
2325.92	356
2327.84	330
2329.77	336
2331.69	328
2333.61	358
2335.53	348
2337.45	354
2339.37	332
2341.29	342
2343.21	350
2345.13	362
2347.05	330
2348.97	348
2350.88	344
2352.8	356
2354.71	358
2356.63	336
2358.54	358
2360.46	340
2362.37	338
2364.28	354
2366.2	358
2368.11	346
2370.02	342
2371.93	370
2373.84	356
2375.75	342
2377.66	358
2379.57	346
2381.47	358
2383.38	358
2385.29	344
2387.2	334
2389.1	362
2391.01	348
2392.91	350
2394.81	324
2396.72	352
2398.62	346
2400.52	338
2402.42	342
2404.33	332
2406.23	336
2408.13	356
2410.03	368
2411.92	328
2413.82	348
2415.72	346
2417.62	348
2419.51	338
2421.41	346
2423.31	346
2425.2	366
2427.1	354
2428.99	346
2430.88	372
2432.78	362
2434.67	352
2436.56	340
2438.45	350
2440.34	368
2442.23	348
2444.12	366
2446.01	352
2447.9	362
2449.79	346