File: Mixture_Classification/Jesse_Dataset_v2/Pure Raman/Polystyrene/633nm/ps-ppo-7jan25-1,0000-map3_Y05_X10.txt
182.393	1068
184.993	1028
187.593	998
190.193	958
192.79	956
195.387	910
197.983	910
200.578	990
203.174	942
205.766	994
208.36	1010
210.951	1044
213.542	1056
216.131	1080
218.721	1132
221.309	1094
223.897	1056
226.483	1054
229.069	1008
231.654	894
234.238	812
236.821	756
239.404	674
241.984	600
244.566	544
247.145	492
249.723	442
252.302	440
254.878	418
257.455	388
260.03	358
262.604	374
265.178	344
267.75	340
270.322	334
272.893	332
275.463	330
278.032	320
280.601	314
283.168	306
285.734	294
288.301	292
290.866	274
293.429	274
295.992	258
298.556	272
301.117	248
303.677	254
306.236	260
308.795	238
311.354	274
313.911	238
316.467	260
319.022	252
321.577	248
324.13	266
326.684	270
329.236	250
331.787	264
334.337	252
336.887	246
339.435	260
341.983	252
344.529	264
347.075	258
349.621	246
352.165	234
354.708	238
357.251	228
359.793	228
362.334	236
364.874	242
367.413	244
369.951	230
372.489	248
375.026	248
377.562	268
380.097	262
382.631	280
385.164	274
387.697	276
390.229	272
392.76	304
395.29	286
397.819	306
400.346	324
402.873	314
405.4	342
407.926	352
410.451	380
412.976	322
415.499	318
418.02	294
420.542	300
423.063	286
425.583	278
428.101	254
430.619	254
433.137	242
435.654	240
438.169	252
440.684	232
443.198	244
445.712	238
448.223	234
450.735	234
453.246	220
455.755	200
458.264	202
460.771	216
463.279	192
465.786	198
468.291	200
470.796	198
473.301	194
475.803	198
478.306	210
480.807	196
483.308	192
485.807	194
488.307	190
490.804	208
493.302	194
495.798	204
498.294	208
500.788	216
503.283	204
505.775	216
508.269	206
510.759	222
513.251	198
515.74	214
518.23	216
520.718	208
523.204	224
525.692	210
528.177	240
530.663	242
533.147	250
535.629	264
538.113	254
540.594	266
543.074	292
545.555	290
548.034	274
550.512	278
552.989	278
555.467	262
557.942	286
560.417	268
562.892	272
565.365	264
567.838	262
570.309	270
572.78	262
575.251	268
577.72	268
580.189	270
582.656	240
585.123	232
587.589	222
590.055	236
592.52	226
594.983	232
597.446	234
599.908	234
602.369	240
604.829	240
607.289	298
609.747	294
612.205	280
614.663	328
617.119	436
619.574	726
622.029	1098
624.483	990
626.936	542
629.389	374
631.84	284
634.291	266
636.741	230
639.19	214
641.639	212
644.086	218
646.533	194
648.979	208
651.424	176
653.869	192
656.313	192
658.754	190
661.196	182
663.638	184
666.078	190
668.518	188
670.957	188
673.394	194
675.831	186
678.268	190
680.703	192
683.137	188
685.571	190
688.005	190
690.437	192
692.868	188
695.299	184
697.729	198
700.159	226
702.586	220
705.014	234
707.441	248
709.866	224
712.292	222
714.716	234
717.14	238
719.563	236
721.984	280
724.406	324
726.825	326
729.246	324
731.665	286
734.082	304
736.5	302
738.916	338
741.332	382
743.746	386
746.161	386
748.574	406
750.987	404
753.398	440
755.81	450
758.219	488
760.629	506
763.037	520
765.445	462
767.852	474
770.258	436
772.664	440
775.068	444
777.472	436
779.876	456
782.278	470
784.679	530
787.08	560
789.48	608
791.879	678
794.278	678
796.675	684
799.072	684
801.467	638
803.864	558
806.258	496
808.651	450
811.044	420
813.437	400
815.828	348
818.218	330
820.608	318
822.997	300
825.385	284
827.773	294
830.16	266
832.546	300
834.931	300
837.315	316
839.699	368
842.081	394
844.463	386
846.844	376
849.226	350
851.606	336
853.985	330
856.363	322
858.741	312
861.117	312
863.493	320
865.868	298
868.243	320
870.616	326
872.989	314
875.36	304
877.731	312
880.102	294
882.472	306
884.841	302
887.209	314
889.577	314
891.944	304
894.31	310
896.674	308
899.039	312
901.403	318
903.766	356
906.128	362
908.49	386
910.849	352
913.209	338
915.569	308
917.927	304
920.284	290
922.641	288
924.997	272
927.353	282
929.707	256
932.061	262
934.414	282
936.765	276
939.117	284
941.469	280
943.818	270
946.167	288
948.515	290
950.863	282
953.211	294
955.556	302
957.902	306
960.246	288
962.59	326
964.933	330
967.276	348
969.617	358
971.958	338
974.298	356
976.638	388
978.976	438
981.314	500
983.651	554
985.988	618
988.323	808
990.659	1198
992.992	1740
995.325	1938
997.658	2344
999.99	4190
1002.32	6608
1004.65	6168
1006.98	3440
1009.31	1612
1011.64	874
1013.97	612
1016.29	522
1018.62	476
1020.94	512
1023.27	652
1025.59	838
1027.91	1152
1030.24	1672
1032.56	1948
1034.88	1896
1037.2	1442
1039.52	994
1041.84	730
1044.15	560
1046.47	512
1048.79	458
1051.1	452
1053.42	420
1055.73	404
1058.04	412
1060.36	412
1062.67	428
1064.98	438
1067.29	452
1069.6	454
1071.91	476
1074.22	446
1076.52	470
1078.83	456
1081.14	440
1083.44	452
1085.75	428
1088.05	428
1090.35	440
1092.65	448
1094.95	444
1097.26	454
1099.56	432
1101.86	440
1104.15	424
1106.45	418
1108.75	364
1111.05	376
1113.34	380
1115.64	346
1117.93	342
1120.22	324
1122.52	310
1124.81	314
1127.1	296
1129.39	304
1131.68	270
1133.97	316
1136.26	306
1138.54	318
1140.83	336
1143.12	358
1145.4	380
1147.69	442
1149.97	516
1152.25	658
1154.54	906
1156.82	1004
1159.1	896
1161.38	710
1163.66	598
1165.94	532
1168.22	516
1170.49	544
1172.77	558
1175.05	632
1177.32	766
1179.6	1022
1181.87	1202
1184.14	1198
1186.42	1150
1188.69	1028
1190.96	1084
1193.23	1114
1195.5	1218
1197.77	1300
1200.03	1212
1202.3	1166
1204.57	1118
1206.83	994
1209.1	854
1211.36	754
1213.63	660
1215.89	568
1218.15	528
1220.41	508
1222.67	498
1224.93	472
1227.19	464
1229.45	452
1231.71	416
1233.97	418
1236.22	400
1238.48	386
1240.73	382
1242.99	382
1245.24	372
1247.5	386
1249.75	356
1252	372
1254.25	376
1256.5	366
1258.75	370
1261	378
1263.25	374
1265.49	386
1267.74	370
1269.99	380
1272.23	362
1274.48	362
1276.72	366
1278.96	364
1281.21	370
1283.45	382
1285.69	366
1287.93	394
1290.17	386
1292.41	392
1294.64	378
1296.88	418
1299.12	410
1301.36	432
1303.59	408
1305.82	448
1308.06	448
1310.29	422
1312.52	456
1314.76	464
1316.99	472
1319.22	480
1321.45	518
1323.68	538
1325.9	562
1328.13	552
1330.36	546
1332.58	540
1334.81	522
1337.04	502
1339.26	464
1341.48	466
1343.71	430
1345.93	410
1348.15	416
1350.37	418
1352.59	382
1354.81	388
1357.03	378
1359.24	404
1361.46	388
1363.68	398
1365.89	392
1368.11	404
1370.32	402
1372.54	386
1374.75	374
1376.96	382
1379.17	382
1381.38	362
1383.59	358
1385.8	348
1388.01	316
1390.22	292
1392.43	308
1394.63	280
1396.84	290
1399.05	286
1401.25	298
1403.45	280
1405.66	276
1407.86	288
1410.06	280
1412.26	278
1414.46	266
1416.66	284
1418.86	292
1421.06	276
1423.26	286
1425.46	274
1427.65	290
1429.85	310
1432.04	298
1434.24	344
1436.43	366
1438.62	424
1440.82	482
1443.01	496
1445.2	542
1447.39	602
1449.58	614
1451.77	618
1453.95	612
1456.14	552
1458.33	468
1460.52	394
1462.7	358
1464.89	330
1467.07	302
1469.25	300
1471.44	306
1473.62	310
1475.8	300
1477.98	292
1480.16	298
1482.34	294
1484.52	290
1486.7	278
1488.87	292
1491.05	298
1493.23	302
1495.4	302
1497.58	322
1499.75	288
1501.92	296
1504.1	262
1506.27	284
1508.44	288
1510.61	272
1512.78	280
1514.95	292
1517.12	290
1519.28	286
1521.45	282
1523.62	288
1525.78	288
1527.95	286
1530.11	296
1532.28	286
1534.44	292
1536.6	296
1538.76	294
1540.93	276
1543.09	296
1545.25	286
1547.41	298
1549.56	292
1551.72	316
1553.88	306
1556.03	302
1558.19	304
1560.35	322
1562.5	340
1564.65	330
1566.81	324
1568.96	356
1571.11	384
1573.26	406
1575.41	432
1577.56	494
1579.71	588
1581.86	822
1584.01	996
1586.15	908
1588.3	706
1590.45	626
1592.59	604
1594.74	720
1596.88	916
1599.02	1268
1601.17	1712
1603.31	1918
1605.45	1724
1607.59	1312
1609.73	914
1611.87	676
1614.01	546
1616.14	494
1618.28	444
1620.42	430
1622.55	386
1624.69	374
1626.82	348
1628.96	346
1631.09	344
1633.22	352
1635.36	330
1637.49	352
1639.62	332
1641.75	352
1643.88	346
1646	356
1648.13	370
1650.26	342
1652.39	336
1654.51	342
1656.64	324
1658.76	318
1660.89	314
1663.01	320
1665.13	288
1667.26	298
1669.38	284
1671.5	308
1673.62	298
1675.74	300
1677.86	290
1679.97	314
1682.09	312
1684.21	294
1686.33	300
1688.44	304
1690.56	306
1692.67	296
1694.78	284
1696.9	316
1699.01	294
1701.12	310
1703.23	306
1705.34	302
1707.45	280
1709.56	284
1711.67	288
1713.78	282
1715.88	292
1717.99	310
1720.1	296
1722.2	304
1724.31	312
1726.41	300
1728.51	294
1730.62	308
1732.72	284
1734.82	308
1736.92	296
1739.02	308
1741.12	298
1743.22	288
1745.32	296
1747.42	300
1749.51	294
1751.61	294
1753.7	290
1755.8	274
1757.89	278
1759.99	290
1762.08	272
1764.17	286
1766.26	286
1768.36	296
1770.45	286
1772.54	286
1774.62	302
1776.71	286
1778.8	308
1780.89	298
1782.98	298
1785.06	318
1787.15	286
1789.23	294
1791.32	296
1793.4	290
1795.48	292
1797.56	334
1799.65	298
1801.73	288
1803.81	296
1805.89	308
1807.97	304
1810.04	308
1812.12	330
1814.2	318
1816.28	300
1818.35	286
1820.43	302
1822.5	310
1824.58	294
1826.65	298
1828.72	300
1830.79	298
1832.86	304
1834.94	308
1837.01	288
1839.08	288
1841.15	290
1843.21	300
1845.28	310
1847.35	310
1849.41	304
1851.48	298
1853.55	324
1855.61	288
1857.67	298
1859.74	302
1861.8	286
1863.86	298
1865.92	278
1867.98	338
1870.05	308
1872.1	312
1874.16	292
1876.22	312
1878.28	276
1880.34	312
1882.39	304
1884.45	308
1886.5	302
1888.56	300
1890.61	308
1892.67	306
1894.72	298
1896.77	326
1898.82	296
1900.87	316
1902.92	316
1904.97	290
1907.02	300
1909.07	332
1911.12	322
1913.17	320
1915.21	324
1917.26	314
1919.3	304
1921.35	326
1923.39	322
1925.43	324
1927.48	328
1929.52	324
1931.56	316
1933.6	302
1935.64	302
1937.68	336
1939.72	316
1941.76	310
1943.8	312
1945.83	326
1947.87	338
1949.91	320
1951.94	322
1953.98	316
1956.01	314
1958.05	340
1960.08	320
1962.11	312
1964.14	314
1966.17	320
1968.2	304
1970.23	338
1972.26	328
1974.29	314
1976.32	328
1978.35	318
1980.37	314
1982.4	318
1984.43	328
1986.45	302
1988.48	322
1990.5	334
1992.52	322
1994.55	318
1996.57	332
1998.59	310
2000.61	324
2002.63	332
2004.65	324
2006.67	318
2008.69	320
2010.7	330
2012.72	320
2014.74	328
2016.75	324
2018.77	306
2020.78	330
2022.8	326
2024.81	324
2026.83	338
2028.84	332
2030.85	310
2032.86	338
2034.87	334
2036.88	328
2038.89	332
2040.9	334
2042.91	336
2044.91	338
2046.92	334
2048.93	324
2050.93	328
2052.94	310
2054.94	324
2056.95	322
2058.95	308
2060.95	334
2062.95	340
2064.96	330
2066.96	332
2068.96	326
2070.96	342
2072.96	338
2074.95	348
2076.95	324
2078.95	334
2080.95	328
2082.94	338
2084.94	326
2086.93	334
2088.93	344
2090.92	322
2092.91	344
2094.91	342
2096.9	358
2098.89	326
2100.88	334
2102.87	314
2104.86	340
2106.85	320
2108.84	370
2110.83	330
2112.81	328
2114.8	350
2116.78	334
2118.77	360
2120.75	342
2122.74	344
2124.72	332
2126.71	342
2128.69	332
2130.67	338
2132.65	350
2134.63	330
2136.61	330
2138.59	352
2140.57	340
2142.55	340
2144.53	340
2146.5	348
2148.48	348
2150.46	336
2152.43	326
2154.41	340
2156.38	334
2158.35	338
2160.33	336
2162.3	348
2164.27	344
2166.24	360
2168.21	348
2170.18	326
2172.15	338
2174.12	346
2176.09	334
2178.06	354
2180.03	344
2181.99	336
2183.96	342
2185.92	350
2187.89	310
2189.85	332
2191.82	356
2193.78	368
2195.74	346
2197.7	354
2199.67	354
2201.63	342
2203.59	350
2205.55	362
2207.51	352
2209.46	344
2211.42	352
2213.38	352
2215.34	338
2217.29	360
2219.25	372
2221.2	348
2223.16	346
2225.11	340
2227.06	348
2229.02	332
2230.97	346
2232.92	338
2234.87	348
2236.82	348
2238.77	336
2240.72	356
2242.67	350
2244.62	336
2246.57	342
2248.51	350
2250.46	338
2252.4	348
2254.35	352
2256.29	336
2258.24	354
2260.18	356
2262.13	342
2264.07	354
2266.01	348
2267.95	352
2269.89	342
2271.83	318
2273.77	342
2275.71	326
2277.65	330
2279.58	344
2281.52	334
2283.46	350
2285.4	342
2287.33	346
2289.27	354
2291.2	346
2293.13	358
2295.07	350
2297	352
2298.93	354
2300.86	338
2302.79	350
2304.72	358
2306.65	352
2308.58	356
2310.51	336
2312.44	358
2314.37	356
2316.29	366
2318.22	348
2320.15	370
2322.07	340
2324	364
2325.92	374
2327.84	364
2329.77	364
2331.69	340
2333.61	372
2335.53	360
2337.45	366
2339.37	366
2341.29	358
2343.21	354
2345.13	366
2347.05	354
2348.97	338
2350.88	370
2352.8	356
2354.71	376
2356.63	358
2358.54	366
2360.46	360
2362.37	340
2364.28	356
2366.2	364
2368.11	370
2370.02	372
2371.93	360
2373.84	360
2375.75	350
2377.66	370
2379.57	360
2381.47	338
2383.38	356
2385.29	346
2387.2	356
2389.1	348
2391.01	362
2392.91	358
2394.81	344
2396.72	374
2398.62	370
2400.52	346
2402.42	358
2404.33	372
2406.23	352
2408.13	360
2410.03	364
2411.92	352
2413.82	344
2415.72	364
2417.62	368
2419.51	374
2421.41	360
2423.31	364
2425.2	350
2427.1	368
2428.99	356
2430.88	372
2432.78	372
2434.67	378
2436.56	382
2438.45	378
2440.34	354
2442.23	388
2444.12	354
2446.01	368
2447.9	362
2449.79	364