File: Mixture_Classification/Jesse_Dataset_v2/Pure Raman/Polystyrene/633nm/ps-ppo-7jan25-1,0000-map3_Y07_X07.txt
182.393	1108
184.993	1074
187.593	1004
190.193	992
192.79	994
195.387	998
197.983	968
200.578	990
203.174	1026
205.766	1028
208.36	1022
210.951	1046
213.542	1068
216.131	1084
218.721	1138
221.309	1140
223.897	1130
226.483	1090
229.069	1070
231.654	1010
234.238	888
236.821	812
239.404	716
241.984	644
244.566	580
247.145	522
249.723	460
252.302	448
254.878	434
257.455	402
260.03	394
262.604	376
265.178	392
267.75	396
270.322	392
272.893	376
275.463	370
278.032	342
280.601	354
283.168	342
285.734	332
288.301	314
290.866	308
293.429	296
295.992	294
298.556	282
301.117	264
303.677	302
306.236	266
308.795	286
311.354	288
313.911	270
316.467	290
319.022	292
321.577	296
324.13	276
326.684	266
329.236	280
331.787	272
334.337	284
336.887	290
339.435	276
341.983	278
344.529	262
347.075	274
349.621	262
352.165	268
354.708	252
357.251	264
359.793	262
362.334	264
364.874	258
367.413	270
369.951	268
372.489	266
375.026	280
377.562	276
380.097	278
382.631	308
385.164	306
387.697	296
390.229	290
392.76	314
395.29	322
397.819	316
400.346	312
402.873	362
405.4	372
407.926	370
410.451	362
412.976	348
415.499	354
418.02	332
420.542	298
423.063	286
425.583	308
428.101	282
430.619	280
433.137	270
435.654	266
438.169	258
440.684	268
443.198	268
445.712	244
448.223	256
450.735	246
453.246	236
455.755	206
458.264	242
460.771	214
463.279	210
465.786	234
468.291	234
470.796	224
473.301	218
475.803	226
478.306	216
480.807	202
483.308	208
485.807	218
488.307	214
490.804	228
493.302	220
495.798	218
498.294	220
500.788	216
503.283	226
505.775	232
508.269	228
510.759	218
513.251	230
515.74	244
518.23	222
520.718	232
523.204	218
525.692	244
528.177	232
530.663	250
533.147	274
535.629	264
538.113	294
540.594	274
543.074	300
545.555	302
548.034	302
550.512	280
552.989	296
555.467	306
557.942	298
560.417	278
562.892	290
565.365	280
567.838	288
570.309	266
572.78	282
575.251	292
577.72	272
580.189	270
582.656	254
585.123	264
587.589	254
590.055	260
592.52	240
594.983	228
597.446	232
599.908	234
602.369	262
604.829	270
607.289	314
609.747	318
612.205	318
614.663	350
617.119	458
619.574	748
622.029	1106
624.483	1026
626.936	550
629.389	378
631.84	300
634.291	274
636.741	254
639.19	242
641.639	212
644.086	226
646.533	208
648.979	214
651.424	212
653.869	200
656.313	204
658.754	204
661.196	212
663.638	204
666.078	192
668.518	202
670.957	196
673.394	194
675.831	202
678.268	204
680.703	204
683.137	188
685.571	198
688.005	206
690.437	200
692.868	210
695.299	216
697.729	208
700.159	246
702.586	218
705.014	250
707.441	248
709.866	242
712.292	236
714.716	232
717.14	240
719.563	240
721.984	282
724.406	312
726.825	348
729.246	332
731.665	320
734.082	300
736.5	314
738.916	358
741.332	392
743.746	424
746.161	428
748.574	444
750.987	446
753.398	452
755.81	454
758.219	500
760.629	514
763.037	484
765.445	488
767.852	492
770.258	464
772.664	434
775.068	456
777.472	450
779.876	472
782.278	476
784.679	508
787.08	578
789.48	648
791.879	700
794.278	670
796.675	720
799.072	698
801.467	644
803.864	580
806.258	500
808.651	464
811.044	420
813.437	394
815.828	372
818.218	340
820.608	318
822.997	294
825.385	288
827.773	282
830.16	318
832.546	314
834.931	340
837.315	352
839.699	370
842.081	408
844.463	416
846.844	418
849.226	380
851.606	340
853.985	338
856.363	358
858.741	318
861.117	338
863.493	322
865.868	330
868.243	336
870.616	338
872.989	322
875.36	334
877.731	304
880.102	310
882.472	324
884.841	314
887.209	340
889.577	314
891.944	306
894.31	312
896.674	334
899.039	322
901.403	382
903.766	364
906.128	410
908.49	386
910.849	376
913.209	366
915.569	340
917.927	318
920.284	304
922.641	308
924.997	296
927.353	282
929.707	308
932.061	298
934.414	290
936.765	296
939.117	280
941.469	284
943.818	292
946.167	290
948.515	308
950.863	292
953.211	282
955.556	306
957.902	292
960.246	332
962.59	344
964.933	336
967.276	358
969.617	358
971.958	370
974.298	362
976.638	384
978.976	442
981.314	502
983.651	574
985.988	648
988.323	766
990.659	1210
992.992	1780
995.325	1894
997.658	2412
999.99	4270
1002.32	6630
1004.65	6102
1006.98	3446
1009.31	1620
1011.64	850
1013.97	634
1016.29	512
1018.62	518
1020.94	556
1023.27	668
1025.59	836
1027.91	1208
1030.24	1706
1032.56	2044
1034.88	1972
1037.2	1470
1039.52	1004
1041.84	748
1044.15	604
1046.47	528
1048.79	492
1051.1	452
1053.42	428
1055.73	432
1058.04	420
1060.36	428
1062.67	440
1064.98	456
1067.29	452
1069.6	476
1071.91	504
1074.22	480
1076.52	488
1078.83	450
1081.14	462
1083.44	466
1085.75	476
1088.05	464
1090.35	462
1092.65	482
1094.95	456
1097.26	496
1099.56	484
1101.86	480
1104.15	466
1106.45	442
1108.75	416
1111.05	402
1113.34	376
1115.64	370
1117.93	368
1120.22	346
1122.52	342
1124.81	322
1127.1	306
1129.39	320
1131.68	312
1133.97	304
1136.26	350
1138.54	338
1140.83	344
1143.12	382
1145.4	402
1147.69	440
1149.97	524
1152.25	712
1154.54	902
1156.82	1026
1159.1	934
1161.38	762
1163.66	620
1165.94	564
1168.22	544
1170.49	576
1172.77	578
1175.05	680
1177.32	814
1179.6	1030
1181.87	1200
1184.14	1260
1186.42	1142
1188.69	1036
1190.96	1078
1193.23	1170
1195.5	1246
1197.77	1296
1200.03	1232
1202.3	1190
1204.57	1122
1206.83	986
1209.1	918
1211.36	778
1213.63	666
1215.89	580
1218.15	532
1220.41	538
1222.67	506
1224.93	508
1227.19	496
1229.45	452
1231.71	466
1233.97	426
1236.22	410
1238.48	416
1240.73	406
1242.99	402
1245.24	404
1247.5	400
1249.75	394
1252	396
1254.25	398
1256.5	384
1258.75	408
1261	378
1263.25	392
1265.49	386
1267.74	390
1269.99	376
1272.23	358
1274.48	384
1276.72	394
1278.96	374
1281.21	396
1283.45	366
1285.69	382
1287.93	398
1290.17	414
1292.41	424
1294.64	438
1296.88	420
1299.12	442
1301.36	456
1303.59	444
1305.82	442
1308.06	456
1310.29	442
1312.52	470
1314.76	474
1316.99	506
1319.22	508
1321.45	538
1323.68	546
1325.9	572
1328.13	558
1330.36	562
1332.58	562
1334.81	552
1337.04	522
1339.26	498
1341.48	446
1343.71	432
1345.93	422
1348.15	426
1350.37	424
1352.59	414
1354.81	390
1357.03	404
1359.24	438
1361.46	392
1363.68	402
1365.89	426
1368.11	418
1370.32	428
1372.54	406
1374.75	394
1376.96	416
1379.17	382
1381.38	366
1383.59	352
1385.8	346
1388.01	318
1390.22	318
1392.43	320
1394.63	310
1396.84	292
1399.05	286
1401.25	292
1403.45	310
1405.66	312
1407.86	312
1410.06	310
1412.26	302
1414.46	284
1416.66	288
1418.86	304
1421.06	278
1423.26	292
1425.46	288
1427.65	300
1429.85	334
1432.04	342
1434.24	350
1436.43	382
1438.62	424
1440.82	480
1443.01	504
1445.2	546
1447.39	598
1449.58	628
1451.77	634
1453.95	606
1456.14	546
1458.33	476
1460.52	404
1462.7	380
1464.89	352
1467.07	330
1469.25	314
1471.44	318
1473.62	310
1475.8	294
1477.98	310
1480.16	296
1482.34	294
1484.52	294
1486.7	302
1488.87	294
1491.05	300
1493.23	342
1495.4	324
1497.58	310
1499.75	320
1501.92	296
1504.1	306
1506.27	304
1508.44	292
1510.61	292
1512.78	298
1514.95	284
1517.12	276
1519.28	292
1521.45	282
1523.62	296
1525.78	292
1527.95	284
1530.11	298
1532.28	294
1534.44	306
1536.6	292
1538.76	304
1540.93	314
1543.09	304
1545.25	320
1547.41	284
1549.56	310
1551.72	306
1553.88	294
1556.03	302
1558.19	320
1560.35	320
1562.5	314
1564.65	338
1566.81	324
1568.96	332
1571.11	360
1573.26	400
1575.41	408
1577.56	458
1579.71	618
1581.86	846
1584.01	1020
1586.15	908
1588.3	730
1590.45	614
1592.59	614
1594.74	698
1596.88	914
1599.02	1254
1601.17	1638
1603.31	1924
1605.45	1754
1607.59	1318
1609.73	912
1611.87	678
1614.01	568
1616.14	486
1618.28	434
1620.42	418
1622.55	390
1624.69	364
1626.82	376
1628.96	368
1631.09	342
1633.22	346
1635.36	334
1637.49	336
1639.62	342
1641.75	354
1643.88	342
1646	346
1648.13	366
1650.26	358
1652.39	346
1654.51	350
1656.64	308
1658.76	308
1660.89	308
1663.01	316
1665.13	296
1667.26	294
1669.38	292
1671.5	298
1673.62	310
1675.74	304
1677.86	296
1679.97	300
1682.09	322
1684.21	308
1686.33	316
1688.44	298
1690.56	308
1692.67	318
1694.78	312
1696.9	290
1699.01	290
1701.12	292
1703.23	296
1705.34	306
1707.45	296
1709.56	302
1711.67	296
1713.78	304
1715.88	302
1717.99	298
1720.1	288
1722.2	298
1724.31	286
1726.41	288
1728.51	292
1730.62	280
1732.72	292
1734.82	282
1736.92	268
1739.02	288
1741.12	290
1743.22	284
1745.32	304
1747.42	300
1749.51	306
1751.61	302
1753.7	296
1755.8	290
1757.89	268
1759.99	288
1762.08	286
1764.17	304
1766.26	282
1768.36	302
1770.45	278
1772.54	296
1774.62	318
1776.71	286
1778.8	306
1780.89	294
1782.98	316
1785.06	302
1787.15	308
1789.23	300
1791.32	308
1793.4	292
1795.48	300
1797.56	298
1799.65	298
1801.73	304
1803.81	308
1805.89	296
1807.97	306
1810.04	298
1812.12	312
1814.2	320
1816.28	294
1818.35	300
1820.43	314
1822.5	306
1824.58	320
1826.65	308
1828.72	312
1830.79	316
1832.86	310
1834.94	302
1837.01	314
1839.08	298
1841.15	290
1843.21	298
1845.28	312
1847.35	288
1849.41	296
1851.48	312
1853.55	310
1855.61	292
1857.67	312
1859.74	302
1861.8	304
1863.86	276
1865.92	298
1867.98	318
1870.05	294
1872.1	308
1874.16	298
1876.22	308
1878.28	308
1880.34	312
1882.39	302
1884.45	298
1886.5	296
1888.56	304
1890.61	304
1892.67	310
1894.72	312
1896.77	286
1898.82	300
1900.87	308
1902.92	304
1904.97	320
1907.02	294
1909.07	296
1911.12	310
1913.17	298
1915.21	312
1917.26	314
1919.3	302
1921.35	328
1923.39	304
1925.43	316
1927.48	324
1929.52	318
1931.56	320
1933.6	326
1935.64	340
1937.68	320
1939.72	320
1941.76	316
1943.8	312
1945.83	330
1947.87	312
1949.91	320
1951.94	312
1953.98	312
1956.01	310
1958.05	326
1960.08	334
1962.11	306
1964.14	314
1966.17	300
1968.2	316
1970.23	310
1972.26	312
1974.29	306
1976.32	314
1978.35	322
1980.37	308
1982.4	316
1984.43	314
1986.45	322
1988.48	312
1990.5	316
1992.52	318
1994.55	314
1996.57	302
1998.59	322
2000.61	308
2002.63	322
2004.65	324
2006.67	316
2008.69	312
2010.7	318
2012.72	324
2014.74	320
2016.75	304
2018.77	298
2020.78	306
2022.8	322
2024.81	344
2026.83	312
2028.84	310
2030.85	316
2032.86	348
2034.87	308
2036.88	334
2038.89	320
2040.9	326
2042.91	344
2044.91	336
2046.92	328
2048.93	332
2050.93	326
2052.94	318
2054.94	308
2056.95	328
2058.95	330
2060.95	324
2062.95	342
2064.96	312
2066.96	338
2068.96	316
2070.96	326
2072.96	318
2074.95	318
2076.95	330
2078.95	310
2080.95	334
2082.94	320
2084.94	320
2086.93	334
2088.93	334
2090.92	312
2092.91	324
2094.91	322
2096.9	322
2098.89	322
2100.88	338
2102.87	320
2104.86	316
2106.85	320
2108.84	336
2110.83	328
2112.81	334
2114.8	332
2116.78	326
2118.77	350
2120.75	328
2122.74	336
2124.72	344
2126.71	332
2128.69	330
2130.67	312
2132.65	336
2134.63	320
2136.61	318
2138.59	324
2140.57	328
2142.55	334
2144.53	330
2146.5	344
2148.48	338
2150.46	346
2152.43	328
2154.41	336
2156.38	342
2158.35	344
2160.33	322
2162.3	340
2164.27	338
2166.24	338
2168.21	340
2170.18	334
2172.15	342
2174.12	354
2176.09	336
2178.06	330
2180.03	332
2181.99	346
2183.96	352
2185.92	324
2187.89	350
2189.85	348
2191.82	344
2193.78	318
2195.74	330
2197.7	338
2199.67	348
2201.63	354
2203.59	336
2205.55	338
2207.51	342
2209.46	340
2211.42	330
2213.38	342
2215.34	328
2217.29	326
2219.25	334
2221.2	344
2223.16	342
2225.11	330
2227.06	364
2229.02	332
2230.97	330
2232.92	342
2234.87	334
2236.82	322
2238.77	340
2240.72	318
2242.67	314
2244.62	330
2246.57	344
2248.51	340
2250.46	342
2252.4	350
2254.35	332
2256.29	332
2258.24	358
2260.18	336
2262.13	344
2264.07	344
2266.01	348
2267.95	346
2269.89	338
2271.83	336
2273.77	334
2275.71	352
2277.65	336
2279.58	336
2281.52	346
2283.46	348
2285.4	338
2287.33	352
2289.27	350
2291.2	330
2293.13	344
2295.07	332
2297	322
2298.93	342
2300.86	334
2302.79	372
2304.72	354
2306.65	354
2308.58	348
2310.51	344
2312.44	364
2314.37	352
2316.29	360
2318.22	330
2320.15	352
2322.07	350
2324	338
2325.92	348
2327.84	336
2329.77	334
2331.69	338
2333.61	350
2335.53	358
2337.45	342
2339.37	346
2341.29	338
2343.21	354
2345.13	344
2347.05	342
2348.97	348
2350.88	354
2352.8	354
2354.71	344
2356.63	346
2358.54	340
2360.46	342
2362.37	358
2364.28	362
2366.2	354
2368.11	336
2370.02	368
2371.93	364
2373.84	362
2375.75	352
2377.66	350
2379.57	366
2381.47	356
2383.38	370
2385.29	352
2387.2	346
2389.1	356
2391.01	356
2392.91	358
2394.81	348
2396.72	346
2398.62	346
2400.52	354
2402.42	346
2404.33	358
2406.23	354
2408.13	348
2410.03	360
2411.92	350
2413.82	354
2415.72	344
2417.62	354
2419.51	356
2421.41	342
2423.31	368
2425.2	360
2427.1	366
2428.99	354
2430.88	358
2432.78	356
2434.67	350
2436.56	334
2438.45	356
2440.34	378
2442.23	376
2444.12	368
2446.01	350
2447.9	374
2449.79	366