File: Mixture_Classification/Jesse_Dataset_v2/Pure Raman/Polystyrene/633nm/ps-ppo-7jan25-1,0000-map3_Y02_X02.txt
182.393	1034
184.993	992
187.593	968
190.193	908
192.79	926
195.387	890
197.983	912
200.578	882
203.174	900
205.766	942
208.36	978
210.951	994
213.542	1018
216.131	1022
218.721	1080
221.309	1040
223.897	1040
226.483	1028
229.069	1002
231.654	922
234.238	830
236.821	724
239.404	650
241.984	586
244.566	500
247.145	460
249.723	424
252.302	380
254.878	364
257.455	364
260.03	346
262.604	350
265.178	302
267.75	336
270.322	314
272.893	314
275.463	292
278.032	296
280.601	288
283.168	266
285.734	260
288.301	250
290.866	242
293.429	240
295.992	244
298.556	234
301.117	222
303.677	210
306.236	210
308.795	206
311.354	218
313.911	214
316.467	224
319.022	214
321.577	226
324.13	232
326.684	220
329.236	222
331.787	236
334.337	236
336.887	216
339.435	232
341.983	220
344.529	206
347.075	200
349.621	208
352.165	206
354.708	214
357.251	194
359.793	200
362.334	200
364.874	200
367.413	204
369.951	204
372.489	212
375.026	224
377.562	214
380.097	208
382.631	230
385.164	244
387.697	260
390.229	260
392.76	262
395.29	266
397.819	256
400.346	280
402.873	292
405.4	298
407.926	330
410.451	338
412.976	324
415.499	292
418.02	264
420.542	260
423.063	248
425.583	214
428.101	236
430.619	228
433.137	210
435.654	194
438.169	202
440.684	184
443.198	216
445.712	200
448.223	184
450.735	178
453.246	170
455.755	180
458.264	164
460.771	166
463.279	180
465.786	162
468.291	168
470.796	154
473.301	150
475.803	146
478.306	168
480.807	156
483.308	144
485.807	160
488.307	160
490.804	158
493.302	162
495.798	166
498.294	164
500.788	176
503.283	166
505.775	176
508.269	198
510.759	156
513.251	164
515.74	180
518.23	176
520.718	176
523.204	174
525.692	192
528.177	196
530.663	202
533.147	212
535.629	218
538.113	252
540.594	244
543.074	252
545.555	258
548.034	236
550.512	248
552.989	218
555.467	228
557.942	232
560.417	226
562.892	216
565.365	230
567.838	234
570.309	210
572.78	232
575.251	230
577.72	244
580.189	234
582.656	206
585.123	190
587.589	198
590.055	190
592.52	204
594.983	194
597.446	184
599.908	186
602.369	200
604.829	230
607.289	224
609.747	252
612.205	266
614.663	286
617.119	420
619.574	654
622.029	1062
624.483	950
626.936	516
629.389	330
631.84	268
634.291	228
636.741	196
639.19	184
641.639	176
644.086	162
646.533	164
648.979	152
651.424	164
653.869	160
656.313	144
658.754	132
661.196	148
663.638	150
666.078	140
668.518	150
670.957	148
673.394	142
675.831	150
678.268	148
680.703	150
683.137	142
685.571	142
688.005	146
690.437	158
692.868	144
695.299	150
697.729	174
700.159	176
702.586	184
705.014	188
707.441	182
709.866	196
712.292	194
714.716	184
717.14	184
719.563	220
721.984	216
724.406	266
726.825	294
729.246	274
731.665	260
734.082	254
736.5	282
738.916	310
741.332	348
743.746	358
746.161	354
748.574	370
750.987	390
753.398	392
755.81	442
758.219	436
760.629	456
763.037	466
765.445	448
767.852	436
770.258	414
772.664	390
775.068	390
777.472	396
779.876	430
782.278	440
784.679	472
787.08	532
789.48	574
791.879	648
794.278	656
796.675	634
799.072	652
801.467	594
803.864	526
806.258	460
808.651	416
811.044	386
813.437	352
815.828	326
818.218	310
820.608	284
822.997	260
825.385	244
827.773	246
830.16	242
832.546	258
834.931	270
837.315	280
839.699	304
842.081	342
844.463	354
846.844	334
849.226	340
851.606	300
853.985	280
856.363	270
858.741	260
861.117	284
863.493	262
865.868	268
868.243	262
870.616	282
872.989	272
875.36	280
877.731	282
880.102	270
882.472	268
884.841	240
887.209	262
889.577	266
891.944	236
894.31	270
896.674	276
899.039	276
901.403	272
903.766	312
906.128	334
908.49	326
910.849	320
913.209	302
915.569	254
917.927	268
920.284	230
922.641	242
924.997	242
927.353	236
929.707	220
932.061	228
934.414	226
936.765	228
939.117	238
941.469	224
943.818	238
946.167	250
948.515	238
950.863	226
953.211	254
955.556	260
957.902	236
960.246	248
962.59	268
964.933	296
967.276	292
969.617	270
971.958	310
974.298	316
976.638	338
978.976	372
981.314	432
983.651	514
985.988	616
988.323	750
990.659	1136
992.992	1686
995.325	1888
997.658	2340
999.99	4054
1002.32	6480
1004.65	6092
1006.98	3442
1009.31	1560
1011.64	798
1013.97	542
1016.29	454
1018.62	424
1020.94	484
1023.27	612
1025.59	776
1027.91	1130
1030.24	1626
1032.56	1974
1034.88	1844
1037.2	1386
1039.52	974
1041.84	700
1044.15	524
1046.47	478
1048.79	416
1051.1	394
1053.42	384
1055.73	372
1058.04	380
1060.36	390
1062.67	372
1064.98	410
1067.29	414
1069.6	418
1071.91	424
1074.22	410
1076.52	408
1078.83	416
1081.14	414
1083.44	422
1085.75	416
1088.05	374
1090.35	402
1092.65	380
1094.95	390
1097.26	402
1099.56	422
1101.86	416
1104.15	402
1106.45	374
1108.75	356
1111.05	328
1113.34	310
1115.64	298
1117.93	308
1120.22	282
1122.52	270
1124.81	254
1127.1	240
1129.39	258
1131.68	262
1133.97	258
1136.26	268
1138.54	272
1140.83	296
1143.12	290
1145.4	356
1147.69	384
1149.97	472
1152.25	654
1154.54	836
1156.82	934
1159.1	864
1161.38	706
1163.66	548
1165.94	472
1168.22	486
1170.49	502
1172.77	510
1175.05	596
1177.32	716
1179.6	958
1181.87	1172
1184.14	1208
1186.42	1092
1188.69	1020
1190.96	1070
1193.23	1112
1195.5	1166
1197.77	1200
1200.03	1222
1202.3	1132
1204.57	1066
1206.83	922
1209.1	838
1211.36	702
1213.63	602
1215.89	526
1218.15	464
1220.41	452
1222.67	432
1224.93	448
1227.19	444
1229.45	408
1231.71	392
1233.97	404
1236.22	378
1238.48	362
1240.73	336
1242.99	328
1245.24	322
1247.5	342
1249.75	322
1252	340
1254.25	332
1256.5	324
1258.75	342
1261	316
1263.25	338
1265.49	344
1267.74	328
1269.99	324
1272.23	330
1274.48	326
1276.72	310
1278.96	316
1281.21	330
1283.45	318
1285.69	328
1287.93	352
1290.17	334
1292.41	344
1294.64	364
1296.88	378
1299.12	380
1301.36	374
1303.59	388
1305.82	408
1308.06	414
1310.29	422
1312.52	404
1314.76	392
1316.99	440
1319.22	438
1321.45	462
1323.68	490
1325.9	502
1328.13	520
1330.36	474
1332.58	502
1334.81	498
1337.04	486
1339.26	446
1341.48	422
1343.71	404
1345.93	376
1348.15	346
1350.37	380
1352.59	366
1354.81	368
1357.03	376
1359.24	342
1361.46	356
1363.68	358
1365.89	360
1368.11	346
1370.32	348
1372.54	366
1374.75	354
1376.96	350
1379.17	340
1381.38	320
1383.59	326
1385.8	280
1388.01	274
1390.22	262
1392.43	254
1394.63	246
1396.84	244
1399.05	258
1401.25	242
1403.45	258
1405.66	244
1407.86	260
1410.06	250
1412.26	256
1414.46	252
1416.66	248
1418.86	252
1421.06	234
1423.26	244
1425.46	248
1427.65	252
1429.85	262
1432.04	278
1434.24	290
1436.43	344
1438.62	362
1440.82	420
1443.01	470
1445.2	510
1447.39	520
1449.58	592
1451.77	586
1453.95	550
1456.14	498
1458.33	452
1460.52	380
1462.7	314
1464.89	290
1467.07	268
1469.25	256
1471.44	290
1473.62	246
1475.8	254
1477.98	254
1480.16	264
1482.34	258
1484.52	242
1486.7	234
1488.87	252
1491.05	270
1493.23	278
1495.4	292
1497.58	290
1499.75	272
1501.92	238
1504.1	248
1506.27	260
1508.44	230
1510.61	232
1512.78	230
1514.95	254
1517.12	260
1519.28	254
1521.45	230
1523.62	246
1525.78	258
1527.95	258
1530.11	250
1532.28	242
1534.44	226
1536.6	252
1538.76	264
1540.93	250
1543.09	274
1545.25	242
1547.41	264
1549.56	278
1551.72	266
1553.88	264
1556.03	254
1558.19	282
1560.35	286
1562.5	290
1564.65	294
1566.81	294
1568.96	332
1571.11	332
1573.26	348
1575.41	376
1577.56	450
1579.71	560
1581.86	780
1584.01	972
1586.15	908
1588.3	706
1590.45	592
1592.59	596
1594.74	664
1596.88	830
1599.02	1180
1601.17	1644
1603.31	1856
1605.45	1700
1607.59	1278
1609.73	910
1611.87	676
1614.01	542
1616.14	450
1618.28	422
1620.42	384
1622.55	342
1624.69	358
1626.82	338
1628.96	304
1631.09	308
1633.22	310
1635.36	320
1637.49	294
1639.62	322
1641.75	314
1643.88	328
1646	338
1648.13	346
1650.26	320
1652.39	312
1654.51	314
1656.64	288
1658.76	290
1660.89	278
1663.01	286
1665.13	242
1667.26	264
1669.38	272
1671.5	304
1673.62	266
1675.74	274
1677.86	260
1679.97	276
1682.09	266
1684.21	280
1686.33	286
1688.44	256
1690.56	266
1692.67	288
1694.78	272
1696.9	256
1699.01	266
1701.12	284
1703.23	246
1705.34	276
1707.45	274
1709.56	246
1711.67	254
1713.78	254
1715.88	264
1717.99	272
1720.1	270
1722.2	248
1724.31	288
1726.41	266
1728.51	260
1730.62	274
1732.72	270
1734.82	256
1736.92	270
1739.02	280
1741.12	274
1743.22	270
1745.32	246
1747.42	268
1749.51	266
1751.61	278
1753.7	264
1755.8	254
1757.89	260
1759.99	276
1762.08	270
1764.17	254
1766.26	286
1768.36	264
1770.45	264
1772.54	276
1774.62	284
1776.71	264
1778.8	264
1780.89	266
1782.98	266
1785.06	264
1787.15	270
1789.23	268
1791.32	262
1793.4	252
1795.48	252
1797.56	270
1799.65	284
1801.73	288
1803.81	268
1805.89	268
1807.97	284
1810.04	280
1812.12	286
1814.2	296
1816.28	288
1818.35	288
1820.43	288
1822.5	278
1824.58	290
1826.65	272
1828.72	288
1830.79	266
1832.86	258
1834.94	286
1837.01	286
1839.08	266
1841.15	268
1843.21	276
1845.28	278
1847.35	272
1849.41	288
1851.48	292
1853.55	276
1855.61	262
1857.67	272
1859.74	272
1861.8	274
1863.86	292
1865.92	272
1867.98	284
1870.05	272
1872.1	276
1874.16	280
1876.22	280
1878.28	286
1880.34	290
1882.39	288
1884.45	260
1886.5	280
1888.56	266
1890.61	296
1892.67	288
1894.72	276
1896.77	272
1898.82	276
1900.87	262
1902.92	302
1904.97	306
1907.02	280
1909.07	296
1911.12	302
1913.17	294
1915.21	280
1917.26	304
1919.3	284
1921.35	300
1923.39	304
1925.43	312
1927.48	280
1929.52	288
1931.56	286
1933.6	316
1935.64	294
1937.68	286
1939.72	300
1941.76	284
1943.8	300
1945.83	282
1947.87	302
1949.91	304
1951.94	306
1953.98	296
1956.01	314
1958.05	286
1960.08	310
1962.11	294
1964.14	316
1966.17	276
1968.2	308
1970.23	300
1972.26	298
1974.29	300
1976.32	304
1978.35	286
1980.37	298
1982.4	300
1984.43	312
1986.45	302
1988.48	288
1990.5	284
1992.52	310
1994.55	308
1996.57	286
1998.59	314
2000.61	304
2002.63	304
2004.65	288
2006.67	302
2008.69	296
2010.7	296
2012.72	306
2014.74	320
2016.75	298
2018.77	294
2020.78	314
2022.8	320
2024.81	304
2026.83	302
2028.84	306
2030.85	300
2032.86	314
2034.87	324
2036.88	304
2038.89	326
2040.9	298
2042.91	288
2044.91	304
2046.92	310
2048.93	314
2050.93	300
2052.94	304
2054.94	300
2056.95	310
2058.95	294
2060.95	322
2062.95	318
2064.96	312
2066.96	326
2068.96	312
2070.96	320
2072.96	312
2074.95	302
2076.95	296
2078.95	306
2080.95	300
2082.94	292
2084.94	318
2086.93	312
2088.93	310
2090.92	302
2092.91	298
2094.91	316
2096.9	328
2098.89	322
2100.88	324
2102.87	322
2104.86	320
2106.85	308
2108.84	312
2110.83	322
2112.81	334
2114.8	328
2116.78	296
2118.77	340
2120.75	340
2122.74	304
2124.72	290
2126.71	326
2128.69	316
2130.67	316
2132.65	326
2134.63	318
2136.61	336
2138.59	342
2140.57	336
2142.55	310
2144.53	302
2146.5	334
2148.48	342
2150.46	306
2152.43	320
2154.41	312
2156.38	322
2158.35	324
2160.33	340
2162.3	336
2164.27	326
2166.24	330
2168.21	318
2170.18	338
2172.15	324
2174.12	338
2176.09	332
2178.06	314
2180.03	354
2181.99	338
2183.96	340
2185.92	326
2187.89	316
2189.85	326
2191.82	344
2193.78	318
2195.74	336
2197.7	308
2199.67	328
2201.63	336
2203.59	342
2205.55	334
2207.51	320
2209.46	344
2211.42	324
2213.38	328
2215.34	334
2217.29	334
2219.25	326
2221.2	328
2223.16	334
2225.11	346
2227.06	332
2229.02	368
2230.97	330
2232.92	346
2234.87	328
2236.82	332
2238.77	338
2240.72	338
2242.67	332
2244.62	334
2246.57	322
2248.51	360
2250.46	344
2252.4	354
2254.35	338
2256.29	348
2258.24	352
2260.18	348
2262.13	358
2264.07	342
2266.01	360
2267.95	348
2269.89	320
2271.83	358
2273.77	362
2275.71	352
2277.65	342
2279.58	350
2281.52	338
2283.46	356
2285.4	362
2287.33	354
2289.27	328
2291.2	356
2293.13	342
2295.07	364
2297	358
2298.93	374
2300.86	364
2302.79	362
2304.72	360
2306.65	350
2308.58	346
2310.51	352
2312.44	380
2314.37	366
2316.29	350
2318.22	362
2320.15	346
2322.07	338
2324	346
2325.92	330
2327.84	354
2329.77	352
2331.69	358
2333.61	362
2335.53	360
2337.45	348
2339.37	358
2341.29	362
2343.21	364
2345.13	356
2347.05	358
2348.97	362
2350.88	358
2352.8	358
2354.71	368
2356.63	356
2358.54	364
2360.46	364
2362.37	346
2364.28	354
2366.2	354
2368.11	364
2370.02	364
2371.93	360
2373.84	358
2375.75	362
2377.66	366
2379.57	374
2381.47	360
2383.38	360
2385.29	344
2387.2	372
2389.1	360
2391.01	374
2392.91	360
2394.81	352
2396.72	360
2398.62	368
2400.52	360
2402.42	346
2404.33	348
2406.23	366
2408.13	364
2410.03	356
2411.92	342
2413.82	374
2415.72	352
2417.62	358
2419.51	374
2421.41	346
2423.31	368
2425.2	362
2427.1	354
2428.99	368
2430.88	358
2432.78	364
2434.67	370
2436.56	362
2438.45	374
2440.34	368
2442.23	382
2444.12	370
2446.01	364
2447.9	364
2449.79	376