File: Mixture_Classification/Jesse_Dataset_v2/Pure Raman/Polystyrene/633nm/ps-ppo-7jan25-1,0000-map3_Y00_X10.txt
182.393	1048
184.993	1006
187.593	960
190.193	984
192.79	966
195.387	922
197.983	966
200.578	940
203.174	974
205.766	958
208.36	1020
210.951	1018
213.542	1060
216.131	1066
218.721	1082
221.309	1074
223.897	1056
226.483	1056
229.069	1016
231.654	912
234.238	866
236.821	774
239.404	690
241.984	620
244.566	554
247.145	482
249.723	450
252.302	422
254.878	406
257.455	394
260.03	392
262.604	380
265.178	370
267.75	354
270.322	366
272.893	350
275.463	344
278.032	336
280.601	322
283.168	304
285.734	310
288.301	286
290.866	274
293.429	268
295.992	268
298.556	250
301.117	260
303.677	254
306.236	270
308.795	240
311.354	248
313.911	264
316.467	266
319.022	252
321.577	264
324.13	252
326.684	264
329.236	254
331.787	266
334.337	268
336.887	262
339.435	242
341.983	236
344.529	258
347.075	232
349.621	240
352.165	242
354.708	250
357.251	236
359.793	246
362.334	236
364.874	236
367.413	236
369.951	234
372.489	254
375.026	240
377.562	256
380.097	270
382.631	270
385.164	282
387.697	260
390.229	288
392.76	302
395.29	286
397.819	294
400.346	310
402.873	338
405.4	368
407.926	370
410.451	366
412.976	326
415.499	328
418.02	294
420.542	300
423.063	282
425.583	274
428.101	256
430.619	258
433.137	250
435.654	266
438.169	226
440.684	248
443.198	246
445.712	238
448.223	238
450.735	210
453.246	216
455.755	206
458.264	196
460.771	208
463.279	202
465.786	206
468.291	194
470.796	200
473.301	190
475.803	198
478.306	190
480.807	180
483.308	194
485.807	188
488.307	184
490.804	188
493.302	204
495.798	208
498.294	186
500.788	204
503.283	226
505.775	210
508.269	214
510.759	194
513.251	218
515.74	206
518.23	210
520.718	218
523.204	240
525.692	228
528.177	218
530.663	226
533.147	228
535.629	260
538.113	268
540.594	276
543.074	288
545.555	270
548.034	274
550.512	274
552.989	282
555.467	246
557.942	270
560.417	258
562.892	284
565.365	260
567.838	248
570.309	266
572.78	278
575.251	288
577.72	270
580.189	238
582.656	224
585.123	238
587.589	244
590.055	222
592.52	246
594.983	236
597.446	220
599.908	232
602.369	238
604.829	258
607.289	264
609.747	298
612.205	300
614.663	324
617.119	432
619.574	740
622.029	1132
624.483	984
626.936	540
629.389	356
631.84	298
634.291	260
636.741	252
639.19	232
641.639	202
644.086	200
646.533	188
648.979	176
651.424	184
653.869	186
656.313	202
658.754	190
661.196	176
663.638	182
666.078	180
668.518	184
670.957	194
673.394	186
675.831	178
678.268	184
680.703	178
683.137	188
685.571	188
688.005	196
690.437	192
692.868	188
695.299	208
697.729	204
700.159	220
702.586	228
705.014	228
707.441	244
709.866	228
712.292	228
714.716	238
717.14	238
719.563	242
721.984	242
724.406	316
726.825	330
729.246	306
731.665	294
734.082	292
736.5	300
738.916	354
741.332	366
743.746	394
746.161	400
748.574	400
750.987	414
753.398	436
755.81	444
758.219	472
760.629	486
763.037	502
765.445	482
767.852	464
770.258	460
772.664	426
775.068	436
777.472	422
779.876	436
782.278	470
784.679	522
787.08	570
789.48	624
791.879	658
794.278	706
796.675	708
799.072	702
801.467	630
803.864	564
806.258	486
808.651	448
811.044	432
813.437	392
815.828	360
818.218	328
820.608	318
822.997	300
825.385	284
827.773	276
830.16	282
832.546	278
834.931	310
837.315	316
839.699	366
842.081	410
844.463	390
846.844	386
849.226	360
851.606	332
853.985	330
856.363	306
858.741	304
861.117	334
863.493	324
865.868	326
868.243	306
870.616	318
872.989	310
875.36	318
877.731	312
880.102	320
882.472	310
884.841	308
887.209	296
889.577	302
891.944	290
894.31	286
896.674	296
899.039	314
901.403	342
903.766	350
906.128	382
908.49	368
910.849	368
913.209	358
915.569	316
917.927	286
920.284	296
922.641	258
924.997	282
927.353	278
929.707	286
932.061	280
934.414	274
936.765	280
939.117	280
941.469	282
943.818	292
946.167	276
948.515	298
950.863	264
953.211	276
955.556	298
957.902	284
960.246	282
962.59	336
964.933	344
967.276	342
969.617	338
971.958	344
974.298	382
976.638	382
978.976	430
981.314	502
983.651	558
985.988	668
988.323	784
990.659	1186
992.992	1722
995.325	1908
997.658	2330
999.99	4168
1002.32	6494
1004.65	6014
1006.98	3366
1009.31	1592
1011.64	872
1013.97	590
1016.29	492
1018.62	482
1020.94	530
1023.27	642
1025.59	834
1027.91	1200
1030.24	1664
1032.56	1956
1034.88	1876
1037.2	1448
1039.52	1030
1041.84	718
1044.15	580
1046.47	494
1048.79	458
1051.1	416
1053.42	434
1055.73	426
1058.04	400
1060.36	428
1062.67	446
1064.98	416
1067.29	446
1069.6	484
1071.91	466
1074.22	468
1076.52	464
1078.83	460
1081.14	458
1083.44	454
1085.75	414
1088.05	432
1090.35	430
1092.65	418
1094.95	446
1097.26	446
1099.56	468
1101.86	418
1104.15	424
1106.45	422
1108.75	362
1111.05	390
1113.34	356
1115.64	368
1117.93	324
1120.22	344
1122.52	318
1124.81	320
1127.1	276
1129.39	292
1131.68	292
1133.97	296
1136.26	296
1138.54	322
1140.83	334
1143.12	338
1145.4	400
1147.69	420
1149.97	508
1152.25	686
1154.54	912
1156.82	988
1159.1	896
1161.38	688
1163.66	598
1165.94	514
1168.22	508
1170.49	522
1172.77	576
1175.05	652
1177.32	790
1179.6	1030
1181.87	1186
1184.14	1238
1186.42	1150
1188.69	1052
1190.96	1120
1193.23	1150
1195.5	1218
1197.77	1238
1200.03	1238
1202.3	1192
1204.57	1112
1206.83	984
1209.1	866
1211.36	764
1213.63	650
1215.89	582
1218.15	528
1220.41	506
1222.67	476
1224.93	498
1227.19	472
1229.45	458
1231.71	408
1233.97	428
1236.22	422
1238.48	402
1240.73	404
1242.99	394
1245.24	400
1247.5	388
1249.75	376
1252	378
1254.25	388
1256.5	372
1258.75	374
1261	394
1263.25	372
1265.49	384
1267.74	386
1269.99	392
1272.23	356
1274.48	378
1276.72	374
1278.96	378
1281.21	380
1283.45	360
1285.69	374
1287.93	382
1290.17	404
1292.41	406
1294.64	394
1296.88	422
1299.12	446
1301.36	440
1303.59	458
1305.82	444
1308.06	446
1310.29	460
1312.52	464
1314.76	472
1316.99	488
1319.22	496
1321.45	538
1323.68	558
1325.9	532
1328.13	556
1330.36	554
1332.58	534
1334.81	548
1337.04	498
1339.26	480
1341.48	472
1343.71	474
1345.93	432
1348.15	420
1350.37	394
1352.59	414
1354.81	386
1357.03	410
1359.24	388
1361.46	400
1363.68	406
1365.89	412
1368.11	416
1370.32	402
1372.54	388
1374.75	392
1376.96	386
1379.17	376
1381.38	386
1383.59	348
1385.8	350
1388.01	328
1390.22	294
1392.43	300
1394.63	284
1396.84	300
1399.05	316
1401.25	292
1403.45	300
1405.66	310
1407.86	314
1410.06	300
1412.26	292
1414.46	300
1416.66	288
1418.86	324
1421.06	294
1423.26	296
1425.46	302
1427.65	300
1429.85	328
1432.04	350
1434.24	374
1436.43	392
1438.62	428
1440.82	472
1443.01	520
1445.2	554
1447.39	620
1449.58	640
1451.77	636
1453.95	622
1456.14	540
1458.33	466
1460.52	392
1462.7	374
1464.89	340
1467.07	326
1469.25	346
1471.44	312
1473.62	312
1475.8	310
1477.98	298
1480.16	308
1482.34	298
1484.52	294
1486.7	312
1488.87	300
1491.05	324
1493.23	314
1495.4	310
1497.58	314
1499.75	306
1501.92	306
1504.1	308
1506.27	312
1508.44	308
1510.61	290
1512.78	298
1514.95	298
1517.12	284
1519.28	292
1521.45	296
1523.62	306
1525.78	300
1527.95	310
1530.11	290
1532.28	308
1534.44	290
1536.6	296
1538.76	314
1540.93	308
1543.09	326
1545.25	312
1547.41	298
1549.56	316
1551.72	318
1553.88	324
1556.03	302
1558.19	336
1560.35	326
1562.5	328
1564.65	344
1566.81	346
1568.96	362
1571.11	386
1573.26	400
1575.41	460
1577.56	502
1579.71	610
1581.86	840
1584.01	1030
1586.15	966
1588.3	746
1590.45	642
1592.59	628
1594.74	718
1596.88	938
1599.02	1254
1601.17	1688
1603.31	1940
1605.45	1672
1607.59	1330
1609.73	958
1611.87	696
1614.01	576
1616.14	528
1618.28	464
1620.42	412
1622.55	414
1624.69	400
1626.82	372
1628.96	382
1631.09	368
1633.22	380
1635.36	354
1637.49	350
1639.62	370
1641.75	364
1643.88	368
1646	370
1648.13	380
1650.26	388
1652.39	368
1654.51	348
1656.64	344
1658.76	306
1660.89	324
1663.01	320
1665.13	308
1667.26	312
1669.38	312
1671.5	310
1673.62	328
1675.74	332
1677.86	342
1679.97	334
1682.09	316
1684.21	332
1686.33	310
1688.44	336
1690.56	320
1692.67	318
1694.78	330
1696.9	308
1699.01	296
1701.12	336
1703.23	296
1705.34	314
1707.45	322
1709.56	306
1711.67	286
1713.78	294
1715.88	316
1717.99	324
1720.1	324
1722.2	316
1724.31	312
1726.41	310
1728.51	324
1730.62	306
1732.72	312
1734.82	316
1736.92	328
1739.02	320
1741.12	306
1743.22	308
1745.32	304
1747.42	322
1749.51	324
1751.61	324
1753.7	312
1755.8	302
1757.89	316
1759.99	298
1762.08	322
1764.17	326
1766.26	330
1768.36	306
1770.45	324
1772.54	314
1774.62	306
1776.71	330
1778.8	330
1780.89	316
1782.98	312
1785.06	328
1787.15	308
1789.23	324
1791.32	310
1793.4	306
1795.48	340
1797.56	326
1799.65	320
1801.73	326
1803.81	316
1805.89	326
1807.97	306
1810.04	332
1812.12	334
1814.2	304
1816.28	344
1818.35	340
1820.43	340
1822.5	318
1824.58	338
1826.65	320
1828.72	318
1830.79	330
1832.86	318
1834.94	328
1837.01	324
1839.08	310
1841.15	308
1843.21	320
1845.28	334
1847.35	338
1849.41	324
1851.48	322
1853.55	316
1855.61	316
1857.67	326
1859.74	322
1861.8	336
1863.86	298
1865.92	326
1867.98	316
1870.05	332
1872.1	332
1874.16	316
1876.22	318
1878.28	320
1880.34	322
1882.39	340
1884.45	344
1886.5	344
1888.56	328
1890.61	330
1892.67	322
1894.72	332
1896.77	344
1898.82	334
1900.87	348
1902.92	342
1904.97	328
1907.02	360
1909.07	334
1911.12	326
1913.17	350
1915.21	328
1917.26	328
1919.3	354
1921.35	366
1923.39	334
1925.43	334
1927.48	330
1929.52	362
1931.56	336
1933.6	352
1935.64	358
1937.68	326
1939.72	338
1941.76	342
1943.8	318
1945.83	324
1947.87	316
1949.91	330
1951.94	340
1953.98	340
1956.01	318
1958.05	334
1960.08	334
1962.11	326
1964.14	352
1966.17	334
1968.2	334
1970.23	336
1972.26	358
1974.29	330
1976.32	344
1978.35	332
1980.37	336
1982.4	330
1984.43	348
1986.45	352
1988.48	330
1990.5	342
1992.52	346
1994.55	350
1996.57	332
1998.59	344
2000.61	330
2002.63	356
2004.65	322
2006.67	352
2008.69	348
2010.7	338
2012.72	366
2014.74	342
2016.75	328
2018.77	348
2020.78	354
2022.8	346
2024.81	362
2026.83	348
2028.84	358
2030.85	354
2032.86	342
2034.87	346
2036.88	348
2038.89	340
2040.9	356
2042.91	328
2044.91	360
2046.92	352
2048.93	342
2050.93	340
2052.94	368
2054.94	366
2056.95	362
2058.95	334
2060.95	350
2062.95	358
2064.96	354
2066.96	338
2068.96	368
2070.96	348
2072.96	336
2074.95	334
2076.95	372
2078.95	350
2080.95	368
2082.94	366
2084.94	350
2086.93	352
2088.93	372
2090.92	350
2092.91	326
2094.91	342
2096.9	364
2098.89	352
2100.88	324
2102.87	352
2104.86	354
2106.85	358
2108.84	358
2110.83	368
2112.81	358
2114.8	364
2116.78	346
2118.77	342
2120.75	364
2122.74	362
2124.72	362
2126.71	354
2128.69	374
2130.67	362
2132.65	364
2134.63	350
2136.61	354
2138.59	358
2140.57	360
2142.55	358
2144.53	354
2146.5	364
2148.48	336
2150.46	336
2152.43	362
2154.41	336
2156.38	360
2158.35	380
2160.33	364
2162.3	376
2164.27	354
2166.24	372
2168.21	374
2170.18	348
2172.15	362
2174.12	352
2176.09	382
2178.06	334
2180.03	364
2181.99	370
2183.96	382
2185.92	368
2187.89	362
2189.85	360
2191.82	352
2193.78	348
2195.74	370
2197.7	348
2199.67	364
2201.63	358
2203.59	362
2205.55	368
2207.51	374
2209.46	372
2211.42	366
2213.38	354
2215.34	346
2217.29	350
2219.25	368
2221.2	346
2223.16	362
2225.11	360
2227.06	364
2229.02	360
2230.97	368
2232.92	340
2234.87	370
2236.82	364
2238.77	370
2240.72	372
2242.67	358
2244.62	358
2246.57	368
2248.51	370
2250.46	362
2252.4	356
2254.35	374
2256.29	354
2258.24	364
2260.18	366
2262.13	344
2264.07	352
2266.01	358
2267.95	368
2269.89	350
2271.83	366
2273.77	372
2275.71	368
2277.65	376
2279.58	358
2281.52	364
2283.46	368
2285.4	370
2287.33	372
2289.27	366
2291.2	346
2293.13	348
2295.07	350
2297	374
2298.93	360
2300.86	374
2302.79	370
2304.72	364
2306.65	356
2308.58	338
2310.51	376
2312.44	360
2314.37	386
2316.29	374
2318.22	370
2320.15	378
2322.07	362
2324	374
2325.92	362
2327.84	382
2329.77	388
2331.69	370
2333.61	364
2335.53	358
2337.45	366
2339.37	378
2341.29	364
2343.21	374
2345.13	370
2347.05	366
2348.97	368
2350.88	352
2352.8	372
2354.71	388
2356.63	362
2358.54	376
2360.46	372
2362.37	354
2364.28	376
2366.2	368
2368.11	372
2370.02	340
2371.93	364
2373.84	372
2375.75	368
2377.66	366
2379.57	372
2381.47	360
2383.38	358
2385.29	380
2387.2	376
2389.1	362
2391.01	364
2392.91	376
2394.81	378
2396.72	364
2398.62	354
2400.52	366
2402.42	362
2404.33	372
2406.23	346
2408.13	366
2410.03	348
2411.92	370
2413.82	398
2415.72	374
2417.62	376
2419.51	378
2421.41	362
2423.31	372
2425.2	392
2427.1	376
2428.99	382
2430.88	362
2432.78	378
2434.67	390
2436.56	384
2438.45	370
2440.34	380
2442.23	380
2444.12	392
2446.01	396
2447.9	384
2449.79	384