File: Mixture_Classification/Jesse_Dataset_v2/Pure Raman/Polystyrene/633nm/ps-ppo-7jan25-1,0000-map3_Y04_X05.txt
182.393	1002
184.993	1000
187.593	970
190.193	980
192.79	940
195.387	920
197.983	880
200.578	952
203.174	920
205.766	950
208.36	974
210.951	990
213.542	1054
216.131	1048
218.721	1066
221.309	1080
223.897	1032
226.483	1036
229.069	972
231.654	920
234.238	832
236.821	746
239.404	678
241.984	600
244.566	512
247.145	442
249.723	410
252.302	388
254.878	366
257.455	354
260.03	330
262.604	342
265.178	334
267.75	320
270.322	318
272.893	328
275.463	322
278.032	304
280.601	278
283.168	278
285.734	282
288.301	260
290.866	262
293.429	242
295.992	244
298.556	230
301.117	214
303.677	226
306.236	230
308.795	226
311.354	232
313.911	234
316.467	228
319.022	222
321.577	234
324.13	228
326.684	240
329.236	230
331.787	224
334.337	218
336.887	228
339.435	220
341.983	214
344.529	230
347.075	224
349.621	216
352.165	222
354.708	218
357.251	196
359.793	188
362.334	208
364.874	206
367.413	218
369.951	214
372.489	218
375.026	224
377.562	240
380.097	240
382.631	250
385.164	240
387.697	250
390.229	256
392.76	266
395.29	270
397.819	300
400.346	294
402.873	314
405.4	338
407.926	346
410.451	334
412.976	316
415.499	278
418.02	260
420.542	256
423.063	250
425.583	246
428.101	220
430.619	240
433.137	222
435.654	228
438.169	220
440.684	206
443.198	198
445.712	210
448.223	200
450.735	198
453.246	206
455.755	192
458.264	178
460.771	176
463.279	172
465.786	172
468.291	178
470.796	184
473.301	174
475.803	166
478.306	172
480.807	176
483.308	164
485.807	168
488.307	160
490.804	170
493.302	172
495.798	156
498.294	172
500.788	176
503.283	182
505.775	192
508.269	172
510.759	190
513.251	184
515.74	192
518.23	190
520.718	184
523.204	192
525.692	200
528.177	204
530.663	202
533.147	222
535.629	238
538.113	242
540.594	250
543.074	232
545.555	268
548.034	242
550.512	224
552.989	240
555.467	230
557.942	236
560.417	244
562.892	236
565.365	246
567.838	246
570.309	242
572.78	252
575.251	238
577.72	228
580.189	240
582.656	224
585.123	202
587.589	210
590.055	196
592.52	192
594.983	208
597.446	222
599.908	212
602.369	216
604.829	224
607.289	262
609.747	266
612.205	294
614.663	306
617.119	416
619.574	706
622.029	1144
624.483	982
626.936	538
629.389	330
631.84	272
634.291	238
636.741	216
639.19	204
641.639	192
644.086	192
646.533	174
648.979	176
651.424	174
653.869	174
656.313	168
658.754	162
661.196	160
663.638	146
666.078	166
668.518	164
670.957	170
673.394	166
675.831	160
678.268	154
680.703	156
683.137	178
685.571	168
688.005	170
690.437	168
692.868	168
695.299	182
697.729	184
700.159	196
702.586	194
705.014	220
707.441	208
709.866	212
712.292	196
714.716	216
717.14	214
719.563	214
721.984	246
724.406	288
726.825	286
729.246	286
731.665	272
734.082	284
736.5	284
738.916	334
741.332	352
743.746	388
746.161	390
748.574	386
750.987	406
753.398	438
755.81	450
758.219	456
760.629	484
763.037	464
765.445	454
767.852	434
770.258	420
772.664	414
775.068	410
777.472	420
779.876	414
782.278	458
784.679	492
787.08	558
789.48	608
791.879	628
794.278	660
796.675	688
799.072	676
801.467	634
803.864	554
806.258	478
808.651	420
811.044	400
813.437	372
815.828	346
818.218	310
820.608	300
822.997	272
825.385	260
827.773	248
830.16	260
832.546	278
834.931	284
837.315	302
839.699	334
842.081	366
844.463	364
846.844	360
849.226	332
851.606	300
853.985	308
856.363	302
858.741	306
861.117	286
863.493	290
865.868	300
868.243	294
870.616	310
872.989	296
875.36	304
877.731	284
880.102	272
882.472	270
884.841	268
887.209	276
889.577	266
891.944	270
894.31	274
896.674	290
899.039	300
901.403	320
903.766	334
906.128	338
908.49	354
910.849	352
913.209	312
915.569	294
917.927	272
920.284	262
922.641	262
924.997	252
927.353	264
929.707	252
932.061	248
934.414	248
936.765	238
939.117	228
941.469	254
943.818	254
946.167	264
948.515	248
950.863	268
953.211	266
955.556	276
957.902	250
960.246	286
962.59	300
964.933	312
967.276	322
969.617	330
971.958	330
974.298	318
976.638	352
978.976	382
981.314	458
983.651	544
985.988	610
988.323	760
990.659	1172
992.992	1730
995.325	1896
997.658	2308
999.99	4326
1002.32	6518
1004.65	6142
1006.98	3420
1009.31	1554
1011.64	836
1013.97	564
1016.29	482
1018.62	456
1020.94	480
1023.27	600
1025.59	860
1027.91	1190
1030.24	1630
1032.56	1964
1034.88	1878
1037.2	1392
1039.52	968
1041.84	692
1044.15	552
1046.47	464
1048.79	442
1051.1	402
1053.42	386
1055.73	388
1058.04	382
1060.36	398
1062.67	390
1064.98	410
1067.29	410
1069.6	432
1071.91	428
1074.22	442
1076.52	426
1078.83	426
1081.14	406
1083.44	414
1085.75	406
1088.05	428
1090.35	400
1092.65	404
1094.95	400
1097.26	422
1099.56	428
1101.86	408
1104.15	402
1106.45	362
1108.75	362
1111.05	344
1113.34	304
1115.64	310
1117.93	316
1120.22	282
1122.52	290
1124.81	274
1127.1	258
1129.39	260
1131.68	262
1133.97	262
1136.26	276
1138.54	312
1140.83	288
1143.12	336
1145.4	358
1147.69	408
1149.97	474
1152.25	642
1154.54	878
1156.82	984
1159.1	882
1161.38	678
1163.66	548
1165.94	484
1168.22	486
1170.49	498
1172.77	518
1175.05	590
1177.32	752
1179.6	946
1181.87	1166
1184.14	1156
1186.42	1074
1188.69	1016
1190.96	1054
1193.23	1124
1195.5	1172
1197.77	1230
1200.03	1210
1202.3	1102
1204.57	1072
1206.83	980
1209.1	834
1211.36	702
1213.63	594
1215.89	552
1218.15	498
1220.41	486
1222.67	458
1224.93	440
1227.19	444
1229.45	420
1231.71	394
1233.97	392
1236.22	378
1238.48	356
1240.73	358
1242.99	354
1245.24	362
1247.5	334
1249.75	352
1252	322
1254.25	342
1256.5	332
1258.75	340
1261	330
1263.25	350
1265.49	344
1267.74	332
1269.99	346
1272.23	324
1274.48	330
1276.72	332
1278.96	348
1281.21	324
1283.45	330
1285.69	342
1287.93	338
1290.17	354
1292.41	358
1294.64	364
1296.88	374
1299.12	368
1301.36	412
1303.59	384
1305.82	412
1308.06	388
1310.29	390
1312.52	400
1314.76	418
1316.99	430
1319.22	450
1321.45	472
1323.68	504
1325.9	514
1328.13	520
1330.36	518
1332.58	504
1334.81	488
1337.04	472
1339.26	440
1341.48	424
1343.71	418
1345.93	366
1348.15	376
1350.37	358
1352.59	358
1354.81	376
1357.03	350
1359.24	348
1361.46	362
1363.68	352
1365.89	358
1368.11	372
1370.32	350
1372.54	364
1374.75	350
1376.96	368
1379.17	344
1381.38	324
1383.59	314
1385.8	306
1388.01	292
1390.22	264
1392.43	268
1394.63	254
1396.84	266
1399.05	250
1401.25	262
1403.45	248
1405.66	264
1407.86	260
1410.06	244
1412.26	250
1414.46	240
1416.66	254
1418.86	250
1421.06	242
1423.26	244
1425.46	258
1427.65	244
1429.85	264
1432.04	274
1434.24	286
1436.43	338
1438.62	380
1440.82	424
1443.01	468
1445.2	496
1447.39	560
1449.58	598
1451.77	582
1453.95	576
1456.14	528
1458.33	418
1460.52	340
1462.7	316
1464.89	318
1467.07	274
1469.25	272
1471.44	272
1473.62	250
1475.8	252
1477.98	252
1480.16	274
1482.34	250
1484.52	254
1486.7	250
1488.87	262
1491.05	264
1493.23	280
1495.4	262
1497.58	262
1499.75	256
1501.92	246
1504.1	254
1506.27	250
1508.44	254
1510.61	270
1512.78	248
1514.95	250
1517.12	254
1519.28	254
1521.45	258
1523.62	250
1525.78	246
1527.95	250
1530.11	244
1532.28	272
1534.44	252
1536.6	262
1538.76	250
1540.93	252
1543.09	266
1545.25	248
1547.41	272
1549.56	256
1551.72	274
1553.88	272
1556.03	284
1558.19	268
1560.35	286
1562.5	270
1564.65	300
1566.81	304
1568.96	310
1571.11	330
1573.26	354
1575.41	402
1577.56	452
1579.71	550
1581.86	736
1584.01	940
1586.15	874
1588.3	698
1590.45	568
1592.59	598
1594.74	680
1596.88	836
1599.02	1206
1601.17	1652
1603.31	1846
1605.45	1680
1607.59	1274
1609.73	898
1611.87	676
1614.01	534
1616.14	460
1618.28	398
1620.42	382
1622.55	372
1624.69	330
1626.82	348
1628.96	320
1631.09	318
1633.22	310
1635.36	298
1637.49	304
1639.62	304
1641.75	314
1643.88	300
1646	320
1648.13	344
1650.26	310
1652.39	324
1654.51	320
1656.64	280
1658.76	288
1660.89	266
1663.01	284
1665.13	272
1667.26	262
1669.38	282
1671.5	256
1673.62	272
1675.74	264
1677.86	262
1679.97	268
1682.09	258
1684.21	276
1686.33	286
1688.44	286
1690.56	282
1692.67	264
1694.78	276
1696.9	266
1699.01	276
1701.12	264
1703.23	256
1705.34	256
1707.45	288
1709.56	268
1711.67	256
1713.78	258
1715.88	254
1717.99	258
1720.1	258
1722.2	268
1724.31	256
1726.41	278
1728.51	280
1730.62	256
1732.72	248
1734.82	264
1736.92	252
1739.02	256
1741.12	270
1743.22	262
1745.32	248
1747.42	250
1749.51	284
1751.61	264
1753.7	272
1755.8	264
1757.89	256
1759.99	276
1762.08	264
1764.17	252
1766.26	258
1768.36	260
1770.45	268
1772.54	264
1774.62	268
1776.71	266
1778.8	262
1780.89	268
1782.98	254
1785.06	276
1787.15	274
1789.23	254
1791.32	270
1793.4	264
1795.48	274
1797.56	280
1799.65	272
1801.73	268
1803.81	276
1805.89	272
1807.97	286
1810.04	278
1812.12	292
1814.2	270
1816.28	282
1818.35	268
1820.43	288
1822.5	272
1824.58	286
1826.65	276
1828.72	284
1830.79	272
1832.86	288
1834.94	274
1837.01	284
1839.08	276
1841.15	290
1843.21	284
1845.28	260
1847.35	266
1849.41	252
1851.48	244
1853.55	290
1855.61	280
1857.67	268
1859.74	282
1861.8	280
1863.86	264
1865.92	280
1867.98	270
1870.05	282
1872.1	282
1874.16	270
1876.22	284
1878.28	272
1880.34	270
1882.39	286
1884.45	276
1886.5	282
1888.56	276
1890.61	296
1892.67	274
1894.72	278
1896.77	278
1898.82	298
1900.87	298
1902.92	288
1904.97	284
1907.02	294
1909.07	290
1911.12	296
1913.17	280
1915.21	296
1917.26	302
1919.3	296
1921.35	292
1923.39	318
1925.43	294
1927.48	294
1929.52	272
1931.56	298
1933.6	290
1935.64	276
1937.68	306
1939.72	284
1941.76	286
1943.8	296
1945.83	290
1947.87	286
1949.91	290
1951.94	308
1953.98	270
1956.01	298
1958.05	288
1960.08	312
1962.11	308
1964.14	296
1966.17	310
1968.2	288
1970.23	290
1972.26	284
1974.29	264
1976.32	294
1978.35	272
1980.37	290
1982.4	298
1984.43	290
1986.45	282
1988.48	310
1990.5	302
1992.52	300
1994.55	282
1996.57	288
1998.59	282
2000.61	294
2002.63	276
2004.65	314
2006.67	306
2008.69	302
2010.7	296
2012.72	308
2014.74	298
2016.75	308
2018.77	308
2020.78	280
2022.8	308
2024.81	284
2026.83	300
2028.84	288
2030.85	298
2032.86	326
2034.87	286
2036.88	306
2038.89	298
2040.9	306
2042.91	300
2044.91	296
2046.92	302
2048.93	316
2050.93	298
2052.94	320
2054.94	300
2056.95	294
2058.95	298
2060.95	308
2062.95	310
2064.96	310
2066.96	308
2068.96	318
2070.96	316
2072.96	312
2074.95	294
2076.95	316
2078.95	312
2080.95	310
2082.94	316
2084.94	316
2086.93	308
2088.93	296
2090.92	306
2092.91	308
2094.91	318
2096.9	314
2098.89	286
2100.88	320
2102.87	288
2104.86	316
2106.85	326
2108.84	296
2110.83	298
2112.81	316
2114.8	310
2116.78	316
2118.77	322
2120.75	312
2122.74	296
2124.72	312
2126.71	306
2128.69	302
2130.67	324
2132.65	320
2134.63	316
2136.61	322
2138.59	312
2140.57	314
2142.55	308
2144.53	310
2146.5	324
2148.48	308
2150.46	330
2152.43	322
2154.41	310
2156.38	318
2158.35	310
2160.33	306
2162.3	286
2164.27	324
2166.24	318
2168.21	286
2170.18	304
2172.15	314
2174.12	328
2176.09	324
2178.06	318
2180.03	308
2181.99	314
2183.96	296
2185.92	322
2187.89	320
2189.85	318
2191.82	330
2193.78	324
2195.74	332
2197.7	310
2199.67	318
2201.63	332
2203.59	340
2205.55	326
2207.51	324
2209.46	318
2211.42	318
2213.38	322
2215.34	316
2217.29	306
2219.25	320
2221.2	324
2223.16	320
2225.11	324
2227.06	318
2229.02	332
2230.97	326
2232.92	312
2234.87	326
2236.82	328
2238.77	306
2240.72	322
2242.67	332
2244.62	324
2246.57	318
2248.51	316
2250.46	322
2252.4	330
2254.35	318
2256.29	332
2258.24	316
2260.18	330
2262.13	302
2264.07	334
2266.01	324
2267.95	334
2269.89	336
2271.83	340
2273.77	314
2275.71	334
2277.65	338
2279.58	320
2281.52	332
2283.46	322
2285.4	328
2287.33	316
2289.27	324
2291.2	326
2293.13	332
2295.07	324
2297	318
2298.93	344
2300.86	330
2302.79	352
2304.72	350
2306.65	342
2308.58	330
2310.51	328
2312.44	328
2314.37	336
2316.29	336
2318.22	316
2320.15	336
2322.07	350
2324	330
2325.92	330
2327.84	334
2329.77	312
2331.69	336
2333.61	346
2335.53	318
2337.45	324
2339.37	302
2341.29	336
2343.21	344
2345.13	330
2347.05	320
2348.97	346
2350.88	342
2352.8	340
2354.71	324
2356.63	350
2358.54	324
2360.46	350
2362.37	362
2364.28	346
2366.2	332
2368.11	328
2370.02	362
2371.93	334
2373.84	332
2375.75	346
2377.66	340
2379.57	336
2381.47	334
2383.38	352
2385.29	336
2387.2	334
2389.1	342
2391.01	336
2392.91	354
2394.81	352
2396.72	336
2398.62	330
2400.52	310
2402.42	330
2404.33	324
2406.23	344
2408.13	344
2410.03	332
2411.92	342
2413.82	356
2415.72	334
2417.62	336
2419.51	332
2421.41	336
2423.31	340
2425.2	354
2427.1	332
2428.99	340
2430.88	358
2432.78	350
2434.67	354
2436.56	354
2438.45	352
2440.34	348
2442.23	328
2444.12	340
2446.01	342
2447.9	350
2449.79	364