File: Mixture_Classification/Jesse_Dataset_v2/Pure Raman/Polystyrene/633nm/ps-ppo-7jan25-1,0000-map3_Y02_X08.txt
182.393	1064
184.993	946
187.593	1012
190.193	954
192.79	964
195.387	958
197.983	912
200.578	938
203.174	940
205.766	960
208.36	1018
210.951	1028
213.542	1070
216.131	1072
218.721	1066
221.309	1060
223.897	1096
226.483	1074
229.069	980
231.654	940
234.238	854
236.821	740
239.404	694
241.984	620
244.566	544
247.145	494
249.723	436
252.302	422
254.878	386
257.455	380
260.03	370
262.604	368
265.178	342
267.75	346
270.322	326
272.893	312
275.463	318
278.032	330
280.601	322
283.168	332
285.734	290
288.301	286
290.866	284
293.429	284
295.992	266
298.556	232
301.117	244
303.677	252
306.236	242
308.795	246
311.354	248
313.911	238
316.467	244
319.022	240
321.577	248
324.13	232
326.684	252
329.236	252
331.787	258
334.337	246
336.887	248
339.435	258
341.983	256
344.529	246
347.075	250
349.621	246
352.165	220
354.708	238
357.251	232
359.793	234
362.334	224
364.874	230
367.413	232
369.951	228
372.489	244
375.026	244
377.562	240
380.097	260
382.631	250
385.164	274
387.697	268
390.229	274
392.76	280
395.29	282
397.819	288
400.346	306
402.873	314
405.4	344
407.926	352
410.451	356
412.976	342
415.499	314
418.02	294
420.542	294
423.063	260
425.583	274
428.101	262
430.619	254
433.137	230
435.654	244
438.169	230
440.684	230
443.198	232
445.712	220
448.223	216
450.735	224
453.246	216
455.755	198
458.264	196
460.771	198
463.279	190
465.786	200
468.291	210
470.796	202
473.301	196
475.803	194
478.306	198
480.807	190
483.308	180
485.807	198
488.307	202
490.804	188
493.302	200
495.798	186
498.294	184
500.788	210
503.283	220
505.775	218
508.269	216
510.759	228
513.251	194
515.74	232
518.23	218
520.718	208
523.204	208
525.692	212
528.177	218
530.663	234
533.147	244
535.629	254
538.113	292
540.594	278
543.074	260
545.555	286
548.034	288
550.512	280
552.989	280
555.467	272
557.942	268
560.417	264
562.892	266
565.365	266
567.838	258
570.309	258
572.78	264
575.251	262
577.72	284
580.189	252
582.656	240
585.123	232
587.589	234
590.055	234
592.52	216
594.983	232
597.446	228
599.908	222
602.369	244
604.829	260
607.289	284
609.747	296
612.205	306
614.663	328
617.119	432
619.574	718
622.029	1092
624.483	1012
626.936	554
629.389	372
631.84	302
634.291	270
636.741	240
639.19	226
641.639	222
644.086	210
646.533	196
648.979	200
651.424	190
653.869	202
656.313	174
658.754	198
661.196	190
663.638	192
666.078	208
668.518	186
670.957	188
673.394	182
675.831	192
678.268	188
680.703	188
683.137	190
685.571	186
688.005	182
690.437	202
692.868	200
695.299	210
697.729	200
700.159	208
702.586	232
705.014	246
707.441	240
709.866	228
712.292	224
714.716	228
717.14	234
719.563	242
721.984	262
724.406	312
726.825	330
729.246	310
731.665	280
734.082	298
736.5	320
738.916	342
741.332	376
743.746	384
746.161	412
748.574	394
750.987	414
753.398	432
755.81	452
758.219	460
760.629	474
763.037	484
765.445	484
767.852	468
770.258	444
772.664	446
775.068	434
777.472	426
779.876	428
782.278	470
784.679	502
787.08	566
789.48	632
791.879	658
794.278	682
796.675	696
799.072	688
801.467	624
803.864	538
806.258	482
808.651	450
811.044	420
813.437	394
815.828	360
818.218	312
820.608	312
822.997	296
825.385	276
827.773	274
830.16	284
832.546	268
834.931	306
837.315	316
839.699	348
842.081	380
844.463	376
846.844	378
849.226	334
851.606	326
853.985	320
856.363	314
858.741	302
861.117	312
863.493	302
865.868	310
868.243	296
870.616	304
872.989	310
875.36	300
877.731	286
880.102	304
882.472	304
884.841	292
887.209	296
889.577	272
891.944	284
894.31	268
896.674	288
899.039	306
901.403	318
903.766	348
906.128	368
908.49	370
910.849	366
913.209	334
915.569	304
917.927	288
920.284	274
922.641	276
924.997	268
927.353	252
929.707	254
932.061	238
934.414	260
936.765	260
939.117	268
941.469	274
943.818	278
946.167	266
948.515	272
950.863	254
953.211	268
955.556	266
957.902	284
960.246	268
962.59	290
964.933	322
967.276	322
969.617	334
971.958	332
974.298	332
976.638	348
978.976	410
981.314	448
983.651	498
985.988	618
988.323	800
990.659	1156
992.992	1666
995.325	1910
997.658	2316
999.99	4122
1002.32	6634
1004.65	6058
1006.98	3412
1009.31	1534
1011.64	850
1013.97	590
1016.29	492
1018.62	470
1020.94	512
1023.27	658
1025.59	826
1027.91	1128
1030.24	1598
1032.56	1962
1034.88	1848
1037.2	1420
1039.52	978
1041.84	700
1044.15	564
1046.47	494
1048.79	450
1051.1	422
1053.42	384
1055.73	390
1058.04	388
1060.36	396
1062.67	398
1064.98	414
1067.29	442
1069.6	452
1071.91	454
1074.22	432
1076.52	446
1078.83	430
1081.14	442
1083.44	430
1085.75	446
1088.05	428
1090.35	418
1092.65	404
1094.95	408
1097.26	438
1099.56	434
1101.86	420
1104.15	404
1106.45	366
1108.75	362
1111.05	348
1113.34	334
1115.64	344
1117.93	318
1120.22	312
1122.52	288
1124.81	282
1127.1	276
1129.39	254
1131.68	282
1133.97	276
1136.26	302
1138.54	308
1140.83	308
1143.12	332
1145.4	370
1147.69	404
1149.97	498
1152.25	656
1154.54	868
1156.82	970
1159.1	864
1161.38	704
1163.66	574
1165.94	526
1168.22	484
1170.49	504
1172.77	526
1175.05	656
1177.32	766
1179.6	966
1181.87	1166
1184.14	1162
1186.42	1098
1188.69	1058
1190.96	1040
1193.23	1138
1195.5	1204
1197.77	1214
1200.03	1162
1202.3	1136
1204.57	1052
1206.83	962
1209.1	854
1211.36	728
1213.63	642
1215.89	562
1218.15	508
1220.41	488
1222.67	476
1224.93	466
1227.19	448
1229.45	422
1231.71	422
1233.97	370
1236.22	374
1238.48	386
1240.73	390
1242.99	378
1245.24	378
1247.5	358
1249.75	370
1252	356
1254.25	358
1256.5	344
1258.75	338
1261	338
1263.25	368
1265.49	348
1267.74	346
1269.99	348
1272.23	346
1274.48	360
1276.72	346
1278.96	366
1281.21	354
1283.45	348
1285.69	366
1287.93	354
1290.17	364
1292.41	376
1294.64	380
1296.88	390
1299.12	404
1301.36	400
1303.59	428
1305.82	424
1308.06	428
1310.29	432
1312.52	436
1314.76	450
1316.99	464
1319.22	460
1321.45	510
1323.68	508
1325.9	538
1328.13	526
1330.36	552
1332.58	518
1334.81	510
1337.04	494
1339.26	454
1341.48	440
1343.71	412
1345.93	392
1348.15	398
1350.37	374
1352.59	364
1354.81	362
1357.03	378
1359.24	382
1361.46	368
1363.68	374
1365.89	368
1368.11	362
1370.32	374
1372.54	380
1374.75	362
1376.96	376
1379.17	380
1381.38	362
1383.59	340
1385.8	310
1388.01	312
1390.22	274
1392.43	280
1394.63	280
1396.84	278
1399.05	284
1401.25	294
1403.45	274
1405.66	294
1407.86	274
1410.06	274
1412.26	274
1414.46	268
1416.66	262
1418.86	270
1421.06	278
1423.26	280
1425.46	256
1427.65	266
1429.85	286
1432.04	278
1434.24	326
1436.43	374
1438.62	406
1440.82	438
1443.01	486
1445.2	546
1447.39	550
1449.58	612
1451.77	628
1453.95	588
1456.14	538
1458.33	478
1460.52	404
1462.7	354
1464.89	326
1467.07	306
1469.25	296
1471.44	280
1473.62	294
1475.8	282
1477.98	296
1480.16	284
1482.34	282
1484.52	280
1486.7	268
1488.87	280
1491.05	290
1493.23	306
1495.4	306
1497.58	306
1499.75	290
1501.92	276
1504.1	270
1506.27	266
1508.44	258
1510.61	254
1512.78	270
1514.95	276
1517.12	264
1519.28	260
1521.45	270
1523.62	280
1525.78	270
1527.95	270
1530.11	278
1532.28	276
1534.44	288
1536.6	260
1538.76	280
1540.93	282
1543.09	278
1545.25	282
1547.41	264
1549.56	284
1551.72	278
1553.88	290
1556.03	290
1558.19	292
1560.35	290
1562.5	298
1564.65	326
1566.81	308
1568.96	362
1571.11	372
1573.26	372
1575.41	402
1577.56	466
1579.71	612
1581.86	818
1584.01	980
1586.15	908
1588.3	712
1590.45	612
1592.59	618
1594.74	680
1596.88	878
1599.02	1202
1601.17	1670
1603.31	1858
1605.45	1722
1607.59	1314
1609.73	918
1611.87	694
1614.01	560
1616.14	500
1618.28	412
1620.42	398
1622.55	390
1624.69	378
1626.82	350
1628.96	336
1631.09	340
1633.22	326
1635.36	308
1637.49	316
1639.62	340
1641.75	332
1643.88	340
1646	350
1648.13	346
1650.26	320
1652.39	354
1654.51	322
1656.64	306
1658.76	300
1660.89	316
1663.01	292
1665.13	298
1667.26	304
1669.38	308
1671.5	298
1673.62	280
1675.74	290
1677.86	300
1679.97	296
1682.09	304
1684.21	294
1686.33	304
1688.44	292
1690.56	290
1692.67	296
1694.78	296
1696.9	290
1699.01	280
1701.12	284
1703.23	308
1705.34	276
1707.45	286
1709.56	288
1711.67	300
1713.78	276
1715.88	300
1717.99	292
1720.1	286
1722.2	290
1724.31	282
1726.41	290
1728.51	292
1730.62	286
1732.72	282
1734.82	274
1736.92	276
1739.02	298
1741.12	286
1743.22	290
1745.32	280
1747.42	300
1749.51	290
1751.61	288
1753.7	282
1755.8	306
1757.89	282
1759.99	282
1762.08	282
1764.17	282
1766.26	276
1768.36	274
1770.45	302
1772.54	280
1774.62	302
1776.71	284
1778.8	288
1780.89	290
1782.98	286
1785.06	298
1787.15	298
1789.23	290
1791.32	284
1793.4	296
1795.48	310
1797.56	312
1799.65	276
1801.73	296
1803.81	288
1805.89	304
1807.97	302
1810.04	310
1812.12	298
1814.2	304
1816.28	298
1818.35	298
1820.43	296
1822.5	296
1824.58	302
1826.65	290
1828.72	296
1830.79	306
1832.86	290
1834.94	292
1837.01	294
1839.08	302
1841.15	284
1843.21	292
1845.28	282
1847.35	300
1849.41	306
1851.48	306
1853.55	304
1855.61	306
1857.67	292
1859.74	290
1861.8	298
1863.86	292
1865.92	300
1867.98	298
1870.05	296
1872.1	312
1874.16	298
1876.22	300
1878.28	308
1880.34	306
1882.39	304
1884.45	294
1886.5	298
1888.56	310
1890.61	304
1892.67	290
1894.72	280
1896.77	316
1898.82	280
1900.87	312
1902.92	320
1904.97	308
1907.02	316
1909.07	308
1911.12	310
1913.17	308
1915.21	314
1917.26	302
1919.3	326
1921.35	316
1923.39	312
1925.43	316
1927.48	330
1929.52	308
1931.56	332
1933.6	318
1935.64	326
1937.68	314
1939.72	316
1941.76	326
1943.8	314
1945.83	320
1947.87	324
1949.91	318
1951.94	326
1953.98	302
1956.01	308
1958.05	300
1960.08	308
1962.11	318
1964.14	314
1966.17	322
1968.2	316
1970.23	314
1972.26	322
1974.29	310
1976.32	306
1978.35	304
1980.37	300
1982.4	316
1984.43	330
1986.45	312
1988.48	314
1990.5	310
1992.52	314
1994.55	304
1996.57	300
1998.59	318
2000.61	302
2002.63	322
2004.65	316
2006.67	304
2008.69	322
2010.7	314
2012.72	320
2014.74	316
2016.75	316
2018.77	326
2020.78	324
2022.8	320
2024.81	332
2026.83	326
2028.84	328
2030.85	330
2032.86	302
2034.87	314
2036.88	294
2038.89	306
2040.9	338
2042.91	316
2044.91	340
2046.92	336
2048.93	322
2050.93	308
2052.94	330
2054.94	336
2056.95	326
2058.95	336
2060.95	334
2062.95	316
2064.96	312
2066.96	322
2068.96	314
2070.96	328
2072.96	316
2074.95	330
2076.95	330
2078.95	314
2080.95	334
2082.94	330
2084.94	326
2086.93	332
2088.93	336
2090.92	350
2092.91	324
2094.91	330
2096.9	326
2098.89	328
2100.88	328
2102.87	332
2104.86	336
2106.85	324
2108.84	334
2110.83	346
2112.81	316
2114.8	348
2116.78	336
2118.77	336
2120.75	340
2122.74	328
2124.72	320
2126.71	334
2128.69	344
2130.67	320
2132.65	328
2134.63	334
2136.61	320
2138.59	322
2140.57	336
2142.55	330
2144.53	332
2146.5	332
2148.48	334
2150.46	348
2152.43	324
2154.41	330
2156.38	342
2158.35	348
2160.33	346
2162.3	336
2164.27	326
2166.24	334
2168.21	336
2170.18	334
2172.15	334
2174.12	332
2176.09	336
2178.06	342
2180.03	356
2181.99	334
2183.96	348
2185.92	358
2187.89	328
2189.85	334
2191.82	342
2193.78	342
2195.74	360
2197.7	324
2199.67	348
2201.63	362
2203.59	356
2205.55	330
2207.51	338
2209.46	328
2211.42	360
2213.38	318
2215.34	340
2217.29	348
2219.25	350
2221.2	332
2223.16	334
2225.11	354
2227.06	324
2229.02	350
2230.97	342
2232.92	332
2234.87	330
2236.82	350
2238.77	354
2240.72	346
2242.67	338
2244.62	338
2246.57	330
2248.51	334
2250.46	314
2252.4	330
2254.35	332
2256.29	340
2258.24	344
2260.18	354
2262.13	334
2264.07	352
2266.01	330
2267.95	344
2269.89	358
2271.83	340
2273.77	338
2275.71	342
2277.65	336
2279.58	340
2281.52	336
2283.46	346
2285.4	334
2287.33	336
2289.27	330
2291.2	346
2293.13	352
2295.07	344
2297	338
2298.93	350
2300.86	336
2302.79	336
2304.72	356
2306.65	354
2308.58	350
2310.51	350
2312.44	376
2314.37	364
2316.29	348
2318.22	362
2320.15	340
2322.07	348
2324	350
2325.92	334
2327.84	352
2329.77	360
2331.69	358
2333.61	350
2335.53	356
2337.45	340
2339.37	358
2341.29	362
2343.21	352
2345.13	358
2347.05	358
2348.97	360
2350.88	352
2352.8	346
2354.71	352
2356.63	332
2358.54	344
2360.46	330
2362.37	344
2364.28	362
2366.2	344
2368.11	346
2370.02	350
2371.93	352
2373.84	358
2375.75	340
2377.66	350
2379.57	352
2381.47	360
2383.38	334
2385.29	336
2387.2	354
2389.1	344
2391.01	358
2392.91	356
2394.81	338
2396.72	344
2398.62	346
2400.52	348
2402.42	354
2404.33	350
2406.23	366
2408.13	376
2410.03	362
2411.92	356
2413.82	348
2415.72	362
2417.62	348
2419.51	358
2421.41	360
2423.31	358
2425.2	358
2427.1	364
2428.99	354
2430.88	374
2432.78	366
2434.67	372
2436.56	356
2438.45	372
2440.34	358
2442.23	360
2444.12	378
2446.01	366
2447.9	364
2449.79	374