File: Mixture_Classification/Jesse_Dataset_v2/Pure Raman/Polystyrene/633nm/ps-ppo-7jan25-1,0000-map3_Y09_X10.txt
182.393	1008
184.993	1000
187.593	962
190.193	968
192.79	934
195.387	930
197.983	922
200.578	918
203.174	916
205.766	948
208.36	994
210.951	1018
213.542	1014
216.131	1030
218.721	1056
221.309	1082
223.897	1058
226.483	1022
229.069	988
231.654	882
234.238	824
236.821	764
239.404	670
241.984	542
244.566	522
247.145	454
249.723	418
252.302	364
254.878	372
257.455	372
260.03	362
262.604	348
265.178	336
267.75	332
270.322	306
272.893	318
275.463	304
278.032	294
280.601	274
283.168	268
285.734	288
288.301	266
290.866	240
293.429	244
295.992	232
298.556	228
301.117	224
303.677	220
306.236	224
308.795	228
311.354	232
313.911	218
316.467	234
319.022	240
321.577	240
324.13	220
326.684	226
329.236	220
331.787	238
334.337	220
336.887	232
339.435	222
341.983	216
344.529	214
347.075	204
349.621	212
352.165	208
354.708	204
357.251	202
359.793	220
362.334	216
364.874	222
367.413	206
369.951	200
372.489	222
375.026	222
377.562	224
380.097	234
382.631	216
385.164	260
387.697	270
390.229	266
392.76	258
395.29	268
397.819	274
400.346	304
402.873	308
405.4	324
407.926	328
410.451	332
412.976	304
415.499	288
418.02	284
420.542	276
423.063	248
425.583	244
428.101	236
430.619	224
433.137	234
435.654	216
438.169	222
440.684	224
443.198	200
445.712	190
448.223	200
450.735	202
453.246	194
455.755	184
458.264	184
460.771	174
463.279	176
465.786	170
468.291	180
470.796	188
473.301	174
475.803	170
478.306	174
480.807	172
483.308	168
485.807	148
488.307	172
490.804	168
493.302	174
495.798	166
498.294	174
500.788	186
503.283	188
505.775	184
508.269	192
510.759	192
513.251	174
515.74	184
518.23	190
520.718	198
523.204	196
525.692	198
528.177	196
530.663	222
533.147	218
535.629	240
538.113	246
540.594	242
543.074	264
545.555	268
548.034	260
550.512	254
552.989	246
555.467	258
557.942	244
560.417	242
562.892	242
565.365	236
567.838	240
570.309	228
572.78	250
575.251	240
577.72	240
580.189	228
582.656	232
585.123	218
587.589	204
590.055	212
592.52	204
594.983	204
597.446	204
599.908	214
602.369	218
604.829	226
607.289	258
609.747	290
612.205	276
614.663	304
617.119	412
619.574	700
622.029	1102
624.483	960
626.936	524
629.389	330
631.84	258
634.291	248
636.741	214
639.19	202
641.639	198
644.086	176
646.533	172
648.979	164
651.424	172
653.869	162
656.313	164
658.754	168
661.196	152
663.638	148
666.078	156
668.518	160
670.957	166
673.394	150
675.831	168
678.268	166
680.703	160
683.137	160
685.571	178
688.005	164
690.437	168
692.868	162
695.299	170
697.729	186
700.159	190
702.586	210
705.014	200
707.441	204
709.866	216
712.292	222
714.716	194
717.14	196
719.563	224
721.984	254
724.406	280
726.825	300
729.246	294
731.665	276
734.082	272
736.5	288
738.916	326
741.332	366
743.746	362
746.161	370
748.574	378
750.987	396
753.398	420
755.81	438
758.219	460
760.629	476
763.037	480
765.445	466
767.852	432
770.258	434
772.664	416
775.068	420
777.472	440
779.876	402
782.278	430
784.679	498
787.08	546
789.48	596
791.879	648
794.278	646
796.675	710
799.072	676
801.467	616
803.864	534
806.258	460
808.651	396
811.044	396
813.437	366
815.828	324
818.218	312
820.608	292
822.997	272
825.385	268
827.773	262
830.16	256
832.546	248
834.931	286
837.315	306
839.699	332
842.081	360
844.463	354
846.844	350
849.226	330
851.606	310
853.985	294
856.363	288
858.741	296
861.117	290
863.493	276
865.868	284
868.243	272
870.616	284
872.989	290
875.36	296
877.731	278
880.102	274
882.472	284
884.841	268
887.209	272
889.577	262
891.944	260
894.31	266
896.674	270
899.039	290
901.403	308
903.766	340
906.128	342
908.49	354
910.849	340
913.209	312
915.569	310
917.927	284
920.284	270
922.641	252
924.997	248
927.353	256
929.707	246
932.061	248
934.414	234
936.765	260
939.117	260
941.469	260
943.818	240
946.167	260
948.515	242
950.863	248
953.211	256
955.556	274
957.902	260
960.246	284
962.59	300
964.933	310
967.276	316
969.617	316
971.958	310
974.298	346
976.638	364
978.976	372
981.314	482
983.651	526
985.988	582
988.323	786
990.659	1192
992.992	1738
995.325	1888
997.658	2368
999.99	4250
1002.32	6616
1004.65	5980
1006.98	3266
1009.31	1468
1011.64	850
1013.97	572
1016.29	472
1018.62	460
1020.94	512
1023.27	604
1025.59	852
1027.91	1182
1030.24	1640
1032.56	1960
1034.88	1864
1037.2	1386
1039.52	932
1041.84	692
1044.15	546
1046.47	468
1048.79	416
1051.1	400
1053.42	392
1055.73	392
1058.04	372
1060.36	416
1062.67	412
1064.98	412
1067.29	418
1069.6	410
1071.91	450
1074.22	424
1076.52	396
1078.83	430
1081.14	416
1083.44	418
1085.75	426
1088.05	418
1090.35	416
1092.65	400
1094.95	408
1097.26	426
1099.56	422
1101.86	406
1104.15	414
1106.45	362
1108.75	374
1111.05	334
1113.34	326
1115.64	320
1117.93	330
1120.22	292
1122.52	284
1124.81	274
1127.1	282
1129.39	270
1131.68	254
1133.97	282
1136.26	258
1138.54	282
1140.83	304
1143.12	340
1145.4	362
1147.69	396
1149.97	500
1152.25	680
1154.54	856
1156.82	958
1159.1	866
1161.38	692
1163.66	582
1165.94	522
1168.22	478
1170.49	492
1172.77	556
1175.05	602
1177.32	766
1179.6	960
1181.87	1130
1184.14	1198
1186.42	1124
1188.69	1048
1190.96	1048
1193.23	1098
1195.5	1148
1197.77	1244
1200.03	1188
1202.3	1134
1204.57	1072
1206.83	974
1209.1	838
1211.36	718
1213.63	594
1215.89	552
1218.15	510
1220.41	476
1222.67	446
1224.93	450
1227.19	432
1229.45	426
1231.71	404
1233.97	388
1236.22	344
1238.48	366
1240.73	376
1242.99	344
1245.24	362
1247.5	356
1249.75	332
1252	346
1254.25	344
1256.5	356
1258.75	334
1261	330
1263.25	324
1265.49	356
1267.74	350
1269.99	350
1272.23	326
1274.48	334
1276.72	344
1278.96	338
1281.21	342
1283.45	356
1285.69	324
1287.93	328
1290.17	370
1292.41	370
1294.64	376
1296.88	386
1299.12	374
1301.36	378
1303.59	420
1305.82	394
1308.06	408
1310.29	428
1312.52	410
1314.76	434
1316.99	426
1319.22	426
1321.45	476
1323.68	504
1325.9	530
1328.13	514
1330.36	502
1332.58	494
1334.81	520
1337.04	478
1339.26	440
1341.48	408
1343.71	412
1345.93	376
1348.15	382
1350.37	370
1352.59	362
1354.81	354
1357.03	372
1359.24	358
1361.46	366
1363.68	376
1365.89	366
1368.11	342
1370.32	372
1372.54	384
1374.75	368
1376.96	350
1379.17	366
1381.38	332
1383.59	310
1385.8	308
1388.01	278
1390.22	274
1392.43	266
1394.63	262
1396.84	270
1399.05	258
1401.25	262
1403.45	238
1405.66	262
1407.86	258
1410.06	270
1412.26	268
1414.46	258
1416.66	254
1418.86	264
1421.06	248
1423.26	238
1425.46	258
1427.65	260
1429.85	276
1432.04	300
1434.24	336
1436.43	332
1438.62	396
1440.82	436
1443.01	488
1445.2	522
1447.39	566
1449.58	588
1451.77	580
1453.95	590
1456.14	514
1458.33	438
1460.52	378
1462.7	318
1464.89	312
1467.07	300
1469.25	278
1471.44	272
1473.62	264
1475.8	260
1477.98	262
1480.16	268
1482.34	268
1484.52	262
1486.7	260
1488.87	264
1491.05	284
1493.23	274
1495.4	302
1497.58	286
1499.75	274
1501.92	264
1504.1	272
1506.27	270
1508.44	244
1510.61	254
1512.78	252
1514.95	244
1517.12	266
1519.28	262
1521.45	258
1523.62	262
1525.78	262
1527.95	272
1530.11	266
1532.28	274
1534.44	276
1536.6	270
1538.76	274
1540.93	264
1543.09	270
1545.25	278
1547.41	268
1549.56	272
1551.72	282
1553.88	270
1556.03	292
1558.19	270
1560.35	284
1562.5	310
1564.65	302
1566.81	310
1568.96	312
1571.11	320
1573.26	380
1575.41	408
1577.56	490
1579.71	586
1581.86	752
1584.01	1016
1586.15	908
1588.3	722
1590.45	580
1592.59	582
1594.74	664
1596.88	870
1599.02	1220
1601.17	1658
1603.31	1834
1605.45	1694
1607.59	1264
1609.73	920
1611.87	670
1614.01	538
1616.14	474
1618.28	420
1620.42	376
1622.55	378
1624.69	358
1626.82	324
1628.96	310
1631.09	308
1633.22	300
1635.36	304
1637.49	320
1639.62	310
1641.75	302
1643.88	318
1646	348
1648.13	338
1650.26	336
1652.39	320
1654.51	316
1656.64	300
1658.76	296
1660.89	276
1663.01	274
1665.13	272
1667.26	276
1669.38	286
1671.5	282
1673.62	290
1675.74	290
1677.86	296
1679.97	274
1682.09	268
1684.21	296
1686.33	268
1688.44	270
1690.56	256
1692.67	282
1694.78	276
1696.9	278
1699.01	298
1701.12	284
1703.23	278
1705.34	272
1707.45	286
1709.56	284
1711.67	276
1713.78	254
1715.88	284
1717.99	276
1720.1	282
1722.2	264
1724.31	286
1726.41	262
1728.51	268
1730.62	278
1732.72	270
1734.82	260
1736.92	270
1739.02	268
1741.12	262
1743.22	286
1745.32	282
1747.42	286
1749.51	278
1751.61	296
1753.7	284
1755.8	274
1757.89	268
1759.99	258
1762.08	280
1764.17	270
1766.26	274
1768.36	264
1770.45	270
1772.54	302
1774.62	270
1776.71	290
1778.8	274
1780.89	284
1782.98	282
1785.06	270
1787.15	280
1789.23	268
1791.32	284
1793.4	276
1795.48	286
1797.56	268
1799.65	280
1801.73	280
1803.81	288
1805.89	290
1807.97	284
1810.04	274
1812.12	290
1814.2	286
1816.28	278
1818.35	290
1820.43	292
1822.5	288
1824.58	292
1826.65	310
1828.72	274
1830.79	274
1832.86	278
1834.94	270
1837.01	280
1839.08	276
1841.15	278
1843.21	306
1845.28	282
1847.35	288
1849.41	280
1851.48	290
1853.55	282
1855.61	272
1857.67	284
1859.74	288
1861.8	266
1863.86	294
1865.92	278
1867.98	288
1870.05	296
1872.1	292
1874.16	298
1876.22	282
1878.28	276
1880.34	310
1882.39	282
1884.45	290
1886.5	294
1888.56	290
1890.61	270
1892.67	272
1894.72	286
1896.77	304
1898.82	288
1900.87	290
1902.92	282
1904.97	294
1907.02	292
1909.07	298
1911.12	298
1913.17	298
1915.21	280
1917.26	300
1919.3	306
1921.35	286
1923.39	290
1925.43	294
1927.48	296
1929.52	304
1931.56	300
1933.6	302
1935.64	320
1937.68	298
1939.72	296
1941.76	300
1943.8	312
1945.83	314
1947.87	282
1949.91	286
1951.94	310
1953.98	304
1956.01	300
1958.05	314
1960.08	308
1962.11	316
1964.14	290
1966.17	302
1968.2	304
1970.23	300
1972.26	310
1974.29	318
1976.32	290
1978.35	306
1980.37	310
1982.4	302
1984.43	306
1986.45	302
1988.48	298
1990.5	290
1992.52	294
1994.55	310
1996.57	314
1998.59	292
2000.61	310
2002.63	298
2004.65	320
2006.67	304
2008.69	304
2010.7	282
2012.72	290
2014.74	300
2016.75	304
2018.77	318
2020.78	302
2022.8	310
2024.81	310
2026.83	294
2028.84	308
2030.85	296
2032.86	302
2034.87	310
2036.88	306
2038.89	320
2040.9	302
2042.91	326
2044.91	300
2046.92	314
2048.93	294
2050.93	318
2052.94	310
2054.94	310
2056.95	306
2058.95	304
2060.95	296
2062.95	318
2064.96	310
2066.96	312
2068.96	322
2070.96	326
2072.96	316
2074.95	316
2076.95	318
2078.95	320
2080.95	314
2082.94	300
2084.94	306
2086.93	324
2088.93	308
2090.92	310
2092.91	308
2094.91	322
2096.9	326
2098.89	314
2100.88	314
2102.87	304
2104.86	316
2106.85	312
2108.84	302
2110.83	316
2112.81	330
2114.8	330
2116.78	298
2118.77	324
2120.75	320
2122.74	330
2124.72	330
2126.71	324
2128.69	314
2130.67	328
2132.65	296
2134.63	336
2136.61	314
2138.59	302
2140.57	324
2142.55	322
2144.53	332
2146.5	322
2148.48	332
2150.46	320
2152.43	330
2154.41	322
2156.38	318
2158.35	340
2160.33	314
2162.3	324
2164.27	328
2166.24	322
2168.21	328
2170.18	328
2172.15	314
2174.12	318
2176.09	342
2178.06	330
2180.03	316
2181.99	330
2183.96	318
2185.92	322
2187.89	326
2189.85	334
2191.82	320
2193.78	328
2195.74	328
2197.7	324
2199.67	328
2201.63	328
2203.59	322
2205.55	338
2207.51	326
2209.46	322
2211.42	344
2213.38	336
2215.34	316
2217.29	318
2219.25	336
2221.2	336
2223.16	310
2225.11	328
2227.06	346
2229.02	314
2230.97	328
2232.92	332
2234.87	318
2236.82	336
2238.77	330
2240.72	326
2242.67	334
2244.62	326
2246.57	314
2248.51	346
2250.46	334
2252.4	338
2254.35	326
2256.29	330
2258.24	340
2260.18	318
2262.13	340
2264.07	336
2266.01	336
2267.95	344
2269.89	326
2271.83	350
2273.77	324
2275.71	336
2277.65	352
2279.58	340
2281.52	328
2283.46	318
2285.4	330
2287.33	334
2289.27	332
2291.2	342
2293.13	326
2295.07	322
2297	344
2298.93	318
2300.86	334
2302.79	332
2304.72	334
2306.65	352
2308.58	344
2310.51	334
2312.44	334
2314.37	338
2316.29	330
2318.22	328
2320.15	332
2322.07	326
2324	346
2325.92	338
2327.84	336
2329.77	346
2331.69	340
2333.61	330
2335.53	322
2337.45	336
2339.37	348
2341.29	344
2343.21	346
2345.13	356
2347.05	344
2348.97	340
2350.88	354
2352.8	336
2354.71	360
2356.63	354
2358.54	350
2360.46	330
2362.37	338
2364.28	316
2366.2	338
2368.11	336
2370.02	336
2371.93	352
2373.84	334
2375.75	348
2377.66	330
2379.57	346
2381.47	350
2383.38	346
2385.29	340
2387.2	334
2389.1	342
2391.01	350
2392.91	348
2394.81	344
2396.72	332
2398.62	354
2400.52	354
2402.42	336
2404.33	356
2406.23	348
2408.13	338
2410.03	358
2411.92	336
2413.82	340
2415.72	334
2417.62	330
2419.51	352
2421.41	352
2423.31	330
2425.2	330
2427.1	338
2428.99	360
2430.88	364
2432.78	352
2434.67	342
2436.56	338
2438.45	350
2440.34	356
2442.23	362
2444.12	368
2446.01	364
2447.9	354
2449.79	368