File: Mixture_Classification/Jesse_Dataset_v2/Pure Raman/Polystyrene/633nm/ps-ppo-7jan25-1,0000-map3_Y04_X02.txt
182.393	1038
184.993	1004
187.593	1014
190.193	936
192.79	972
195.387	956
197.983	952
200.578	984
203.174	950
205.766	966
208.36	976
210.951	1040
213.542	1034
216.131	1094
218.721	1066
221.309	1072
223.897	1106
226.483	1058
229.069	1018
231.654	914
234.238	840
236.821	774
239.404	674
241.984	614
244.566	526
247.145	498
249.723	444
252.302	422
254.878	394
257.455	398
260.03	372
262.604	362
265.178	356
267.75	362
270.322	336
272.893	348
275.463	346
278.032	332
280.601	310
283.168	312
285.734	310
288.301	292
290.866	290
293.429	270
295.992	266
298.556	284
301.117	230
303.677	244
306.236	268
308.795	264
311.354	244
313.911	246
316.467	252
319.022	274
321.577	242
324.13	264
326.684	248
329.236	264
331.787	258
334.337	252
336.887	252
339.435	252
341.983	248
344.529	256
347.075	234
349.621	236
352.165	234
354.708	214
357.251	232
359.793	222
362.334	234
364.874	238
367.413	228
369.951	230
372.489	244
375.026	254
377.562	260
380.097	254
382.631	278
385.164	282
387.697	290
390.229	300
392.76	296
395.29	296
397.819	314
400.346	312
402.873	332
405.4	360
407.926	380
410.451	360
412.976	332
415.499	340
418.02	284
420.542	304
423.063	272
425.583	276
428.101	252
430.619	258
433.137	234
435.654	236
438.169	256
440.684	236
443.198	232
445.712	240
448.223	238
450.735	232
453.246	230
455.755	220
458.264	198
460.771	186
463.279	202
465.786	196
468.291	196
470.796	204
473.301	208
475.803	198
478.306	204
480.807	184
483.308	198
485.807	208
488.307	206
490.804	186
493.302	212
495.798	206
498.294	188
500.788	218
503.283	206
505.775	222
508.269	208
510.759	204
513.251	234
515.74	220
518.23	226
520.718	234
523.204	212
525.692	236
528.177	240
530.663	238
533.147	258
535.629	252
538.113	292
540.594	286
543.074	290
545.555	280
548.034	282
550.512	294
552.989	266
555.467	260
557.942	266
560.417	290
562.892	284
565.365	262
567.838	274
570.309	282
572.78	262
575.251	298
577.72	288
580.189	268
582.656	238
585.123	242
587.589	220
590.055	244
592.52	240
594.983	236
597.446	226
599.908	244
602.369	252
604.829	276
607.289	292
609.747	314
612.205	324
614.663	350
617.119	452
619.574	704
622.029	1148
624.483	1032
626.936	548
629.389	360
631.84	290
634.291	274
636.741	262
639.19	254
641.639	216
644.086	204
646.533	210
648.979	210
651.424	198
653.869	210
656.313	214
658.754	186
661.196	200
663.638	192
666.078	200
668.518	198
670.957	194
673.394	190
675.831	198
678.268	202
680.703	204
683.137	188
685.571	200
688.005	178
690.437	194
692.868	210
695.299	212
697.729	208
700.159	230
702.586	248
705.014	262
707.441	264
709.866	248
712.292	238
714.716	244
717.14	228
719.563	252
721.984	290
724.406	320
726.825	334
729.246	306
731.665	318
734.082	318
736.5	318
738.916	360
741.332	418
743.746	410
746.161	418
748.574	408
750.987	430
753.398	442
755.81	482
758.219	490
760.629	508
763.037	504
765.445	496
767.852	488
770.258	472
772.664	436
775.068	442
777.472	464
779.876	424
782.278	468
784.679	556
787.08	604
789.48	636
791.879	692
794.278	722
796.675	718
799.072	716
801.467	662
803.864	584
806.258	550
808.651	462
811.044	432
813.437	406
815.828	382
818.218	326
820.608	312
822.997	324
825.385	312
827.773	304
830.16	298
832.546	304
834.931	322
837.315	346
839.699	374
842.081	378
844.463	414
846.844	406
849.226	354
851.606	344
853.985	340
856.363	334
858.741	324
861.117	366
863.493	334
865.868	346
868.243	324
870.616	330
872.989	322
875.36	306
877.731	338
880.102	318
882.472	316
884.841	322
887.209	306
889.577	312
891.944	316
894.31	312
896.674	334
899.039	326
901.403	358
903.766	368
906.128	390
908.49	390
910.849	382
913.209	346
915.569	360
917.927	328
920.284	302
922.641	296
924.997	290
927.353	288
929.707	268
932.061	284
934.414	298
936.765	296
939.117	292
941.469	280
943.818	300
946.167	310
948.515	292
950.863	308
953.211	304
955.556	308
957.902	308
960.246	310
962.59	332
964.933	362
967.276	352
969.617	366
971.958	344
974.298	384
976.638	388
978.976	442
981.314	494
983.651	568
985.988	656
988.323	842
990.659	1198
992.992	1754
995.325	1958
997.658	2406
999.99	4270
1002.32	6636
1004.65	6170
1006.98	3490
1009.31	1602
1011.64	874
1013.97	618
1016.29	536
1018.62	472
1020.94	552
1023.27	672
1025.59	904
1027.91	1210
1030.24	1708
1032.56	2050
1034.88	1926
1037.2	1462
1039.52	1030
1041.84	746
1044.15	606
1046.47	520
1048.79	492
1051.1	434
1053.42	438
1055.73	432
1058.04	438
1060.36	446
1062.67	432
1064.98	466
1067.29	442
1069.6	456
1071.91	478
1074.22	450
1076.52	464
1078.83	464
1081.14	450
1083.44	434
1085.75	468
1088.05	476
1090.35	464
1092.65	442
1094.95	446
1097.26	452
1099.56	456
1101.86	434
1104.15	440
1106.45	414
1108.75	404
1111.05	368
1113.34	372
1115.64	364
1117.93	340
1120.22	324
1122.52	314
1124.81	310
1127.1	286
1129.39	282
1131.68	296
1133.97	288
1136.26	308
1138.54	342
1140.83	360
1143.12	370
1145.4	396
1147.69	440
1149.97	526
1152.25	672
1154.54	880
1156.82	992
1159.1	926
1161.38	744
1163.66	616
1165.94	560
1168.22	518
1170.49	548
1172.77	578
1175.05	624
1177.32	818
1179.6	990
1181.87	1188
1184.14	1270
1186.42	1144
1188.69	1080
1190.96	1082
1193.23	1138
1195.5	1248
1197.77	1282
1200.03	1210
1202.3	1134
1204.57	1078
1206.83	980
1209.1	880
1211.36	746
1213.63	672
1215.89	530
1218.15	512
1220.41	502
1222.67	506
1224.93	496
1227.19	460
1229.45	432
1231.71	452
1233.97	420
1236.22	402
1238.48	398
1240.73	374
1242.99	368
1245.24	356
1247.5	386
1249.75	388
1252	358
1254.25	376
1256.5	376
1258.75	384
1261	354
1263.25	376
1265.49	386
1267.74	368
1269.99	384
1272.23	364
1274.48	352
1276.72	368
1278.96	366
1281.21	356
1283.45	344
1285.69	386
1287.93	396
1290.17	382
1292.41	404
1294.64	380
1296.88	412
1299.12	384
1301.36	412
1303.59	430
1305.82	436
1308.06	434
1310.29	428
1312.52	438
1314.76	430
1316.99	472
1319.22	502
1321.45	524
1323.68	544
1325.9	536
1328.13	540
1330.36	546
1332.58	540
1334.81	540
1337.04	504
1339.26	486
1341.48	454
1343.71	446
1345.93	396
1348.15	400
1350.37	410
1352.59	386
1354.81	366
1357.03	410
1359.24	372
1361.46	378
1363.68	388
1365.89	374
1368.11	394
1370.32	400
1372.54	402
1374.75	388
1376.96	376
1379.17	380
1381.38	346
1383.59	354
1385.8	320
1388.01	306
1390.22	306
1392.43	284
1394.63	258
1396.84	292
1399.05	288
1401.25	306
1403.45	272
1405.66	280
1407.86	310
1410.06	296
1412.26	282
1414.46	262
1416.66	262
1418.86	280
1421.06	264
1423.26	266
1425.46	280
1427.65	286
1429.85	288
1432.04	302
1434.24	342
1436.43	370
1438.62	426
1440.82	454
1443.01	504
1445.2	518
1447.39	580
1449.58	592
1451.77	598
1453.95	588
1456.14	568
1458.33	470
1460.52	408
1462.7	350
1464.89	332
1467.07	294
1469.25	292
1471.44	304
1473.62	276
1475.8	284
1477.98	294
1480.16	282
1482.34	294
1484.52	264
1486.7	284
1488.87	278
1491.05	292
1493.23	322
1495.4	294
1497.58	318
1499.75	280
1501.92	278
1504.1	268
1506.27	266
1508.44	254
1510.61	270
1512.78	260
1514.95	280
1517.12	278
1519.28	266
1521.45	284
1523.62	294
1525.78	280
1527.95	280
1530.11	282
1532.28	284
1534.44	292
1536.6	284
1538.76	278
1540.93	296
1543.09	294
1545.25	272
1547.41	294
1549.56	288
1551.72	276
1553.88	308
1556.03	300
1558.19	318
1560.35	290
1562.5	304
1564.65	330
1566.81	328
1568.96	358
1571.11	378
1573.26	394
1575.41	414
1577.56	500
1579.71	608
1581.86	814
1584.01	1010
1586.15	934
1588.3	748
1590.45	608
1592.59	606
1594.74	696
1596.88	916
1599.02	1240
1601.17	1658
1603.31	1872
1605.45	1740
1607.59	1294
1609.73	938
1611.87	704
1614.01	552
1616.14	484
1618.28	436
1620.42	400
1622.55	382
1624.69	360
1626.82	340
1628.96	346
1631.09	332
1633.22	312
1635.36	328
1637.49	304
1639.62	336
1641.75	318
1643.88	362
1646	352
1648.13	340
1650.26	342
1652.39	346
1654.51	340
1656.64	314
1658.76	316
1660.89	292
1663.01	288
1665.13	290
1667.26	304
1669.38	304
1671.5	284
1673.62	298
1675.74	310
1677.86	294
1679.97	294
1682.09	278
1684.21	296
1686.33	318
1688.44	290
1690.56	296
1692.67	310
1694.78	300
1696.9	282
1699.01	296
1701.12	292
1703.23	282
1705.34	298
1707.45	290
1709.56	298
1711.67	284
1713.78	304
1715.88	310
1717.99	288
1720.1	292
1722.2	310
1724.31	290
1726.41	274
1728.51	278
1730.62	290
1732.72	280
1734.82	282
1736.92	304
1739.02	292
1741.12	288
1743.22	296
1745.32	286
1747.42	290
1749.51	286
1751.61	290
1753.7	290
1755.8	292
1757.89	282
1759.99	300
1762.08	284
1764.17	280
1766.26	292
1768.36	296
1770.45	284
1772.54	302
1774.62	298
1776.71	288
1778.8	294
1780.89	312
1782.98	284
1785.06	282
1787.15	304
1789.23	290
1791.32	286
1793.4	292
1795.48	298
1797.56	288
1799.65	282
1801.73	306
1803.81	288
1805.89	308
1807.97	298
1810.04	302
1812.12	312
1814.2	300
1816.28	308
1818.35	310
1820.43	290
1822.5	308
1824.58	314
1826.65	306
1828.72	294
1830.79	302
1832.86	310
1834.94	298
1837.01	312
1839.08	282
1841.15	310
1843.21	284
1845.28	286
1847.35	282
1849.41	310
1851.48	282
1853.55	292
1855.61	290
1857.67	304
1859.74	306
1861.8	300
1863.86	312
1865.92	314
1867.98	308
1870.05	294
1872.1	312
1874.16	292
1876.22	298
1878.28	306
1880.34	306
1882.39	298
1884.45	300
1886.5	296
1888.56	306
1890.61	308
1892.67	294
1894.72	308
1896.77	306
1898.82	310
1900.87	310
1902.92	302
1904.97	314
1907.02	308
1909.07	310
1911.12	306
1913.17	314
1915.21	320
1917.26	306
1919.3	314
1921.35	332
1923.39	316
1925.43	298
1927.48	314
1929.52	348
1931.56	326
1933.6	308
1935.64	334
1937.68	312
1939.72	320
1941.76	326
1943.8	312
1945.83	322
1947.87	314
1949.91	324
1951.94	306
1953.98	314
1956.01	316
1958.05	344
1960.08	310
1962.11	310
1964.14	324
1966.17	320
1968.2	296
1970.23	294
1972.26	306
1974.29	312
1976.32	304
1978.35	324
1980.37	312
1982.4	322
1984.43	322
1986.45	320
1988.48	306
1990.5	306
1992.52	308
1994.55	306
1996.57	318
1998.59	324
2000.61	314
2002.63	310
2004.65	320
2006.67	316
2008.69	302
2010.7	306
2012.72	302
2014.74	320
2016.75	312
2018.77	328
2020.78	328
2022.8	320
2024.81	318
2026.83	338
2028.84	314
2030.85	322
2032.86	300
2034.87	324
2036.88	310
2038.89	328
2040.9	336
2042.91	322
2044.91	332
2046.92	336
2048.93	326
2050.93	330
2052.94	328
2054.94	324
2056.95	336
2058.95	330
2060.95	320
2062.95	306
2064.96	340
2066.96	336
2068.96	324
2070.96	314
2072.96	310
2074.95	328
2076.95	340
2078.95	340
2080.95	330
2082.94	320
2084.94	354
2086.93	330
2088.93	316
2090.92	326
2092.91	318
2094.91	320
2096.9	318
2098.89	340
2100.88	330
2102.87	310
2104.86	332
2106.85	338
2108.84	306
2110.83	324
2112.81	344
2114.8	340
2116.78	324
2118.77	326
2120.75	336
2122.74	330
2124.72	340
2126.71	330
2128.69	316
2130.67	332
2132.65	336
2134.63	310
2136.61	324
2138.59	332
2140.57	344
2142.55	312
2144.53	340
2146.5	334
2148.48	332
2150.46	332
2152.43	324
2154.41	346
2156.38	312
2158.35	326
2160.33	342
2162.3	342
2164.27	348
2166.24	328
2168.21	334
2170.18	326
2172.15	338
2174.12	314
2176.09	352
2178.06	330
2180.03	324
2181.99	328
2183.96	320
2185.92	344
2187.89	334
2189.85	342
2191.82	318
2193.78	352
2195.74	342
2197.7	336
2199.67	332
2201.63	350
2203.59	326
2205.55	336
2207.51	348
2209.46	334
2211.42	338
2213.38	344
2215.34	318
2217.29	324
2219.25	338
2221.2	346
2223.16	336
2225.11	334
2227.06	324
2229.02	316
2230.97	344
2232.92	334
2234.87	358
2236.82	346
2238.77	328
2240.72	322
2242.67	332
2244.62	336
2246.57	338
2248.51	352
2250.46	354
2252.4	340
2254.35	332
2256.29	356
2258.24	350
2260.18	332
2262.13	348
2264.07	352
2266.01	334
2267.95	328
2269.89	356
2271.83	330
2273.77	344
2275.71	328
2277.65	330
2279.58	364
2281.52	360
2283.46	334
2285.4	342
2287.33	354
2289.27	340
2291.2	342
2293.13	344
2295.07	338
2297	364
2298.93	350
2300.86	356
2302.79	354
2304.72	350
2306.65	366
2308.58	346
2310.51	362
2312.44	356
2314.37	344
2316.29	358
2318.22	370
2320.15	344
2322.07	368
2324	354
2325.92	356
2327.84	362
2329.77	352
2331.69	356
2333.61	348
2335.53	354
2337.45	358
2339.37	342
2341.29	348
2343.21	344
2345.13	346
2347.05	356
2348.97	354
2350.88	346
2352.8	364
2354.71	358
2356.63	338
2358.54	356
2360.46	352
2362.37	326
2364.28	342
2366.2	344
2368.11	350
2370.02	334
2371.93	342
2373.84	350
2375.75	330
2377.66	346
2379.57	362
2381.47	382
2383.38	362
2385.29	346
2387.2	342
2389.1	344
2391.01	348
2392.91	358
2394.81	346
2396.72	356
2398.62	352
2400.52	362
2402.42	368
2404.33	346
2406.23	352
2408.13	368
2410.03	358
2411.92	358
2413.82	340
2415.72	366
2417.62	348
2419.51	370
2421.41	382
2423.31	358
2425.2	356
2427.1	344
2428.99	348
2430.88	350
2432.78	374
2434.67	354
2436.56	366
2438.45	346
2440.34	364
2442.23	350
2444.12	366
2446.01	378
2447.9	370
2449.79	348