File: Mixture_Classification/Jesse_Dataset_v2/Pure Raman/Polystyrene/633nm/ps-ppo-7jan25-1,0000-map3_Y10_X02.txt
182.393	1020
184.993	968
187.593	984
190.193	952
192.79	936
195.387	920
197.983	942
200.578	926
203.174	944
205.766	952
208.36	986
210.951	1014
213.542	1020
216.131	1042
218.721	1104
221.309	1082
223.897	1068
226.483	1042
229.069	996
231.654	922
234.238	814
236.821	770
239.404	696
241.984	604
244.566	538
247.145	472
249.723	424
252.302	398
254.878	366
257.455	360
260.03	344
262.604	342
265.178	340
267.75	342
270.322	308
272.893	322
275.463	314
278.032	290
280.601	300
283.168	280
285.734	290
288.301	270
290.866	260
293.429	234
295.992	246
298.556	238
301.117	230
303.677	240
306.236	218
308.795	240
311.354	228
313.911	222
316.467	234
319.022	234
321.577	244
324.13	240
326.684	244
329.236	236
331.787	240
334.337	230
336.887	220
339.435	222
341.983	242
344.529	226
347.075	218
349.621	220
352.165	222
354.708	222
357.251	216
359.793	196
362.334	204
364.874	212
367.413	220
369.951	206
372.489	222
375.026	228
377.562	230
380.097	242
382.631	246
385.164	242
387.697	262
390.229	260
392.76	264
395.29	278
397.819	294
400.346	270
402.873	312
405.4	320
407.926	374
410.451	344
412.976	314
415.499	308
418.02	278
420.542	254
423.063	248
425.583	240
428.101	246
430.619	232
433.137	218
435.654	224
438.169	206
440.684	214
443.198	216
445.712	216
448.223	206
450.735	194
453.246	194
455.755	190
458.264	170
460.771	172
463.279	180
465.786	176
468.291	178
470.796	174
473.301	180
475.803	182
478.306	174
480.807	166
483.308	178
485.807	176
488.307	168
490.804	178
493.302	168
495.798	180
498.294	182
500.788	168
503.283	188
505.775	194
508.269	188
510.759	182
513.251	184
515.74	190
518.23	194
520.718	194
523.204	184
525.692	186
528.177	220
530.663	224
533.147	228
535.629	240
538.113	248
540.594	258
543.074	246
545.555	268
548.034	252
550.512	234
552.989	250
555.467	240
557.942	264
560.417	236
562.892	238
565.365	240
567.838	248
570.309	230
572.78	240
575.251	236
577.72	230
580.189	224
582.656	204
585.123	202
587.589	196
590.055	212
592.52	190
594.983	196
597.446	200
599.908	208
602.369	220
604.829	230
607.289	268
609.747	268
612.205	266
614.663	298
617.119	428
619.574	726
622.029	1080
624.483	934
626.936	516
629.389	338
631.84	272
634.291	240
636.741	202
639.19	192
641.639	192
644.086	178
646.533	178
648.979	182
651.424	174
653.869	156
656.313	166
658.754	154
661.196	166
663.638	164
666.078	156
668.518	170
670.957	158
673.394	162
675.831	170
678.268	142
680.703	166
683.137	166
685.571	154
688.005	154
690.437	162
692.868	160
695.299	164
697.729	182
700.159	196
702.586	190
705.014	194
707.441	202
709.866	210
712.292	200
714.716	200
717.14	210
719.563	220
721.984	242
724.406	286
726.825	292
729.246	276
731.665	266
734.082	262
736.5	302
738.916	328
741.332	380
743.746	364
746.161	380
748.574	382
750.987	400
753.398	400
755.81	426
758.219	450
760.629	472
763.037	464
765.445	470
767.852	468
770.258	424
772.664	440
775.068	404
777.472	422
779.876	428
782.278	446
784.679	486
787.08	542
789.48	604
791.879	634
794.278	670
796.675	676
799.072	656
801.467	618
803.864	538
806.258	454
808.651	418
811.044	364
813.437	366
815.828	354
818.218	314
820.608	284
822.997	256
825.385	270
827.773	238
830.16	258
832.546	262
834.931	280
837.315	306
839.699	332
842.081	344
844.463	378
846.844	360
849.226	328
851.606	324
853.985	296
856.363	300
858.741	290
861.117	292
863.493	282
865.868	288
868.243	274
870.616	278
872.989	294
875.36	282
877.731	258
880.102	294
882.472	286
884.841	254
887.209	276
889.577	276
891.944	282
894.31	276
896.674	278
899.039	280
901.403	318
903.766	336
906.128	334
908.49	362
910.849	328
913.209	290
915.569	310
917.927	270
920.284	262
922.641	254
924.997	246
927.353	260
929.707	248
932.061	252
934.414	248
936.765	258
939.117	260
941.469	260
943.818	264
946.167	278
948.515	236
950.863	244
953.211	248
955.556	268
957.902	254
960.246	272
962.59	294
964.933	322
967.276	324
969.617	308
971.958	322
974.298	340
976.638	352
978.976	416
981.314	450
983.651	508
985.988	610
988.323	776
990.659	1178
992.992	1690
995.325	1900
997.658	2358
999.99	4212
1002.32	6546
1004.65	6012
1006.98	3328
1009.31	1550
1011.64	830
1013.97	548
1016.29	474
1018.62	446
1020.94	492
1023.27	612
1025.59	822
1027.91	1180
1030.24	1644
1032.56	1968
1034.88	1870
1037.2	1396
1039.52	948
1041.84	702
1044.15	560
1046.47	472
1048.79	428
1051.1	404
1053.42	398
1055.73	382
1058.04	390
1060.36	362
1062.67	378
1064.98	384
1067.29	402
1069.6	426
1071.91	452
1074.22	440
1076.52	404
1078.83	418
1081.14	402
1083.44	426
1085.75	416
1088.05	396
1090.35	422
1092.65	402
1094.95	388
1097.26	416
1099.56	406
1101.86	396
1104.15	392
1106.45	374
1108.75	362
1111.05	340
1113.34	332
1115.64	324
1117.93	320
1120.22	300
1122.52	288
1124.81	262
1127.1	266
1129.39	268
1131.68	254
1133.97	268
1136.26	246
1138.54	278
1140.83	304
1143.12	330
1145.4	354
1147.69	402
1149.97	500
1152.25	676
1154.54	904
1156.82	956
1159.1	874
1161.38	662
1163.66	570
1165.94	500
1168.22	468
1170.49	512
1172.77	554
1175.05	600
1177.32	768
1179.6	1002
1181.87	1126
1184.14	1166
1186.42	1104
1188.69	1008
1190.96	1054
1193.23	1100
1195.5	1192
1197.77	1236
1200.03	1214
1202.3	1106
1204.57	1072
1206.83	998
1209.1	838
1211.36	696
1213.63	612
1215.89	542
1218.15	476
1220.41	456
1222.67	466
1224.93	432
1227.19	434
1229.45	430
1231.71	388
1233.97	404
1236.22	360
1238.48	368
1240.73	328
1242.99	344
1245.24	336
1247.5	334
1249.75	348
1252	346
1254.25	322
1256.5	328
1258.75	338
1261	344
1263.25	348
1265.49	324
1267.74	340
1269.99	338
1272.23	324
1274.48	330
1276.72	312
1278.96	334
1281.21	340
1283.45	312
1285.69	356
1287.93	344
1290.17	344
1292.41	368
1294.64	352
1296.88	374
1299.12	386
1301.36	396
1303.59	390
1305.82	402
1308.06	422
1310.29	408
1312.52	414
1314.76	402
1316.99	434
1319.22	464
1321.45	484
1323.68	492
1325.9	508
1328.13	516
1330.36	522
1332.58	528
1334.81	498
1337.04	454
1339.26	454
1341.48	422
1343.71	396
1345.93	396
1348.15	380
1350.37	366
1352.59	356
1354.81	380
1357.03	360
1359.24	356
1361.46	368
1363.68	378
1365.89	370
1368.11	372
1370.32	370
1372.54	378
1374.75	380
1376.96	354
1379.17	332
1381.38	346
1383.59	316
1385.8	300
1388.01	264
1390.22	266
1392.43	272
1394.63	272
1396.84	264
1399.05	260
1401.25	262
1403.45	264
1405.66	270
1407.86	270
1410.06	272
1412.26	260
1414.46	254
1416.66	260
1418.86	252
1421.06	246
1423.26	250
1425.46	258
1427.65	260
1429.85	266
1432.04	294
1434.24	318
1436.43	344
1438.62	402
1440.82	432
1443.01	468
1445.2	494
1447.39	562
1449.58	608
1451.77	572
1453.95	584
1456.14	532
1458.33	436
1460.52	378
1462.7	298
1464.89	298
1467.07	284
1469.25	288
1471.44	274
1473.62	274
1475.8	266
1477.98	272
1480.16	252
1482.34	270
1484.52	268
1486.7	274
1488.87	274
1491.05	268
1493.23	292
1495.4	292
1497.58	278
1499.75	262
1501.92	252
1504.1	250
1506.27	264
1508.44	252
1510.61	248
1512.78	264
1514.95	246
1517.12	258
1519.28	248
1521.45	264
1523.62	238
1525.78	248
1527.95	274
1530.11	278
1532.28	266
1534.44	238
1536.6	260
1538.76	258
1540.93	260
1543.09	276
1545.25	260
1547.41	272
1549.56	272
1551.72	266
1553.88	264
1556.03	296
1558.19	284
1560.35	276
1562.5	272
1564.65	300
1566.81	310
1568.96	320
1571.11	354
1573.26	368
1575.41	400
1577.56	440
1579.71	586
1581.86	792
1584.01	984
1586.15	902
1588.3	722
1590.45	604
1592.59	572
1594.74	682
1596.88	838
1599.02	1204
1601.17	1642
1603.31	1854
1605.45	1680
1607.59	1312
1609.73	890
1611.87	662
1614.01	532
1616.14	450
1618.28	414
1620.42	382
1622.55	368
1624.69	334
1626.82	336
1628.96	316
1631.09	306
1633.22	310
1635.36	292
1637.49	322
1639.62	310
1641.75	320
1643.88	334
1646	348
1648.13	358
1650.26	328
1652.39	330
1654.51	314
1656.64	292
1658.76	284
1660.89	278
1663.01	272
1665.13	266
1667.26	268
1669.38	262
1671.5	264
1673.62	286
1675.74	290
1677.86	290
1679.97	280
1682.09	296
1684.21	290
1686.33	278
1688.44	292
1690.56	274
1692.67	286
1694.78	272
1696.9	264
1699.01	288
1701.12	296
1703.23	280
1705.34	272
1707.45	266
1709.56	274
1711.67	276
1713.78	270
1715.88	278
1717.99	274
1720.1	254
1722.2	270
1724.31	280
1726.41	260
1728.51	280
1730.62	278
1732.72	266
1734.82	266
1736.92	274
1739.02	276
1741.12	282
1743.22	278
1745.32	298
1747.42	276
1749.51	280
1751.61	280
1753.7	282
1755.8	282
1757.89	278
1759.99	278
1762.08	270
1764.17	280
1766.26	272
1768.36	286
1770.45	260
1772.54	262
1774.62	270
1776.71	278
1778.8	272
1780.89	258
1782.98	278
1785.06	262
1787.15	286
1789.23	292
1791.32	278
1793.4	270
1795.48	274
1797.56	266
1799.65	294
1801.73	290
1803.81	274
1805.89	292
1807.97	286
1810.04	274
1812.12	300
1814.2	274
1816.28	304
1818.35	294
1820.43	292
1822.5	272
1824.58	274
1826.65	294
1828.72	260
1830.79	310
1832.86	292
1834.94	282
1837.01	286
1839.08	280
1841.15	266
1843.21	286
1845.28	264
1847.35	292
1849.41	294
1851.48	302
1853.55	274
1855.61	276
1857.67	284
1859.74	272
1861.8	282
1863.86	280
1865.92	282
1867.98	264
1870.05	296
1872.1	274
1874.16	284
1876.22	290
1878.28	292
1880.34	302
1882.39	286
1884.45	288
1886.5	282
1888.56	300
1890.61	300
1892.67	288
1894.72	302
1896.77	302
1898.82	290
1900.87	278
1902.92	294
1904.97	304
1907.02	302
1909.07	290
1911.12	300
1913.17	300
1915.21	296
1917.26	296
1919.3	302
1921.35	284
1923.39	288
1925.43	276
1927.48	298
1929.52	306
1931.56	306
1933.6	308
1935.64	288
1937.68	296
1939.72	306
1941.76	294
1943.8	304
1945.83	296
1947.87	306
1949.91	280
1951.94	292
1953.98	288
1956.01	292
1958.05	304
1960.08	312
1962.11	302
1964.14	292
1966.17	308
1968.2	306
1970.23	300
1972.26	294
1974.29	302
1976.32	286
1978.35	288
1980.37	312
1982.4	294
1984.43	288
1986.45	288
1988.48	284
1990.5	298
1992.52	284
1994.55	296
1996.57	304
1998.59	322
2000.61	288
2002.63	302
2004.65	280
2006.67	302
2008.69	280
2010.7	318
2012.72	300
2014.74	302
2016.75	308
2018.77	304
2020.78	296
2022.8	316
2024.81	300
2026.83	300
2028.84	318
2030.85	294
2032.86	296
2034.87	306
2036.88	320
2038.89	326
2040.9	290
2042.91	306
2044.91	318
2046.92	312
2048.93	310
2050.93	318
2052.94	316
2054.94	292
2056.95	320
2058.95	304
2060.95	308
2062.95	316
2064.96	318
2066.96	310
2068.96	300
2070.96	302
2072.96	298
2074.95	304
2076.95	296
2078.95	312
2080.95	322
2082.94	322
2084.94	308
2086.93	296
2088.93	298
2090.92	308
2092.91	308
2094.91	306
2096.9	316
2098.89	316
2100.88	316
2102.87	320
2104.86	302
2106.85	316
2108.84	308
2110.83	314
2112.81	302
2114.8	310
2116.78	302
2118.77	322
2120.75	324
2122.74	316
2124.72	326
2126.71	304
2128.69	314
2130.67	314
2132.65	328
2134.63	326
2136.61	308
2138.59	334
2140.57	306
2142.55	322
2144.53	308
2146.5	312
2148.48	332
2150.46	326
2152.43	332
2154.41	316
2156.38	320
2158.35	334
2160.33	326
2162.3	318
2164.27	308
2166.24	308
2168.21	330
2170.18	304
2172.15	328
2174.12	328
2176.09	320
2178.06	318
2180.03	314
2181.99	328
2183.96	318
2185.92	326
2187.89	326
2189.85	316
2191.82	324
2193.78	334
2195.74	306
2197.7	328
2199.67	324
2201.63	330
2203.59	340
2205.55	328
2207.51	336
2209.46	318
2211.42	328
2213.38	314
2215.34	330
2217.29	298
2219.25	328
2221.2	316
2223.16	294
2225.11	310
2227.06	310
2229.02	326
2230.97	314
2232.92	332
2234.87	320
2236.82	326
2238.77	324
2240.72	314
2242.67	316
2244.62	304
2246.57	328
2248.51	330
2250.46	294
2252.4	322
2254.35	316
2256.29	322
2258.24	336
2260.18	330
2262.13	326
2264.07	316
2266.01	322
2267.95	338
2269.89	316
2271.83	326
2273.77	340
2275.71	340
2277.65	332
2279.58	330
2281.52	330
2283.46	312
2285.4	344
2287.33	332
2289.27	318
2291.2	324
2293.13	340
2295.07	328
2297	328
2298.93	328
2300.86	336
2302.79	314
2304.72	326
2306.65	340
2308.58	330
2310.51	340
2312.44	350
2314.37	358
2316.29	336
2318.22	328
2320.15	346
2322.07	340
2324	322
2325.92	324
2327.84	324
2329.77	350
2331.69	322
2333.61	320
2335.53	342
2337.45	320
2339.37	332
2341.29	338
2343.21	340
2345.13	324
2347.05	330
2348.97	344
2350.88	336
2352.8	354
2354.71	346
2356.63	350
2358.54	332
2360.46	330
2362.37	336
2364.28	312
2366.2	342
2368.11	334
2370.02	332
2371.93	330
2373.84	342
2375.75	342
2377.66	328
2379.57	336
2381.47	348
2383.38	322
2385.29	338
2387.2	332
2389.1	342
2391.01	336
2392.91	344
2394.81	328
2396.72	354
2398.62	334
2400.52	334
2402.42	352
2404.33	346
2406.23	344
2408.13	332
2410.03	336
2411.92	354
2413.82	324
2415.72	336
2417.62	362
2419.51	332
2421.41	336
2423.31	340
2425.2	318
2427.1	320
2428.99	334
2430.88	342
2432.78	332
2434.67	328
2436.56	328
2438.45	350
2440.34	354
2442.23	366
2444.12	360
2446.01	362
2447.9	342
2449.79	348