File: Mixture_Classification/Jesse_Dataset_v2/Pure Raman/Polystyrene/633nm/ps-ppo-7jan25-1,0000-map3_Y00_X00.txt
182.393	1060
184.993	1056
187.593	1034
190.193	1050
192.79	1010
195.387	1014
197.983	998
200.578	1032
203.174	978
205.766	1048
208.36	1030
210.951	1098
213.542	1074
216.131	1126
218.721	1126
221.309	1156
223.897	1108
226.483	1102
229.069	1032
231.654	986
234.238	908
236.821	790
239.404	728
241.984	664
244.566	566
247.145	536
249.723	486
252.302	456
254.878	456
257.455	418
260.03	414
262.604	394
265.178	422
267.75	386
270.322	384
272.893	382
275.463	378
278.032	372
280.601	350
283.168	356
285.734	364
288.301	344
290.866	334
293.429	314
295.992	292
298.556	280
301.117	282
303.677	288
306.236	284
308.795	282
311.354	288
313.911	280
316.467	298
319.022	294
321.577	288
324.13	286
326.684	288
329.236	298
331.787	288
334.337	292
336.887	292
339.435	284
341.983	266
344.529	280
347.075	256
349.621	274
352.165	286
354.708	274
357.251	278
359.793	272
362.334	262
364.874	282
367.413	286
369.951	274
372.489	282
375.026	292
377.562	298
380.097	302
382.631	300
385.164	302
387.697	324
390.229	318
392.76	320
395.29	348
397.819	342
400.346	346
402.873	372
405.4	376
407.926	396
410.451	394
412.976	384
415.499	342
418.02	348
420.542	330
423.063	300
425.583	312
428.101	304
430.619	276
433.137	286
435.654	274
438.169	258
440.684	292
443.198	272
445.712	252
448.223	248
450.735	256
453.246	244
455.755	248
458.264	244
460.771	230
463.279	238
465.786	232
468.291	226
470.796	246
473.301	228
475.803	228
478.306	240
480.807	218
483.308	230
485.807	232
488.307	236
490.804	222
493.302	232
495.798	230
498.294	228
500.788	242
503.283	250
505.775	248
508.269	248
510.759	228
513.251	246
515.74	236
518.23	244
520.718	236
523.204	256
525.692	270
528.177	256
530.663	274
533.147	276
535.629	294
538.113	314
540.594	320
543.074	300
545.555	332
548.034	298
550.512	294
552.989	310
555.467	316
557.942	300
560.417	290
562.892	294
565.365	298
567.838	286
570.309	294
572.78	330
575.251	310
577.72	312
580.189	290
582.656	272
585.123	252
587.589	260
590.055	256
592.52	260
594.983	258
597.446	264
599.908	262
602.369	270
604.829	306
607.289	278
609.747	352
612.205	330
614.663	358
617.119	450
619.574	744
622.029	1130
624.483	1066
626.936	586
629.389	384
631.84	336
634.291	300
636.741	284
639.19	252
641.639	254
644.086	234
646.533	226
648.979	232
651.424	228
653.869	244
656.313	234
658.754	238
661.196	230
663.638	216
666.078	208
668.518	210
670.957	222
673.394	222
675.831	208
678.268	216
680.703	240
683.137	228
685.571	236
688.005	206
690.437	238
692.868	224
695.299	240
697.729	236
700.159	246
702.586	254
705.014	280
707.441	258
709.866	274
712.292	272
714.716	278
717.14	266
719.563	272
721.984	318
724.406	308
726.825	346
729.246	350
731.665	328
734.082	314
736.5	344
738.916	380
741.332	402
743.746	404
746.161	438
748.574	420
750.987	452
753.398	458
755.81	492
758.219	518
760.629	546
763.037	498
765.445	524
767.852	506
770.258	498
772.664	450
775.068	476
777.472	452
779.876	486
782.278	512
784.679	552
787.08	580
789.48	662
791.879	690
794.278	716
796.675	762
799.072	740
801.467	668
803.864	590
806.258	538
808.651	486
811.044	446
813.437	400
815.828	410
818.218	374
820.608	362
822.997	302
825.385	306
827.773	304
830.16	310
832.546	314
834.931	352
837.315	356
839.699	394
842.081	428
844.463	378
846.844	424
849.226	402
851.606	360
853.985	350
856.363	350
858.741	330
861.117	346
863.493	366
865.868	328
868.243	364
870.616	338
872.989	338
875.36	344
877.731	322
880.102	340
882.472	328
884.841	340
887.209	306
889.577	332
891.944	320
894.31	332
896.674	334
899.039	334
901.403	352
903.766	390
906.128	390
908.49	388
910.849	408
913.209	384
915.569	364
917.927	332
920.284	314
922.641	300
924.997	310
927.353	324
929.707	298
932.061	290
934.414	284
936.765	294
939.117	318
941.469	296
943.818	322
946.167	302
948.515	308
950.863	300
953.211	302
955.556	330
957.902	318
960.246	330
962.59	358
964.933	350
967.276	382
969.617	378
971.958	360
974.298	394
976.638	394
978.976	444
981.314	492
983.651	574
985.988	636
988.323	892
990.659	1206
992.992	1778
995.325	1922
997.658	2370
999.99	4230
1002.32	6584
1004.65	6160
1006.98	3514
1009.31	1666
1011.64	876
1013.97	660
1016.29	528
1018.62	514
1020.94	582
1023.27	674
1025.59	856
1027.91	1258
1030.24	1664
1032.56	2024
1034.88	1922
1037.2	1458
1039.52	1006
1041.84	768
1044.15	658
1046.47	556
1048.79	496
1051.1	468
1053.42	440
1055.73	450
1058.04	434
1060.36	444
1062.67	468
1064.98	486
1067.29	498
1069.6	492
1071.91	474
1074.22	460
1076.52	474
1078.83	482
1081.14	498
1083.44	462
1085.75	464
1088.05	484
1090.35	464
1092.65	468
1094.95	464
1097.26	466
1099.56	492
1101.86	500
1104.15	452
1106.45	420
1108.75	412
1111.05	400
1113.34	392
1115.64	386
1117.93	368
1120.22	372
1122.52	348
1124.81	352
1127.1	324
1129.39	314
1131.68	330
1133.97	344
1136.26	334
1138.54	362
1140.83	368
1143.12	374
1145.4	404
1147.69	480
1149.97	564
1152.25	704
1154.54	908
1156.82	1010
1159.1	914
1161.38	780
1163.66	598
1165.94	554
1168.22	544
1170.49	576
1172.77	588
1175.05	708
1177.32	794
1179.6	1008
1181.87	1214
1184.14	1256
1186.42	1198
1188.69	1106
1190.96	1138
1193.23	1168
1195.5	1274
1197.77	1304
1200.03	1278
1202.3	1226
1204.57	1118
1206.83	1020
1209.1	908
1211.36	726
1213.63	640
1215.89	606
1218.15	572
1220.41	542
1222.67	508
1224.93	518
1227.19	490
1229.45	484
1231.71	494
1233.97	446
1236.22	438
1238.48	430
1240.73	422
1242.99	430
1245.24	402
1247.5	412
1249.75	402
1252	402
1254.25	388
1256.5	386
1258.75	408
1261	404
1263.25	392
1265.49	422
1267.74	402
1269.99	412
1272.23	406
1274.48	410
1276.72	394
1278.96	404
1281.21	400
1283.45	386
1285.69	402
1287.93	414
1290.17	422
1292.41	412
1294.64	450
1296.88	468
1299.12	432
1301.36	460
1303.59	426
1305.82	462
1308.06	470
1310.29	494
1312.52	484
1314.76	520
1316.99	476
1319.22	550
1321.45	570
1323.68	532
1325.9	558
1328.13	594
1330.36	602
1332.58	586
1334.81	580
1337.04	564
1339.26	534
1341.48	484
1343.71	502
1345.93	462
1348.15	438
1350.37	420
1352.59	432
1354.81	442
1357.03	410
1359.24	444
1361.46	414
1363.68	426
1365.89	432
1368.11	414
1370.32	432
1372.54	434
1374.75	434
1376.96	430
1379.17	398
1381.38	410
1383.59	396
1385.8	366
1388.01	358
1390.22	358
1392.43	308
1394.63	314
1396.84	320
1399.05	336
1401.25	322
1403.45	322
1405.66	318
1407.86	344
1410.06	340
1412.26	312
1414.46	334
1416.66	314
1418.86	324
1421.06	296
1423.26	336
1425.46	320
1427.65	348
1429.85	326
1432.04	362
1434.24	358
1436.43	408
1438.62	442
1440.82	504
1443.01	542
1445.2	584
1447.39	626
1449.58	676
1451.77	646
1453.95	640
1456.14	590
1458.33	492
1460.52	436
1462.7	406
1464.89	378
1467.07	364
1469.25	330
1471.44	342
1473.62	334
1475.8	330
1477.98	328
1480.16	326
1482.34	344
1484.52	324
1486.7	336
1488.87	312
1491.05	324
1493.23	330
1495.4	334
1497.58	364
1499.75	322
1501.92	300
1504.1	336
1506.27	322
1508.44	292
1510.61	312
1512.78	316
1514.95	310
1517.12	310
1519.28	312
1521.45	314
1523.62	332
1525.78	314
1527.95	316
1530.11	336
1532.28	312
1534.44	324
1536.6	324
1538.76	308
1540.93	344
1543.09	348
1545.25	324
1547.41	326
1549.56	330
1551.72	312
1553.88	348
1556.03	312
1558.19	348
1560.35	350
1562.5	358
1564.65	364
1566.81	354
1568.96	364
1571.11	386
1573.26	418
1575.41	448
1577.56	542
1579.71	644
1581.86	832
1584.01	1012
1586.15	904
1588.3	746
1590.45	644
1592.59	626
1594.74	740
1596.88	912
1599.02	1314
1601.17	1710
1603.31	1902
1605.45	1766
1607.59	1346
1609.73	974
1611.87	732
1614.01	582
1616.14	512
1618.28	444
1620.42	440
1622.55	436
1624.69	414
1626.82	396
1628.96	356
1631.09	346
1633.22	368
1635.36	368
1637.49	346
1639.62	366
1641.75	380
1643.88	376
1646	376
1648.13	394
1650.26	392
1652.39	372
1654.51	344
1656.64	346
1658.76	330
1660.89	332
1663.01	330
1665.13	320
1667.26	330
1669.38	324
1671.5	326
1673.62	340
1675.74	342
1677.86	348
1679.97	322
1682.09	336
1684.21	332
1686.33	338
1688.44	352
1690.56	328
1692.67	338
1694.78	340
1696.9	340
1699.01	324
1701.12	322
1703.23	326
1705.34	322
1707.45	322
1709.56	326
1711.67	312
1713.78	320
1715.88	310
1717.99	334
1720.1	304
1722.2	310
1724.31	338
1726.41	326
1728.51	324
1730.62	342
1732.72	314
1734.82	312
1736.92	332
1739.02	312
1741.12	304
1743.22	312
1745.32	306
1747.42	320
1749.51	328
1751.61	322
1753.7	350
1755.8	334
1757.89	330
1759.99	328
1762.08	314
1764.17	324
1766.26	330
1768.36	300
1770.45	294
1772.54	310
1774.62	324
1776.71	314
1778.8	322
1780.89	340
1782.98	336
1785.06	320
1787.15	320
1789.23	316
1791.32	316
1793.4	316
1795.48	312
1797.56	296
1799.65	342
1801.73	334
1803.81	316
1805.89	342
1807.97	334
1810.04	328
1812.12	326
1814.2	342
1816.28	330
1818.35	338
1820.43	356
1822.5	330
1824.58	342
1826.65	336
1828.72	332
1830.79	326
1832.86	318
1834.94	318
1837.01	318
1839.08	326
1841.15	340
1843.21	310
1845.28	328
1847.35	336
1849.41	322
1851.48	330
1853.55	346
1855.61	346
1857.67	324
1859.74	340
1861.8	340
1863.86	324
1865.92	310
1867.98	324
1870.05	332
1872.1	326
1874.16	318
1876.22	328
1878.28	346
1880.34	334
1882.39	336
1884.45	316
1886.5	342
1888.56	332
1890.61	332
1892.67	342
1894.72	336
1896.77	338
1898.82	316
1900.87	336
1902.92	330
1904.97	344
1907.02	356
1909.07	330
1911.12	354
1913.17	346
1915.21	336
1917.26	338
1919.3	346
1921.35	322
1923.39	362
1925.43	340
1927.48	346
1929.52	342
1931.56	364
1933.6	348
1935.64	348
1937.68	322
1939.72	352
1941.76	330
1943.8	342
1945.83	344
1947.87	340
1949.91	336
1951.94	360
1953.98	338
1956.01	326
1958.05	366
1960.08	354
1962.11	346
1964.14	348
1966.17	336
1968.2	320
1970.23	334
1972.26	334
1974.29	340
1976.32	358
1978.35	324
1980.37	336
1982.4	354
1984.43	346
1986.45	332
1988.48	340
1990.5	336
1992.52	340
1994.55	348
1996.57	328
1998.59	322
2000.61	344
2002.63	316
2004.65	340
2006.67	328
2008.69	366
2010.7	358
2012.72	348
2014.74	354
2016.75	344
2018.77	346
2020.78	350
2022.8	340
2024.81	366
2026.83	356
2028.84	374
2030.85	364
2032.86	350
2034.87	346
2036.88	366
2038.89	346
2040.9	360
2042.91	350
2044.91	354
2046.92	364
2048.93	344
2050.93	370
2052.94	332
2054.94	350
2056.95	364
2058.95	348
2060.95	352
2062.95	356
2064.96	348
2066.96	356
2068.96	362
2070.96	344
2072.96	368
2074.95	348
2076.95	352
2078.95	338
2080.95	346
2082.94	354
2084.94	356
2086.93	364
2088.93	334
2090.92	372
2092.91	354
2094.91	324
2096.9	382
2098.89	346
2100.88	362
2102.87	352
2104.86	348
2106.85	360
2108.84	358
2110.83	374
2112.81	356
2114.8	352
2116.78	344
2118.77	358
2120.75	348
2122.74	364
2124.72	358
2126.71	364
2128.69	350
2130.67	358
2132.65	342
2134.63	350
2136.61	352
2138.59	336
2140.57	368
2142.55	354
2144.53	328
2146.5	348
2148.48	370
2150.46	364
2152.43	366
2154.41	380
2156.38	350
2158.35	354
2160.33	352
2162.3	362
2164.27	366
2166.24	352
2168.21	366
2170.18	346
2172.15	366
2174.12	342
2176.09	370
2178.06	366
2180.03	372
2181.99	346
2183.96	376
2185.92	388
2187.89	380
2189.85	356
2191.82	346
2193.78	364
2195.74	380
2197.7	374
2199.67	390
2201.63	380
2203.59	376
2205.55	356
2207.51	362
2209.46	376
2211.42	356
2213.38	362
2215.34	374
2217.29	366
2219.25	348
2221.2	354
2223.16	358
2225.11	338
2227.06	358
2229.02	338
2230.97	366
2232.92	344
2234.87	374
2236.82	368
2238.77	364
2240.72	372
2242.67	354
2244.62	368
2246.57	360
2248.51	380
2250.46	370
2252.4	366
2254.35	358
2256.29	388
2258.24	356
2260.18	350
2262.13	350
2264.07	374
2266.01	374
2267.95	382
2269.89	358
2271.83	356
2273.77	376
2275.71	334
2277.65	358
2279.58	376
2281.52	368
2283.46	372
2285.4	362
2287.33	370
2289.27	366
2291.2	372
2293.13	378
2295.07	376
2297	388
2298.93	366
2300.86	376
2302.79	368
2304.72	366
2306.65	348
2308.58	378
2310.51	392
2312.44	370
2314.37	356
2316.29	364
2318.22	372
2320.15	356
2322.07	350
2324	382
2325.92	368
2327.84	368
2329.77	364
2331.69	378
2333.61	382
2335.53	354
2337.45	378
2339.37	366
2341.29	384
2343.21	386
2345.13	364
2347.05	372
2348.97	394
2350.88	364
2352.8	364
2354.71	384
2356.63	362
2358.54	378
2360.46	380
2362.37	364
2364.28	368
2366.2	362
2368.11	382
2370.02	374
2371.93	384
2373.84	344
2375.75	384
2377.66	374
2379.57	364
2381.47	368
2383.38	362
2385.29	354
2387.2	380
2389.1	376
2391.01	386
2392.91	368
2394.81	388
2396.72	352
2398.62	370
2400.52	378
2402.42	358
2404.33	370
2406.23	372
2408.13	372
2410.03	368
2411.92	392
2413.82	386
2415.72	358
2417.62	382
2419.51	368
2421.41	370
2423.31	394
2425.2	382
2427.1	384
2428.99	390
2430.88	388
2432.78	376
2434.67	392
2436.56	382
2438.45	372
2440.34	390
2442.23	362
2444.12	384
2446.01	400
2447.9	376
2449.79	376