File: Mixture_Classification/Jesse_Dataset_v2/Pure Raman/Polystyrene/633nm/ps-ppo-7jan25-1,0000-map3_Y05_X07.txt
182.393	1024
184.993	988
187.593	970
190.193	948
192.79	932
195.387	930
197.983	912
200.578	958
203.174	956
205.766	982
208.36	972
210.951	1014
213.542	1046
216.131	1044
218.721	1094
221.309	1080
223.897	1088
226.483	1076
229.069	1012
231.654	936
234.238	816
236.821	758
239.404	700
241.984	586
244.566	530
247.145	478
249.723	424
252.302	408
254.878	414
257.455	372
260.03	338
262.604	350
265.178	346
267.75	342
270.322	342
272.893	330
275.463	318
278.032	312
280.601	306
283.168	308
285.734	298
288.301	284
290.866	262
293.429	266
295.992	260
298.556	244
301.117	234
303.677	242
306.236	240
308.795	236
311.354	230
313.911	238
316.467	260
319.022	272
321.577	260
324.13	242
326.684	252
329.236	254
331.787	258
334.337	248
336.887	246
339.435	230
341.983	240
344.529	238
347.075	224
349.621	252
352.165	240
354.708	220
357.251	252
359.793	242
362.334	230
364.874	238
367.413	242
369.951	240
372.489	250
375.026	248
377.562	264
380.097	252
382.631	262
385.164	268
387.697	286
390.229	266
392.76	286
395.29	274
397.819	292
400.346	320
402.873	336
405.4	350
407.926	370
410.451	378
412.976	344
415.499	328
418.02	284
420.542	268
423.063	272
425.583	264
428.101	244
430.619	244
433.137	250
435.654	232
438.169	250
440.684	258
443.198	238
445.712	240
448.223	228
450.735	220
453.246	214
455.755	212
458.264	184
460.771	210
463.279	200
465.786	194
468.291	204
470.796	204
473.301	208
475.803	214
478.306	194
480.807	188
483.308	194
485.807	200
488.307	184
490.804	182
493.302	206
495.798	206
498.294	192
500.788	216
503.283	220
505.775	230
508.269	228
510.759	230
513.251	216
515.74	208
518.23	216
520.718	226
523.204	230
525.692	212
528.177	230
530.663	230
533.147	244
535.629	262
538.113	238
540.594	292
543.074	280
545.555	262
548.034	292
550.512	264
552.989	280
555.467	270
557.942	244
560.417	280
562.892	270
565.365	268
567.838	256
570.309	280
572.78	268
575.251	260
577.72	262
580.189	250
582.656	252
585.123	258
587.589	228
590.055	246
592.52	240
594.983	264
597.446	226
599.908	226
602.369	246
604.829	266
607.289	288
609.747	306
612.205	326
614.663	342
617.119	434
619.574	730
622.029	1084
624.483	1014
626.936	576
629.389	348
631.84	312
634.291	268
636.741	252
639.19	216
641.639	226
644.086	208
646.533	212
648.979	212
651.424	198
653.869	200
656.313	200
658.754	198
661.196	186
663.638	192
666.078	188
668.518	206
670.957	182
673.394	204
675.831	194
678.268	198
680.703	188
683.137	200
685.571	180
688.005	202
690.437	202
692.868	210
695.299	194
697.729	218
700.159	220
702.586	236
705.014	256
707.441	252
709.866	240
712.292	232
714.716	230
717.14	234
719.563	242
721.984	264
724.406	316
726.825	334
729.246	318
731.665	310
734.082	302
736.5	322
738.916	350
741.332	380
743.746	404
746.161	414
748.574	416
750.987	418
753.398	438
755.81	456
758.219	470
760.629	520
763.037	514
765.445	498
767.852	468
770.258	472
772.664	440
775.068	446
777.472	456
779.876	456
782.278	510
784.679	520
787.08	570
789.48	636
791.879	686
794.278	706
796.675	730
799.072	740
801.467	612
803.864	584
806.258	480
808.651	456
811.044	410
813.437	408
815.828	374
818.218	336
820.608	310
822.997	306
825.385	284
827.773	306
830.16	294
832.546	302
834.931	316
837.315	340
839.699	380
842.081	398
844.463	398
846.844	396
849.226	382
851.606	354
853.985	340
856.363	342
858.741	296
861.117	290
863.493	318
865.868	290
868.243	326
870.616	310
872.989	340
875.36	328
877.731	322
880.102	294
882.472	304
884.841	312
887.209	304
889.577	306
891.944	296
894.31	318
896.674	300
899.039	328
901.403	330
903.766	380
906.128	386
908.49	388
910.849	362
913.209	362
915.569	296
917.927	292
920.284	298
922.641	290
924.997	268
927.353	280
929.707	278
932.061	282
934.414	284
936.765	288
939.117	270
941.469	296
943.818	282
946.167	292
948.515	270
950.863	270
953.211	292
955.556	302
957.902	290
960.246	316
962.59	312
964.933	336
967.276	350
969.617	336
971.958	348
974.298	360
976.638	394
978.976	414
981.314	486
983.651	538
985.988	628
988.323	804
990.659	1204
992.992	1780
995.325	1950
997.658	2346
999.99	4182
1002.32	6550
1004.65	6154
1006.98	3364
1009.31	1570
1011.64	872
1013.97	602
1016.29	498
1018.62	480
1020.94	518
1023.27	634
1025.59	844
1027.91	1206
1030.24	1658
1032.56	1968
1034.88	1850
1037.2	1448
1039.52	992
1041.84	740
1044.15	556
1046.47	472
1048.79	464
1051.1	432
1053.42	424
1055.73	424
1058.04	412
1060.36	424
1062.67	430
1064.98	450
1067.29	460
1069.6	454
1071.91	460
1074.22	454
1076.52	458
1078.83	446
1081.14	422
1083.44	438
1085.75	442
1088.05	422
1090.35	440
1092.65	430
1094.95	424
1097.26	440
1099.56	450
1101.86	440
1104.15	406
1106.45	402
1108.75	370
1111.05	380
1113.34	348
1115.64	358
1117.93	338
1120.22	320
1122.52	318
1124.81	284
1127.1	300
1129.39	286
1131.68	286
1133.97	296
1136.26	300
1138.54	312
1140.83	328
1143.12	354
1145.4	380
1147.69	428
1149.97	500
1152.25	672
1154.54	892
1156.82	1000
1159.1	894
1161.38	710
1163.66	562
1165.94	528
1168.22	524
1170.49	534
1172.77	578
1175.05	640
1177.32	758
1179.6	958
1181.87	1184
1184.14	1212
1186.42	1134
1188.69	1030
1190.96	1024
1193.23	1144
1195.5	1234
1197.77	1222
1200.03	1212
1202.3	1154
1204.57	1118
1206.83	984
1209.1	844
1211.36	708
1213.63	608
1215.89	560
1218.15	504
1220.41	516
1222.67	452
1224.93	470
1227.19	462
1229.45	432
1231.71	428
1233.97	408
1236.22	396
1238.48	400
1240.73	372
1242.99	380
1245.24	364
1247.5	382
1249.75	378
1252	374
1254.25	356
1256.5	368
1258.75	376
1261	358
1263.25	370
1265.49	334
1267.74	372
1269.99	364
1272.23	382
1274.48	348
1276.72	348
1278.96	334
1281.21	364
1283.45	356
1285.69	372
1287.93	356
1290.17	372
1292.41	380
1294.64	374
1296.88	392
1299.12	396
1301.36	422
1303.59	428
1305.82	418
1308.06	434
1310.29	424
1312.52	448
1314.76	436
1316.99	460
1319.22	470
1321.45	506
1323.68	500
1325.9	522
1328.13	518
1330.36	574
1332.58	510
1334.81	514
1337.04	512
1339.26	466
1341.48	458
1343.71	430
1345.93	408
1348.15	390
1350.37	388
1352.59	388
1354.81	384
1357.03	348
1359.24	364
1361.46	392
1363.68	370
1365.89	364
1368.11	402
1370.32	378
1372.54	370
1374.75	386
1376.96	380
1379.17	354
1381.38	320
1383.59	356
1385.8	324
1388.01	286
1390.22	294
1392.43	284
1394.63	280
1396.84	276
1399.05	296
1401.25	278
1403.45	266
1405.66	274
1407.86	294
1410.06	280
1412.26	282
1414.46	276
1416.66	264
1418.86	276
1421.06	268
1423.26	280
1425.46	276
1427.65	260
1429.85	282
1432.04	294
1434.24	330
1436.43	364
1438.62	406
1440.82	446
1443.01	504
1445.2	538
1447.39	580
1449.58	618
1451.77	596
1453.95	590
1456.14	534
1458.33	468
1460.52	370
1462.7	334
1464.89	314
1467.07	298
1469.25	294
1471.44	284
1473.62	290
1475.8	292
1477.98	292
1480.16	282
1482.34	282
1484.52	274
1486.7	284
1488.87	280
1491.05	288
1493.23	302
1495.4	304
1497.58	290
1499.75	278
1501.92	280
1504.1	280
1506.27	276
1508.44	278
1510.61	280
1512.78	278
1514.95	266
1517.12	258
1519.28	256
1521.45	268
1523.62	256
1525.78	276
1527.95	272
1530.11	280
1532.28	256
1534.44	278
1536.6	272
1538.76	272
1540.93	268
1543.09	276
1545.25	270
1547.41	276
1549.56	286
1551.72	290
1553.88	296
1556.03	294
1558.19	306
1560.35	306
1562.5	316
1564.65	312
1566.81	320
1568.96	332
1571.11	342
1573.26	378
1575.41	410
1577.56	486
1579.71	584
1581.86	816
1584.01	996
1586.15	912
1588.3	722
1590.45	606
1592.59	606
1594.74	696
1596.88	894
1599.02	1232
1601.17	1634
1603.31	1910
1605.45	1710
1607.59	1306
1609.73	932
1611.87	692
1614.01	556
1616.14	498
1618.28	436
1620.42	396
1622.55	374
1624.69	366
1626.82	344
1628.96	336
1631.09	324
1633.22	336
1635.36	314
1637.49	330
1639.62	326
1641.75	326
1643.88	352
1646	340
1648.13	358
1650.26	346
1652.39	346
1654.51	318
1656.64	320
1658.76	294
1660.89	314
1663.01	290
1665.13	286
1667.26	276
1669.38	286
1671.5	304
1673.62	288
1675.74	296
1677.86	312
1679.97	296
1682.09	306
1684.21	310
1686.33	304
1688.44	294
1690.56	282
1692.67	308
1694.78	290
1696.9	282
1699.01	294
1701.12	280
1703.23	302
1705.34	282
1707.45	280
1709.56	282
1711.67	278
1713.78	280
1715.88	294
1717.99	282
1720.1	288
1722.2	304
1724.31	296
1726.41	290
1728.51	288
1730.62	290
1732.72	278
1734.82	284
1736.92	276
1739.02	280
1741.12	298
1743.22	290
1745.32	290
1747.42	298
1749.51	280
1751.61	300
1753.7	288
1755.8	292
1757.89	282
1759.99	290
1762.08	282
1764.17	276
1766.26	296
1768.36	284
1770.45	286
1772.54	294
1774.62	294
1776.71	290
1778.8	298
1780.89	290
1782.98	292
1785.06	288
1787.15	282
1789.23	306
1791.32	294
1793.4	296
1795.48	286
1797.56	300
1799.65	278
1801.73	296
1803.81	316
1805.89	294
1807.97	316
1810.04	300
1812.12	300
1814.2	316
1816.28	284
1818.35	312
1820.43	292
1822.5	318
1824.58	312
1826.65	306
1828.72	296
1830.79	300
1832.86	294
1834.94	304
1837.01	310
1839.08	286
1841.15	282
1843.21	312
1845.28	310
1847.35	298
1849.41	298
1851.48	300
1853.55	292
1855.61	300
1857.67	300
1859.74	302
1861.8	294
1863.86	300
1865.92	310
1867.98	300
1870.05	298
1872.1	306
1874.16	288
1876.22	300
1878.28	302
1880.34	298
1882.39	302
1884.45	308
1886.5	312
1888.56	314
1890.61	304
1892.67	324
1894.72	304
1896.77	316
1898.82	308
1900.87	302
1902.92	314
1904.97	298
1907.02	298
1909.07	314
1911.12	322
1913.17	324
1915.21	320
1917.26	306
1919.3	320
1921.35	324
1923.39	332
1925.43	314
1927.48	326
1929.52	318
1931.56	318
1933.6	320
1935.64	306
1937.68	326
1939.72	326
1941.76	316
1943.8	306
1945.83	314
1947.87	314
1949.91	328
1951.94	320
1953.98	316
1956.01	320
1958.05	300
1960.08	318
1962.11	308
1964.14	320
1966.17	316
1968.2	334
1970.23	324
1972.26	312
1974.29	310
1976.32	318
1978.35	316
1980.37	308
1982.4	336
1984.43	312
1986.45	296
1988.48	312
1990.5	302
1992.52	310
1994.55	308
1996.57	318
1998.59	320
2000.61	304
2002.63	318
2004.65	322
2006.67	310
2008.69	306
2010.7	338
2012.72	314
2014.74	322
2016.75	318
2018.77	308
2020.78	326
2022.8	332
2024.81	326
2026.83	324
2028.84	322
2030.85	304
2032.86	310
2034.87	310
2036.88	346
2038.89	334
2040.9	334
2042.91	334
2044.91	310
2046.92	336
2048.93	332
2050.93	326
2052.94	322
2054.94	326
2056.95	320
2058.95	318
2060.95	326
2062.95	330
2064.96	340
2066.96	322
2068.96	332
2070.96	324
2072.96	340
2074.95	318
2076.95	330
2078.95	322
2080.95	330
2082.94	310
2084.94	316
2086.93	318
2088.93	330
2090.92	334
2092.91	326
2094.91	330
2096.9	332
2098.89	332
2100.88	328
2102.87	308
2104.86	314
2106.85	338
2108.84	324
2110.83	316
2112.81	360
2114.8	332
2116.78	356
2118.77	334
2120.75	326
2122.74	348
2124.72	350
2126.71	328
2128.69	332
2130.67	330
2132.65	328
2134.63	352
2136.61	340
2138.59	346
2140.57	326
2142.55	344
2144.53	330
2146.5	344
2148.48	350
2150.46	324
2152.43	326
2154.41	324
2156.38	334
2158.35	310
2160.33	344
2162.3	334
2164.27	334
2166.24	340
2168.21	334
2170.18	342
2172.15	326
2174.12	342
2176.09	334
2178.06	348
2180.03	340
2181.99	340
2183.96	336
2185.92	332
2187.89	332
2189.85	330
2191.82	364
2193.78	328
2195.74	328
2197.7	358
2199.67	348
2201.63	340
2203.59	352
2205.55	348
2207.51	348
2209.46	322
2211.42	344
2213.38	336
2215.34	336
2217.29	354
2219.25	330
2221.2	318
2223.16	346
2225.11	340
2227.06	330
2229.02	336
2230.97	336
2232.92	354
2234.87	338
2236.82	342
2238.77	338
2240.72	340
2242.67	346
2244.62	344
2246.57	348
2248.51	334
2250.46	332
2252.4	358
2254.35	328
2256.29	344
2258.24	336
2260.18	344
2262.13	346
2264.07	344
2266.01	324
2267.95	356
2269.89	356
2271.83	340
2273.77	342
2275.71	338
2277.65	354
2279.58	350
2281.52	348
2283.46	328
2285.4	352
2287.33	348
2289.27	330
2291.2	354
2293.13	356
2295.07	346
2297	328
2298.93	360
2300.86	356
2302.79	350
2304.72	372
2306.65	346
2308.58	362
2310.51	346
2312.44	350
2314.37	350
2316.29	350
2318.22	352
2320.15	342
2322.07	352
2324	328
2325.92	330
2327.84	354
2329.77	354
2331.69	360
2333.61	350
2335.53	350
2337.45	354
2339.37	360
2341.29	344
2343.21	374
2345.13	348
2347.05	338
2348.97	352
2350.88	340
2352.8	354
2354.71	360
2356.63	352
2358.54	356
2360.46	360
2362.37	346
2364.28	344
2366.2	352
2368.11	348
2370.02	344
2371.93	338
2373.84	356
2375.75	354
2377.66	370
2379.57	342
2381.47	368
2383.38	350
2385.29	352
2387.2	358
2389.1	348
2391.01	352
2392.91	348
2394.81	352
2396.72	350
2398.62	360
2400.52	354
2402.42	368
2404.33	366
2406.23	352
2408.13	350
2410.03	356
2411.92	370
2413.82	364
2415.72	342
2417.62	356
2419.51	338
2421.41	360
2423.31	366
2425.2	344
2427.1	366
2428.99	370
2430.88	374
2432.78	358
2434.67	350
2436.56	374
2438.45	366
2440.34	366
2442.23	362
2444.12	368
2446.01	370
2447.9	374
2449.79	346