File: Mixture_Classification/Jesse_Dataset_v2/Pure Raman/Polystyrene/633nm/ps-ppo-7jan25-1,0000-map3_Y10_X01.txt
182.393	1030
184.993	1000
187.593	914
190.193	932
192.79	918
195.387	898
197.983	922
200.578	894
203.174	938
205.766	970
208.36	970
210.951	1026
213.542	1038
216.131	1056
218.721	1070
221.309	1090
223.897	1086
226.483	1028
229.069	986
231.654	886
234.238	800
236.821	764
239.404	648
241.984	588
244.566	500
247.145	458
249.723	408
252.302	410
254.878	366
257.455	352
260.03	344
262.604	336
265.178	320
267.75	292
270.322	320
272.893	310
275.463	306
278.032	282
280.601	266
283.168	288
285.734	268
288.301	264
290.866	256
293.429	220
295.992	234
298.556	222
301.117	226
303.677	234
306.236	226
308.795	238
311.354	234
313.911	216
316.467	238
319.022	224
321.577	226
324.13	224
326.684	230
329.236	246
331.787	232
334.337	230
336.887	228
339.435	210
341.983	216
344.529	190
347.075	212
349.621	210
352.165	198
354.708	218
357.251	186
359.793	208
362.334	206
364.874	212
367.413	202
369.951	202
372.489	234
375.026	214
377.562	228
380.097	236
382.631	244
385.164	252
387.697	250
390.229	250
392.76	274
395.29	278
397.819	260
400.346	284
402.873	302
405.4	330
407.926	336
410.451	314
412.976	312
415.499	278
418.02	256
420.542	256
423.063	240
425.583	218
428.101	220
430.619	228
433.137	212
435.654	220
438.169	218
440.684	224
443.198	194
445.712	206
448.223	194
450.735	202
453.246	186
455.755	174
458.264	174
460.771	174
463.279	188
465.786	178
468.291	168
470.796	168
473.301	180
475.803	180
478.306	168
480.807	182
483.308	168
485.807	166
488.307	166
490.804	150
493.302	172
495.798	166
498.294	158
500.788	180
503.283	192
505.775	186
508.269	178
510.759	200
513.251	182
515.74	184
518.23	176
520.718	192
523.204	188
525.692	190
528.177	198
530.663	208
533.147	216
535.629	228
538.113	238
540.594	244
543.074	252
545.555	270
548.034	234
550.512	248
552.989	244
555.467	242
557.942	228
560.417	258
562.892	226
565.365	240
567.838	230
570.309	242
572.78	240
575.251	238
577.72	236
580.189	224
582.656	212
585.123	212
587.589	210
590.055	200
592.52	200
594.983	192
597.446	206
599.908	206
602.369	206
604.829	220
607.289	244
609.747	284
612.205	268
614.663	284
617.119	412
619.574	692
622.029	1098
624.483	948
626.936	516
629.389	336
631.84	274
634.291	224
636.741	232
639.19	198
641.639	182
644.086	160
646.533	170
648.979	164
651.424	172
653.869	164
656.313	156
658.754	152
661.196	176
663.638	150
666.078	166
668.518	156
670.957	150
673.394	154
675.831	176
678.268	164
680.703	150
683.137	158
685.571	164
688.005	168
690.437	172
692.868	158
695.299	166
697.729	170
700.159	196
702.586	192
705.014	206
707.441	200
709.866	192
712.292	198
714.716	200
717.14	210
719.563	222
721.984	240
724.406	280
726.825	284
729.246	266
731.665	256
734.082	270
736.5	288
738.916	326
741.332	362
743.746	368
746.161	372
748.574	382
750.987	390
753.398	404
755.81	416
758.219	484
760.629	458
763.037	484
765.445	436
767.852	458
770.258	394
772.664	404
775.068	410
777.472	392
779.876	416
782.278	422
784.679	498
787.08	556
789.48	586
791.879	618
794.278	648
796.675	656
799.072	652
801.467	602
803.864	530
806.258	448
808.651	420
811.044	360
813.437	358
815.828	342
818.218	316
820.608	268
822.997	264
825.385	256
827.773	256
830.16	244
832.546	264
834.931	270
837.315	308
839.699	336
842.081	356
844.463	380
846.844	332
849.226	320
851.606	322
853.985	298
856.363	256
858.741	290
861.117	290
863.493	280
865.868	280
868.243	274
870.616	274
872.989	280
875.36	286
877.731	260
880.102	266
882.472	256
884.841	254
887.209	246
889.577	254
891.944	250
894.31	278
896.674	266
899.039	268
901.403	298
903.766	330
906.128	340
908.49	362
910.849	328
913.209	308
915.569	272
917.927	264
920.284	264
922.641	230
924.997	236
927.353	262
929.707	242
932.061	226
934.414	230
936.765	250
939.117	226
941.469	258
943.818	232
946.167	262
948.515	240
950.863	258
953.211	266
955.556	268
957.902	258
960.246	272
962.59	296
964.933	302
967.276	302
969.617	312
971.958	332
974.298	320
976.638	358
978.976	398
981.314	454
983.651	514
985.988	580
988.323	778
990.659	1166
992.992	1704
995.325	1898
997.658	2408
999.99	4298
1002.32	6600
1004.65	6082
1006.98	3354
1009.31	1536
1011.64	784
1013.97	532
1016.29	460
1018.62	458
1020.94	486
1023.27	640
1025.59	824
1027.91	1182
1030.24	1616
1032.56	1910
1034.88	1874
1037.2	1426
1039.52	938
1041.84	686
1044.15	530
1046.47	480
1048.79	418
1051.1	378
1053.42	384
1055.73	378
1058.04	374
1060.36	396
1062.67	402
1064.98	394
1067.29	434
1069.6	436
1071.91	420
1074.22	410
1076.52	422
1078.83	412
1081.14	392
1083.44	384
1085.75	416
1088.05	402
1090.35	416
1092.65	400
1094.95	420
1097.26	398
1099.56	418
1101.86	398
1104.15	382
1106.45	358
1108.75	338
1111.05	312
1113.34	318
1115.64	314
1117.93	290
1120.22	300
1122.52	280
1124.81	264
1127.1	268
1129.39	254
1131.68	258
1133.97	268
1136.26	260
1138.54	292
1140.83	288
1143.12	320
1145.4	348
1147.69	402
1149.97	476
1152.25	660
1154.54	878
1156.82	932
1159.1	842
1161.38	664
1163.66	552
1165.94	498
1168.22	486
1170.49	498
1172.77	506
1175.05	614
1177.32	744
1179.6	972
1181.87	1110
1184.14	1176
1186.42	1080
1188.69	1014
1190.96	1052
1193.23	1142
1195.5	1178
1197.77	1192
1200.03	1210
1202.3	1158
1204.57	1060
1206.83	928
1209.1	812
1211.36	728
1213.63	586
1215.89	520
1218.15	470
1220.41	444
1222.67	434
1224.93	440
1227.19	412
1229.45	412
1231.71	388
1233.97	376
1236.22	356
1238.48	376
1240.73	350
1242.99	332
1245.24	362
1247.5	366
1249.75	346
1252	332
1254.25	348
1256.5	352
1258.75	334
1261	342
1263.25	344
1265.49	364
1267.74	324
1269.99	314
1272.23	336
1274.48	324
1276.72	332
1278.96	338
1281.21	334
1283.45	334
1285.69	336
1287.93	348
1290.17	352
1292.41	346
1294.64	364
1296.88	374
1299.12	378
1301.36	374
1303.59	384
1305.82	414
1308.06	408
1310.29	412
1312.52	402
1314.76	432
1316.99	418
1319.22	440
1321.45	482
1323.68	514
1325.9	502
1328.13	524
1330.36	504
1332.58	506
1334.81	484
1337.04	476
1339.26	434
1341.48	424
1343.71	382
1345.93	388
1348.15	372
1350.37	364
1352.59	336
1354.81	356
1357.03	364
1359.24	348
1361.46	350
1363.68	358
1365.89	358
1368.11	360
1370.32	364
1372.54	368
1374.75	358
1376.96	366
1379.17	352
1381.38	302
1383.59	288
1385.8	296
1388.01	276
1390.22	250
1392.43	260
1394.63	260
1396.84	250
1399.05	244
1401.25	266
1403.45	262
1405.66	256
1407.86	266
1410.06	256
1412.26	264
1414.46	248
1416.66	246
1418.86	248
1421.06	240
1423.26	248
1425.46	268
1427.65	252
1429.85	278
1432.04	288
1434.24	314
1436.43	350
1438.62	392
1440.82	424
1443.01	462
1445.2	522
1447.39	552
1449.58	582
1451.77	584
1453.95	568
1456.14	524
1458.33	452
1460.52	376
1462.7	318
1464.89	292
1467.07	280
1469.25	268
1471.44	272
1473.62	248
1475.8	252
1477.98	260
1480.16	274
1482.34	252
1484.52	258
1486.7	256
1488.87	264
1491.05	270
1493.23	270
1495.4	294
1497.58	274
1499.75	262
1501.92	258
1504.1	250
1506.27	260
1508.44	250
1510.61	252
1512.78	242
1514.95	256
1517.12	218
1519.28	260
1521.45	256
1523.62	240
1525.78	268
1527.95	260
1530.11	268
1532.28	248
1534.44	256
1536.6	270
1538.76	258
1540.93	256
1543.09	270
1545.25	254
1547.41	266
1549.56	270
1551.72	258
1553.88	262
1556.03	272
1558.19	300
1560.35	280
1562.5	282
1564.65	308
1566.81	298
1568.96	322
1571.11	330
1573.26	372
1575.41	392
1577.56	446
1579.71	572
1581.86	816
1584.01	986
1586.15	898
1588.3	708
1590.45	564
1592.59	560
1594.74	680
1596.88	882
1599.02	1212
1601.17	1664
1603.31	1890
1605.45	1626
1607.59	1250
1609.73	918
1611.87	622
1614.01	542
1616.14	464
1618.28	424
1620.42	382
1622.55	360
1624.69	332
1626.82	324
1628.96	302
1631.09	328
1633.22	302
1635.36	308
1637.49	300
1639.62	310
1641.75	320
1643.88	324
1646	322
1648.13	332
1650.26	322
1652.39	314
1654.51	320
1656.64	288
1658.76	286
1660.89	280
1663.01	270
1665.13	276
1667.26	276
1669.38	274
1671.5	284
1673.62	292
1675.74	296
1677.86	274
1679.97	274
1682.09	298
1684.21	268
1686.33	262
1688.44	298
1690.56	266
1692.67	274
1694.78	276
1696.9	284
1699.01	280
1701.12	268
1703.23	264
1705.34	256
1707.45	254
1709.56	262
1711.67	268
1713.78	272
1715.88	268
1717.99	260
1720.1	258
1722.2	240
1724.31	268
1726.41	288
1728.51	272
1730.62	280
1732.72	264
1734.82	274
1736.92	268
1739.02	274
1741.12	266
1743.22	264
1745.32	276
1747.42	254
1749.51	266
1751.61	276
1753.7	248
1755.8	274
1757.89	276
1759.99	262
1762.08	270
1764.17	294
1766.26	264
1768.36	268
1770.45	268
1772.54	274
1774.62	260
1776.71	266
1778.8	256
1780.89	278
1782.98	278
1785.06	274
1787.15	280
1789.23	272
1791.32	268
1793.4	280
1795.48	272
1797.56	274
1799.65	276
1801.73	264
1803.81	280
1805.89	294
1807.97	288
1810.04	274
1812.12	284
1814.2	270
1816.28	274
1818.35	270
1820.43	302
1822.5	292
1824.58	256
1826.65	278
1828.72	292
1830.79	284
1832.86	282
1834.94	280
1837.01	282
1839.08	260
1841.15	258
1843.21	262
1845.28	270
1847.35	298
1849.41	274
1851.48	280
1853.55	260
1855.61	276
1857.67	258
1859.74	274
1861.8	276
1863.86	292
1865.92	268
1867.98	264
1870.05	276
1872.1	286
1874.16	276
1876.22	284
1878.28	282
1880.34	270
1882.39	292
1884.45	274
1886.5	296
1888.56	294
1890.61	288
1892.67	274
1894.72	266
1896.77	300
1898.82	288
1900.87	284
1902.92	292
1904.97	290
1907.02	270
1909.07	284
1911.12	280
1913.17	288
1915.21	292
1917.26	286
1919.3	282
1921.35	300
1923.39	296
1925.43	298
1927.48	290
1929.52	284
1931.56	280
1933.6	308
1935.64	302
1937.68	302
1939.72	290
1941.76	270
1943.8	308
1945.83	278
1947.87	292
1949.91	294
1951.94	302
1953.98	294
1956.01	292
1958.05	280
1960.08	306
1962.11	288
1964.14	296
1966.17	298
1968.2	290
1970.23	296
1972.26	288
1974.29	276
1976.32	306
1978.35	298
1980.37	280
1982.4	278
1984.43	284
1986.45	276
1988.48	294
1990.5	280
1992.52	270
1994.55	296
1996.57	296
1998.59	306
2000.61	278
2002.63	292
2004.65	306
2006.67	312
2008.69	282
2010.7	300
2012.72	280
2014.74	288
2016.75	292
2018.77	298
2020.78	308
2022.8	288
2024.81	298
2026.83	310
2028.84	312
2030.85	306
2032.86	296
2034.87	308
2036.88	300
2038.89	290
2040.9	304
2042.91	298
2044.91	306
2046.92	312
2048.93	310
2050.93	308
2052.94	294
2054.94	304
2056.95	316
2058.95	300
2060.95	300
2062.95	312
2064.96	308
2066.96	290
2068.96	294
2070.96	330
2072.96	312
2074.95	298
2076.95	298
2078.95	298
2080.95	302
2082.94	320
2084.94	308
2086.93	306
2088.93	276
2090.92	304
2092.91	302
2094.91	304
2096.9	296
2098.89	306
2100.88	282
2102.87	310
2104.86	294
2106.85	308
2108.84	320
2110.83	312
2112.81	310
2114.8	298
2116.78	294
2118.77	324
2120.75	296
2122.74	296
2124.72	308
2126.71	322
2128.69	308
2130.67	314
2132.65	294
2134.63	306
2136.61	308
2138.59	302
2140.57	318
2142.55	328
2144.53	310
2146.5	318
2148.48	316
2150.46	306
2152.43	318
2154.41	312
2156.38	308
2158.35	300
2160.33	332
2162.3	294
2164.27	310
2166.24	322
2168.21	312
2170.18	316
2172.15	318
2174.12	296
2176.09	310
2178.06	318
2180.03	310
2181.99	302
2183.96	326
2185.92	314
2187.89	300
2189.85	304
2191.82	310
2193.78	342
2195.74	334
2197.7	314
2199.67	294
2201.63	324
2203.59	316
2205.55	320
2207.51	312
2209.46	320
2211.42	312
2213.38	324
2215.34	304
2217.29	320
2219.25	330
2221.2	326
2223.16	290
2225.11	334
2227.06	306
2229.02	320
2230.97	320
2232.92	302
2234.87	328
2236.82	304
2238.77	324
2240.72	312
2242.67	316
2244.62	298
2246.57	306
2248.51	304
2250.46	314
2252.4	308
2254.35	324
2256.29	330
2258.24	320
2260.18	314
2262.13	320
2264.07	308
2266.01	316
2267.95	314
2269.89	324
2271.83	324
2273.77	324
2275.71	318
2277.65	322
2279.58	330
2281.52	332
2283.46	326
2285.4	312
2287.33	330
2289.27	334
2291.2	320
2293.13	334
2295.07	330
2297	334
2298.93	332
2300.86	332
2302.79	342
2304.72	320
2306.65	322
2308.58	336
2310.51	346
2312.44	328
2314.37	326
2316.29	330
2318.22	310
2320.15	314
2322.07	324
2324	316
2325.92	308
2327.84	324
2329.77	334
2331.69	318
2333.61	320
2335.53	332
2337.45	320
2339.37	336
2341.29	324
2343.21	332
2345.13	332
2347.05	332
2348.97	328
2350.88	326
2352.8	338
2354.71	334
2356.63	358
2358.54	330
2360.46	334
2362.37	318
2364.28	330
2366.2	328
2368.11	332
2370.02	334
2371.93	346
2373.84	342
2375.75	352
2377.66	344
2379.57	328
2381.47	358
2383.38	318
2385.29	334
2387.2	320
2389.1	328
2391.01	334
2392.91	336
2394.81	324
2396.72	330
2398.62	342
2400.52	340
2402.42	344
2404.33	316
2406.23	354
2408.13	338
2410.03	344
2411.92	338
2413.82	344
2415.72	326
2417.62	350
2419.51	338
2421.41	334
2423.31	346
2425.2	332
2427.1	358
2428.99	336
2430.88	334
2432.78	342
2434.67	352
2436.56	360
2438.45	338
2440.34	348
2442.23	344
2444.12	334
2446.01	344
2447.9	348
2449.79	338