File: Mixture_Classification/Jesse_Dataset_v2/Pure Raman/Polystyrene/633nm/ps-ppo-7jan25-1,0000-map3_Y06_X06.txt
182.393	1030
184.993	996
187.593	974
190.193	964
192.79	970
195.387	982
197.983	962
200.578	944
203.174	980
205.766	1014
208.36	1006
210.951	1010
213.542	1044
216.131	1076
218.721	1084
221.309	1108
223.897	1084
226.483	1058
229.069	1020
231.654	934
234.238	868
236.821	810
239.404	698
241.984	606
244.566	538
247.145	452
249.723	432
252.302	414
254.878	408
257.455	384
260.03	388
262.604	388
265.178	384
267.75	360
270.322	330
272.893	358
275.463	330
278.032	332
280.601	316
283.168	312
285.734	296
288.301	296
290.866	286
293.429	288
295.992	264
298.556	256
301.117	260
303.677	262
306.236	266
308.795	272
311.354	246
313.911	264
316.467	258
319.022	274
321.577	260
324.13	252
326.684	274
329.236	242
331.787	240
334.337	266
336.887	266
339.435	258
341.983	246
344.529	252
347.075	232
349.621	224
352.165	242
354.708	244
357.251	240
359.793	240
362.334	242
364.874	242
367.413	220
369.951	252
372.489	254
375.026	260
377.562	252
380.097	260
382.631	274
385.164	272
387.697	278
390.229	286
392.76	282
395.29	308
397.819	326
400.346	304
402.873	324
405.4	348
407.926	352
410.451	336
412.976	336
415.499	326
418.02	312
420.542	302
423.063	284
425.583	266
428.101	246
430.619	258
433.137	246
435.654	244
438.169	254
440.684	246
443.198	250
445.712	232
448.223	230
450.735	220
453.246	208
455.755	218
458.264	204
460.771	202
463.279	222
465.786	200
468.291	206
470.796	198
473.301	182
475.803	224
478.306	206
480.807	206
483.308	204
485.807	188
488.307	200
490.804	184
493.302	200
495.798	202
498.294	192
500.788	206
503.283	224
505.775	222
508.269	212
510.759	226
513.251	200
515.74	224
518.23	220
520.718	220
523.204	218
525.692	214
528.177	222
530.663	238
533.147	250
535.629	258
538.113	278
540.594	274
543.074	272
545.555	284
548.034	276
550.512	304
552.989	280
555.467	272
557.942	286
560.417	268
562.892	266
565.365	276
567.838	264
570.309	264
572.78	288
575.251	274
577.72	262
580.189	240
582.656	256
585.123	226
587.589	220
590.055	228
592.52	228
594.983	228
597.446	234
599.908	236
602.369	248
604.829	256
607.289	276
609.747	296
612.205	294
614.663	334
617.119	426
619.574	748
622.029	1122
624.483	1004
626.936	564
629.389	362
631.84	298
634.291	270
636.741	224
639.19	250
641.639	216
644.086	210
646.533	204
648.979	200
651.424	186
653.869	190
656.313	192
658.754	202
661.196	190
663.638	172
666.078	170
668.518	186
670.957	198
673.394	192
675.831	188
678.268	192
680.703	200
683.137	186
685.571	190
688.005	194
690.437	192
692.868	206
695.299	192
697.729	236
700.159	212
702.586	234
705.014	224
707.441	226
709.866	206
712.292	226
714.716	226
717.14	240
719.563	250
721.984	256
724.406	316
726.825	346
729.246	318
731.665	296
734.082	278
736.5	308
738.916	344
741.332	370
743.746	384
746.161	386
748.574	408
750.987	406
753.398	434
755.81	480
758.219	470
760.629	492
763.037	510
765.445	488
767.852	472
770.258	470
772.664	446
775.068	452
777.472	442
779.876	442
782.278	474
784.679	518
787.08	570
789.48	624
791.879	660
794.278	706
796.675	702
799.072	690
801.467	648
803.864	574
806.258	488
808.651	460
811.044	388
813.437	416
815.828	386
818.218	330
820.608	342
822.997	296
825.385	274
827.773	296
830.16	288
832.546	298
834.931	286
837.315	334
839.699	362
842.081	390
844.463	390
846.844	362
849.226	344
851.606	336
853.985	340
856.363	314
858.741	310
861.117	326
863.493	314
865.868	302
868.243	330
870.616	326
872.989	306
875.36	310
877.731	310
880.102	302
882.472	296
884.841	300
887.209	290
889.577	302
891.944	292
894.31	278
896.674	332
899.039	318
901.403	334
903.766	324
906.128	378
908.49	364
910.849	344
913.209	336
915.569	316
917.927	310
920.284	268
922.641	274
924.997	292
927.353	270
929.707	284
932.061	270
934.414	266
936.765	270
939.117	288
941.469	306
943.818	276
946.167	306
948.515	302
950.863	286
953.211	282
955.556	284
957.902	304
960.246	306
962.59	298
964.933	346
967.276	336
969.617	334
971.958	368
974.298	328
976.638	386
978.976	428
981.314	492
983.651	540
985.988	634
988.323	792
990.659	1210
992.992	1738
995.325	1894
997.658	2284
999.99	4168
1002.32	6610
1004.65	6174
1006.98	3440
1009.31	1592
1011.64	844
1013.97	598
1016.29	498
1018.62	494
1020.94	524
1023.27	628
1025.59	864
1027.91	1178
1030.24	1654
1032.56	1954
1034.88	1920
1037.2	1414
1039.52	982
1041.84	712
1044.15	562
1046.47	490
1048.79	464
1051.1	436
1053.42	406
1055.73	414
1058.04	400
1060.36	414
1062.67	432
1064.98	420
1067.29	432
1069.6	454
1071.91	480
1074.22	436
1076.52	442
1078.83	422
1081.14	412
1083.44	422
1085.75	452
1088.05	456
1090.35	440
1092.65	430
1094.95	436
1097.26	432
1099.56	434
1101.86	434
1104.15	428
1106.45	400
1108.75	372
1111.05	358
1113.34	356
1115.64	312
1117.93	332
1120.22	310
1122.52	308
1124.81	300
1127.1	288
1129.39	252
1131.68	296
1133.97	298
1136.26	308
1138.54	308
1140.83	306
1143.12	328
1145.4	356
1147.69	430
1149.97	494
1152.25	680
1154.54	914
1156.82	988
1159.1	906
1161.38	724
1163.66	596
1165.94	542
1168.22	498
1170.49	528
1172.77	544
1175.05	632
1177.32	804
1179.6	996
1181.87	1174
1184.14	1180
1186.42	1130
1188.69	1054
1190.96	1080
1193.23	1122
1195.5	1232
1197.77	1220
1200.03	1248
1202.3	1168
1204.57	1100
1206.83	982
1209.1	860
1211.36	758
1213.63	644
1215.89	552
1218.15	496
1220.41	494
1222.67	480
1224.93	462
1227.19	446
1229.45	436
1231.71	422
1233.97	384
1236.22	386
1238.48	378
1240.73	390
1242.99	366
1245.24	390
1247.5	376
1249.75	372
1252	372
1254.25	372
1256.5	372
1258.75	346
1261	362
1263.25	354
1265.49	352
1267.74	356
1269.99	358
1272.23	358
1274.48	350
1276.72	346
1278.96	356
1281.21	326
1283.45	362
1285.69	364
1287.93	384
1290.17	386
1292.41	400
1294.64	390
1296.88	406
1299.12	410
1301.36	414
1303.59	434
1305.82	412
1308.06	442
1310.29	406
1312.52	428
1314.76	456
1316.99	460
1319.22	466
1321.45	504
1323.68	520
1325.9	550
1328.13	558
1330.36	558
1332.58	524
1334.81	546
1337.04	508
1339.26	466
1341.48	448
1343.71	442
1345.93	406
1348.15	400
1350.37	384
1352.59	392
1354.81	390
1357.03	378
1359.24	368
1361.46	390
1363.68	376
1365.89	402
1368.11	388
1370.32	408
1372.54	404
1374.75	378
1376.96	402
1379.17	356
1381.38	356
1383.59	332
1385.8	326
1388.01	304
1390.22	278
1392.43	274
1394.63	262
1396.84	292
1399.05	286
1401.25	272
1403.45	296
1405.66	310
1407.86	292
1410.06	274
1412.26	286
1414.46	286
1416.66	266
1418.86	276
1421.06	278
1423.26	282
1425.46	280
1427.65	288
1429.85	306
1432.04	306
1434.24	312
1436.43	378
1438.62	408
1440.82	454
1443.01	476
1445.2	502
1447.39	586
1449.58	598
1451.77	592
1453.95	602
1456.14	556
1458.33	482
1460.52	388
1462.7	348
1464.89	330
1467.07	320
1469.25	292
1471.44	294
1473.62	300
1475.8	290
1477.98	292
1480.16	288
1482.34	294
1484.52	302
1486.7	294
1488.87	284
1491.05	294
1493.23	298
1495.4	290
1497.58	298
1499.75	294
1501.92	268
1504.1	284
1506.27	274
1508.44	284
1510.61	276
1512.78	276
1514.95	270
1517.12	290
1519.28	274
1521.45	290
1523.62	270
1525.78	266
1527.95	278
1530.11	302
1532.28	304
1534.44	280
1536.6	278
1538.76	278
1540.93	296
1543.09	284
1545.25	286
1547.41	258
1549.56	292
1551.72	286
1553.88	318
1556.03	294
1558.19	304
1560.35	316
1562.5	320
1564.65	310
1566.81	314
1568.96	332
1571.11	358
1573.26	394
1575.41	428
1577.56	482
1579.71	610
1581.86	794
1584.01	1002
1586.15	924
1588.3	736
1590.45	594
1592.59	604
1594.74	710
1596.88	902
1599.02	1220
1601.17	1676
1603.31	1904
1605.45	1752
1607.59	1282
1609.73	960
1611.87	710
1614.01	550
1616.14	490
1618.28	442
1620.42	402
1622.55	384
1624.69	394
1626.82	374
1628.96	332
1631.09	322
1633.22	336
1635.36	332
1637.49	318
1639.62	336
1641.75	354
1643.88	346
1646	352
1648.13	362
1650.26	334
1652.39	340
1654.51	332
1656.64	310
1658.76	316
1660.89	290
1663.01	312
1665.13	302
1667.26	306
1669.38	276
1671.5	294
1673.62	308
1675.74	290
1677.86	294
1679.97	310
1682.09	300
1684.21	304
1686.33	294
1688.44	298
1690.56	304
1692.67	294
1694.78	308
1696.9	316
1699.01	312
1701.12	292
1703.23	298
1705.34	288
1707.45	284
1709.56	282
1711.67	284
1713.78	312
1715.88	298
1717.99	296
1720.1	276
1722.2	280
1724.31	280
1726.41	296
1728.51	292
1730.62	286
1732.72	278
1734.82	272
1736.92	300
1739.02	286
1741.12	296
1743.22	284
1745.32	286
1747.42	294
1749.51	280
1751.61	284
1753.7	264
1755.8	290
1757.89	300
1759.99	270
1762.08	294
1764.17	290
1766.26	294
1768.36	274
1770.45	292
1772.54	306
1774.62	298
1776.71	294
1778.8	300
1780.89	298
1782.98	302
1785.06	284
1787.15	294
1789.23	296
1791.32	300
1793.4	304
1795.48	292
1797.56	294
1799.65	288
1801.73	282
1803.81	330
1805.89	292
1807.97	294
1810.04	304
1812.12	296
1814.2	314
1816.28	312
1818.35	316
1820.43	300
1822.5	304
1824.58	296
1826.65	300
1828.72	336
1830.79	288
1832.86	290
1834.94	318
1837.01	304
1839.08	304
1841.15	314
1843.21	302
1845.28	294
1847.35	292
1849.41	292
1851.48	280
1853.55	290
1855.61	310
1857.67	318
1859.74	292
1861.8	294
1863.86	288
1865.92	292
1867.98	294
1870.05	282
1872.1	294
1874.16	270
1876.22	292
1878.28	304
1880.34	324
1882.39	318
1884.45	312
1886.5	300
1888.56	302
1890.61	302
1892.67	304
1894.72	318
1896.77	316
1898.82	312
1900.87	296
1902.92	298
1904.97	324
1907.02	314
1909.07	322
1911.12	306
1913.17	312
1915.21	310
1917.26	328
1919.3	312
1921.35	302
1923.39	304
1925.43	306
1927.48	318
1929.52	308
1931.56	332
1933.6	324
1935.64	324
1937.68	306
1939.72	304
1941.76	330
1943.8	326
1945.83	304
1947.87	294
1949.91	324
1951.94	312
1953.98	332
1956.01	336
1958.05	324
1960.08	304
1962.11	324
1964.14	312
1966.17	312
1968.2	298
1970.23	306
1972.26	310
1974.29	284
1976.32	310
1978.35	316
1980.37	316
1982.4	320
1984.43	300
1986.45	326
1988.48	312
1990.5	308
1992.52	306
1994.55	316
1996.57	322
1998.59	322
2000.61	324
2002.63	316
2004.65	324
2006.67	308
2008.69	304
2010.7	314
2012.72	292
2014.74	308
2016.75	322
2018.77	328
2020.78	318
2022.8	306
2024.81	324
2026.83	332
2028.84	314
2030.85	308
2032.86	310
2034.87	302
2036.88	330
2038.89	326
2040.9	314
2042.91	308
2044.91	336
2046.92	336
2048.93	326
2050.93	322
2052.94	328
2054.94	322
2056.95	320
2058.95	318
2060.95	318
2062.95	336
2064.96	314
2066.96	310
2068.96	322
2070.96	332
2072.96	322
2074.95	334
2076.95	326
2078.95	328
2080.95	330
2082.94	320
2084.94	324
2086.93	306
2088.93	320
2090.92	334
2092.91	336
2094.91	302
2096.9	322
2098.89	318
2100.88	326
2102.87	320
2104.86	342
2106.85	322
2108.84	324
2110.83	310
2112.81	308
2114.8	326
2116.78	328
2118.77	320
2120.75	324
2122.74	332
2124.72	336
2126.71	340
2128.69	330
2130.67	342
2132.65	308
2134.63	330
2136.61	322
2138.59	352
2140.57	318
2142.55	342
2144.53	338
2146.5	324
2148.48	334
2150.46	326
2152.43	322
2154.41	340
2156.38	352
2158.35	328
2160.33	332
2162.3	340
2164.27	348
2166.24	312
2168.21	308
2170.18	322
2172.15	334
2174.12	320
2176.09	302
2178.06	328
2180.03	332
2181.99	324
2183.96	334
2185.92	350
2187.89	342
2189.85	324
2191.82	344
2193.78	346
2195.74	310
2197.7	340
2199.67	342
2201.63	362
2203.59	342
2205.55	350
2207.51	340
2209.46	326
2211.42	356
2213.38	330
2215.34	328
2217.29	332
2219.25	332
2221.2	338
2223.16	332
2225.11	334
2227.06	338
2229.02	334
2230.97	340
2232.92	320
2234.87	332
2236.82	350
2238.77	326
2240.72	360
2242.67	344
2244.62	336
2246.57	332
2248.51	344
2250.46	338
2252.4	332
2254.35	342
2256.29	336
2258.24	336
2260.18	336
2262.13	354
2264.07	366
2266.01	336
2267.95	356
2269.89	372
2271.83	360
2273.77	336
2275.71	344
2277.65	342
2279.58	338
2281.52	334
2283.46	342
2285.4	342
2287.33	360
2289.27	322
2291.2	342
2293.13	362
2295.07	352
2297	340
2298.93	350
2300.86	322
2302.79	348
2304.72	334
2306.65	342
2308.58	360
2310.51	348
2312.44	350
2314.37	334
2316.29	342
2318.22	334
2320.15	364
2322.07	348
2324	336
2325.92	346
2327.84	346
2329.77	338
2331.69	342
2333.61	334
2335.53	356
2337.45	344
2339.37	352
2341.29	344
2343.21	346
2345.13	350
2347.05	346
2348.97	352
2350.88	340
2352.8	352
2354.71	338
2356.63	348
2358.54	338
2360.46	350
2362.37	352
2364.28	352
2366.2	346
2368.11	356
2370.02	342
2371.93	338
2373.84	358
2375.75	364
2377.66	312
2379.57	342
2381.47	350
2383.38	358
2385.29	334
2387.2	334
2389.1	354
2391.01	356
2392.91	338
2394.81	352
2396.72	358
2398.62	354
2400.52	366
2402.42	352
2404.33	350
2406.23	358
2408.13	342
2410.03	370
2411.92	340
2413.82	364
2415.72	350
2417.62	358
2419.51	362
2421.41	358
2423.31	362
2425.2	358
2427.1	360
2428.99	354
2430.88	366
2432.78	364
2434.67	380
2436.56	382
2438.45	360
2440.34	356
2442.23	386
2444.12	364
2446.01	374
2447.9	366
2449.79	366