File: Mixture_Classification/Jesse_Dataset_v2/Pure Raman/Polystyrene/633nm/ps-ppo-7jan25-1,0000-map3_Y06_X08.txt
182.393	1094
184.993	1012
187.593	1002
190.193	980
192.79	1034
195.387	956
197.983	978
200.578	978
203.174	988
205.766	1014
208.36	1026
210.951	1076
213.542	1084
216.131	1104
218.721	1102
221.309	1116
223.897	1092
226.483	1090
229.069	1042
231.654	972
234.238	878
236.821	810
239.404	712
241.984	624
244.566	570
247.145	510
249.723	482
252.302	438
254.878	408
257.455	398
260.03	402
262.604	410
265.178	390
267.75	380
270.322	410
272.893	366
275.463	356
278.032	348
280.601	358
283.168	338
285.734	328
288.301	318
290.866	314
293.429	308
295.992	286
298.556	288
301.117	280
303.677	284
306.236	306
308.795	280
311.354	298
313.911	288
316.467	274
319.022	282
321.577	292
324.13	274
326.684	282
329.236	280
331.787	286
334.337	280
336.887	266
339.435	282
341.983	282
344.529	282
347.075	270
349.621	262
352.165	260
354.708	250
357.251	260
359.793	258
362.334	260
364.874	264
367.413	270
369.951	272
372.489	258
375.026	284
377.562	284
380.097	278
382.631	296
385.164	304
387.697	310
390.229	310
392.76	322
395.29	302
397.819	320
400.346	326
402.873	346
405.4	366
407.926	356
410.451	394
412.976	368
415.499	336
418.02	310
420.542	312
423.063	286
425.583	286
428.101	278
430.619	262
433.137	274
435.654	268
438.169	256
440.684	254
443.198	242
445.712	260
448.223	248
450.735	242
453.246	244
455.755	228
458.264	234
460.771	212
463.279	224
465.786	204
468.291	222
470.796	204
473.301	230
475.803	210
478.306	208
480.807	208
483.308	202
485.807	212
488.307	206
490.804	198
493.302	202
495.798	214
498.294	220
500.788	218
503.283	236
505.775	236
508.269	230
510.759	222
513.251	232
515.74	218
518.23	222
520.718	244
523.204	228
525.692	230
528.177	260
530.663	230
533.147	252
535.629	250
538.113	284
540.594	286
543.074	292
545.555	284
548.034	274
550.512	264
552.989	284
555.467	266
557.942	292
560.417	288
562.892	290
565.365	280
567.838	282
570.309	278
572.78	276
575.251	284
577.72	270
580.189	260
582.656	258
585.123	238
587.589	238
590.055	228
592.52	250
594.983	238
597.446	236
599.908	232
602.369	238
604.829	260
607.289	264
609.747	314
612.205	288
614.663	358
617.119	446
619.574	726
622.029	1150
624.483	998
626.936	548
629.389	366
631.84	288
634.291	270
636.741	238
639.19	214
641.639	224
644.086	218
646.533	204
648.979	180
651.424	184
653.869	186
656.313	204
658.754	176
661.196	188
663.638	200
666.078	180
668.518	190
670.957	180
673.394	200
675.831	200
678.268	188
680.703	196
683.137	194
685.571	198
688.005	194
690.437	202
692.868	192
695.299	188
697.729	192
700.159	234
702.586	218
705.014	238
707.441	240
709.866	242
712.292	244
714.716	234
717.14	238
719.563	250
721.984	278
724.406	314
726.825	342
729.246	314
731.665	300
734.082	290
736.5	302
738.916	350
741.332	396
743.746	392
746.161	408
748.574	434
750.987	416
753.398	448
755.81	476
758.219	488
760.629	502
763.037	496
765.445	478
767.852	468
770.258	470
772.664	470
775.068	446
777.472	410
779.876	436
782.278	470
784.679	508
787.08	586
789.48	612
791.879	666
794.278	696
796.675	734
799.072	706
801.467	666
803.864	574
806.258	500
808.651	434
811.044	422
813.437	392
815.828	376
818.218	330
820.608	316
822.997	314
825.385	278
827.773	288
830.16	292
832.546	290
834.931	318
837.315	348
839.699	380
842.081	404
844.463	386
846.844	394
849.226	352
851.606	336
853.985	302
856.363	318
858.741	306
861.117	328
863.493	318
865.868	340
868.243	318
870.616	314
872.989	324
875.36	306
877.731	318
880.102	318
882.472	304
884.841	298
887.209	312
889.577	314
891.944	304
894.31	318
896.674	306
899.039	326
901.403	342
903.766	364
906.128	404
908.49	380
910.849	376
913.209	362
915.569	334
917.927	324
920.284	286
922.641	298
924.997	286
927.353	284
929.707	296
932.061	278
934.414	292
936.765	270
939.117	294
941.469	304
943.818	286
946.167	308
948.515	284
950.863	312
953.211	304
955.556	312
957.902	314
960.246	316
962.59	322
964.933	346
967.276	376
969.617	348
971.958	354
974.298	390
976.638	386
978.976	430
981.314	494
983.651	558
985.988	652
988.323	830
990.659	1190
992.992	1774
995.325	1920
997.658	2348
999.99	4240
1002.32	6572
1004.65	6094
1006.98	3456
1009.31	1554
1011.64	866
1013.97	622
1016.29	522
1018.62	484
1020.94	556
1023.27	670
1025.59	840
1027.91	1210
1030.24	1688
1032.56	2010
1034.88	1866
1037.2	1466
1039.52	1030
1041.84	720
1044.15	582
1046.47	528
1048.79	490
1051.1	462
1053.42	426
1055.73	446
1058.04	438
1060.36	448
1062.67	454
1064.98	484
1067.29	480
1069.6	470
1071.91	474
1074.22	464
1076.52	474
1078.83	440
1081.14	478
1083.44	474
1085.75	464
1088.05	474
1090.35	450
1092.65	458
1094.95	478
1097.26	486
1099.56	458
1101.86	440
1104.15	456
1106.45	426
1108.75	402
1111.05	406
1113.34	392
1115.64	382
1117.93	382
1120.22	358
1122.52	332
1124.81	322
1127.1	312
1129.39	314
1131.68	302
1133.97	320
1136.26	328
1138.54	350
1140.83	366
1143.12	390
1145.4	404
1147.69	478
1149.97	564
1152.25	694
1154.54	910
1156.82	1020
1159.1	938
1161.38	732
1163.66	642
1165.94	558
1168.22	532
1170.49	554
1172.77	620
1175.05	680
1177.32	816
1179.6	1016
1181.87	1226
1184.14	1276
1186.42	1146
1188.69	1116
1190.96	1128
1193.23	1184
1195.5	1248
1197.77	1266
1200.03	1232
1202.3	1186
1204.57	1134
1206.83	1000
1209.1	844
1211.36	768
1213.63	688
1215.89	616
1218.15	562
1220.41	520
1222.67	536
1224.93	522
1227.19	506
1229.45	480
1231.71	484
1233.97	432
1236.22	448
1238.48	408
1240.73	422
1242.99	404
1245.24	408
1247.5	430
1249.75	430
1252	424
1254.25	418
1256.5	410
1258.75	416
1261	422
1263.25	408
1265.49	424
1267.74	388
1269.99	420
1272.23	398
1274.48	382
1276.72	388
1278.96	410
1281.21	396
1283.45	388
1285.69	402
1287.93	422
1290.17	404
1292.41	434
1294.64	448
1296.88	436
1299.12	418
1301.36	450
1303.59	434
1305.82	462
1308.06	466
1310.29	484
1312.52	494
1314.76	504
1316.99	496
1319.22	524
1321.45	542
1323.68	542
1325.9	560
1328.13	596
1330.36	594
1332.58	578
1334.81	532
1337.04	524
1339.26	526
1341.48	486
1343.71	446
1345.93	458
1348.15	438
1350.37	426
1352.59	418
1354.81	450
1357.03	416
1359.24	404
1361.46	428
1363.68	424
1365.89	440
1368.11	418
1370.32	436
1372.54	416
1374.75	434
1376.96	414
1379.17	386
1381.38	392
1383.59	392
1385.8	354
1388.01	344
1390.22	320
1392.43	320
1394.63	320
1396.84	288
1399.05	306
1401.25	304
1403.45	310
1405.66	300
1407.86	332
1410.06	308
1412.26	318
1414.46	304
1416.66	288
1418.86	310
1421.06	304
1423.26	288
1425.46	316
1427.65	300
1429.85	322
1432.04	350
1434.24	366
1436.43	378
1438.62	426
1440.82	472
1443.01	532
1445.2	572
1447.39	620
1449.58	612
1451.77	654
1453.95	610
1456.14	564
1458.33	488
1460.52	432
1462.7	374
1464.89	336
1467.07	342
1469.25	330
1471.44	322
1473.62	324
1475.8	318
1477.98	328
1480.16	322
1482.34	322
1484.52	298
1486.7	316
1488.87	326
1491.05	336
1493.23	330
1495.4	340
1497.58	336
1499.75	318
1501.92	308
1504.1	308
1506.27	292
1508.44	314
1510.61	304
1512.78	308
1514.95	278
1517.12	290
1519.28	302
1521.45	306
1523.62	290
1525.78	278
1527.95	296
1530.11	286
1532.28	284
1534.44	292
1536.6	288
1538.76	302
1540.93	294
1543.09	336
1545.25	302
1547.41	300
1549.56	304
1551.72	308
1553.88	314
1556.03	314
1558.19	304
1560.35	312
1562.5	330
1564.65	344
1566.81	338
1568.96	372
1571.11	370
1573.26	394
1575.41	422
1577.56	482
1579.71	598
1581.86	818
1584.01	1008
1586.15	930
1588.3	742
1590.45	614
1592.59	614
1594.74	736
1596.88	908
1599.02	1214
1601.17	1718
1603.31	1900
1605.45	1714
1607.59	1288
1609.73	956
1611.87	716
1614.01	562
1616.14	500
1618.28	436
1620.42	426
1622.55	406
1624.69	392
1626.82	362
1628.96	356
1631.09	350
1633.22	366
1635.36	354
1637.49	338
1639.62	360
1641.75	358
1643.88	352
1646	360
1648.13	352
1650.26	344
1652.39	348
1654.51	346
1656.64	332
1658.76	322
1660.89	310
1663.01	318
1665.13	314
1667.26	314
1669.38	304
1671.5	318
1673.62	304
1675.74	322
1677.86	304
1679.97	318
1682.09	300
1684.21	308
1686.33	328
1688.44	312
1690.56	304
1692.67	302
1694.78	312
1696.9	314
1699.01	304
1701.12	304
1703.23	308
1705.34	292
1707.45	296
1709.56	288
1711.67	298
1713.78	300
1715.88	290
1717.99	294
1720.1	312
1722.2	266
1724.31	324
1726.41	308
1728.51	298
1730.62	298
1732.72	296
1734.82	304
1736.92	302
1739.02	308
1741.12	304
1743.22	316
1745.32	298
1747.42	312
1749.51	302
1751.61	276
1753.7	294
1755.8	308
1757.89	292
1759.99	306
1762.08	298
1764.17	286
1766.26	286
1768.36	318
1770.45	302
1772.54	292
1774.62	306
1776.71	308
1778.8	306
1780.89	290
1782.98	316
1785.06	310
1787.15	296
1789.23	288
1791.32	274
1793.4	320
1795.48	312
1797.56	322
1799.65	290
1801.73	310
1803.81	302
1805.89	300
1807.97	304
1810.04	316
1812.12	316
1814.2	304
1816.28	312
1818.35	296
1820.43	314
1822.5	304
1824.58	306
1826.65	298
1828.72	320
1830.79	312
1832.86	298
1834.94	300
1837.01	312
1839.08	322
1841.15	308
1843.21	288
1845.28	316
1847.35	312
1849.41	298
1851.48	306
1853.55	318
1855.61	314
1857.67	304
1859.74	290
1861.8	298
1863.86	304
1865.92	324
1867.98	298
1870.05	308
1872.1	302
1874.16	322
1876.22	316
1878.28	282
1880.34	310
1882.39	304
1884.45	302
1886.5	298
1888.56	316
1890.61	322
1892.67	336
1894.72	314
1896.77	310
1898.82	304
1900.87	326
1902.92	312
1904.97	314
1907.02	318
1909.07	316
1911.12	318
1913.17	320
1915.21	334
1917.26	320
1919.3	292
1921.35	312
1923.39	318
1925.43	324
1927.48	320
1929.52	336
1931.56	322
1933.6	290
1935.64	338
1937.68	328
1939.72	338
1941.76	322
1943.8	324
1945.83	316
1947.87	312
1949.91	332
1951.94	304
1953.98	318
1956.01	336
1958.05	342
1960.08	328
1962.11	326
1964.14	312
1966.17	326
1968.2	310
1970.23	298
1972.26	320
1974.29	312
1976.32	316
1978.35	328
1980.37	310
1982.4	306
1984.43	314
1986.45	304
1988.48	318
1990.5	304
1992.52	326
1994.55	314
1996.57	318
1998.59	322
2000.61	328
2002.63	310
2004.65	330
2006.67	318
2008.69	330
2010.7	322
2012.72	324
2014.74	324
2016.75	332
2018.77	328
2020.78	318
2022.8	306
2024.81	334
2026.83	322
2028.84	328
2030.85	304
2032.86	304
2034.87	318
2036.88	328
2038.89	338
2040.9	330
2042.91	316
2044.91	332
2046.92	342
2048.93	324
2050.93	322
2052.94	340
2054.94	332
2056.95	314
2058.95	330
2060.95	338
2062.95	328
2064.96	324
2066.96	332
2068.96	334
2070.96	344
2072.96	330
2074.95	326
2076.95	340
2078.95	334
2080.95	324
2082.94	332
2084.94	322
2086.93	328
2088.93	344
2090.92	326
2092.91	340
2094.91	328
2096.9	328
2098.89	324
2100.88	322
2102.87	342
2104.86	348
2106.85	342
2108.84	322
2110.83	320
2112.81	348
2114.8	330
2116.78	320
2118.77	326
2120.75	318
2122.74	320
2124.72	340
2126.71	332
2128.69	344
2130.67	334
2132.65	338
2134.63	346
2136.61	338
2138.59	330
2140.57	348
2142.55	350
2144.53	358
2146.5	342
2148.48	362
2150.46	336
2152.43	338
2154.41	342
2156.38	332
2158.35	332
2160.33	356
2162.3	348
2164.27	332
2166.24	326
2168.21	338
2170.18	344
2172.15	346
2174.12	338
2176.09	360
2178.06	334
2180.03	344
2181.99	328
2183.96	340
2185.92	348
2187.89	352
2189.85	346
2191.82	334
2193.78	346
2195.74	348
2197.7	360
2199.67	336
2201.63	356
2203.59	346
2205.55	350
2207.51	336
2209.46	362
2211.42	346
2213.38	354
2215.34	346
2217.29	360
2219.25	342
2221.2	358
2223.16	344
2225.11	336
2227.06	340
2229.02	346
2230.97	346
2232.92	346
2234.87	344
2236.82	330
2238.77	362
2240.72	360
2242.67	354
2244.62	346
2246.57	338
2248.51	366
2250.46	324
2252.4	348
2254.35	346
2256.29	354
2258.24	360
2260.18	364
2262.13	338
2264.07	360
2266.01	370
2267.95	352
2269.89	362
2271.83	366
2273.77	356
2275.71	348
2277.65	338
2279.58	352
2281.52	338
2283.46	344
2285.4	346
2287.33	342
2289.27	348
2291.2	350
2293.13	336
2295.07	350
2297	364
2298.93	340
2300.86	362
2302.79	348
2304.72	338
2306.65	356
2308.58	346
2310.51	360
2312.44	358
2314.37	346
2316.29	370
2318.22	328
2320.15	354
2322.07	362
2324	358
2325.92	360
2327.84	360
2329.77	348
2331.69	340
2333.61	358
2335.53	348
2337.45	362
2339.37	358
2341.29	358
2343.21	346
2345.13	360
2347.05	354
2348.97	366
2350.88	354
2352.8	362
2354.71	370
2356.63	336
2358.54	368
2360.46	354
2362.37	374
2364.28	366
2366.2	366
2368.11	338
2370.02	362
2371.93	344
2373.84	350
2375.75	358
2377.66	344
2379.57	350
2381.47	336
2383.38	354
2385.29	366
2387.2	368
2389.1	370
2391.01	348
2392.91	336
2394.81	362
2396.72	368
2398.62	380
2400.52	356
2402.42	350
2404.33	372
2406.23	358
2408.13	358
2410.03	350
2411.92	350
2413.82	374
2415.72	392
2417.62	370
2419.51	352
2421.41	356
2423.31	374
2425.2	356
2427.1	366
2428.99	364
2430.88	342
2432.78	370
2434.67	372
2436.56	354
2438.45	364
2440.34	378
2442.23	378
2444.12	370
2446.01	354
2447.9	380
2449.79	376