File: Mixture_Classification/Jesse_Dataset_v2/Pure Raman/Polystyrene/633nm/ps-ppo-7jan25-1,0000-map3_Y01_X01.txt
182.393	1036
184.993	1022
187.593	976
190.193	968
192.79	950
195.387	954
197.983	984
200.578	944
203.174	922
205.766	996
208.36	976
210.951	1048
213.542	1034
216.131	1062
218.721	1074
221.309	1082
223.897	1092
226.483	1066
229.069	1012
231.654	934
234.238	848
236.821	742
239.404	654
241.984	588
244.566	526
247.145	464
249.723	412
252.302	398
254.878	392
257.455	368
260.03	368
262.604	346
265.178	348
267.75	342
270.322	332
272.893	338
275.463	336
278.032	316
280.601	292
283.168	282
285.734	302
288.301	274
290.866	268
293.429	230
295.992	260
298.556	224
301.117	226
303.677	240
306.236	226
308.795	230
311.354	248
313.911	228
316.467	256
319.022	238
321.577	254
324.13	248
326.684	238
329.236	218
331.787	242
334.337	236
336.887	228
339.435	242
341.983	222
344.529	248
347.075	234
349.621	222
352.165	226
354.708	222
357.251	234
359.793	210
362.334	214
364.874	230
367.413	232
369.951	234
372.489	240
375.026	238
377.562	250
380.097	232
382.631	258
385.164	254
387.697	268
390.229	266
392.76	274
395.29	284
397.819	278
400.346	288
402.873	302
405.4	334
407.926	362
410.451	354
412.976	334
415.499	302
418.02	310
420.542	282
423.063	280
425.583	234
428.101	248
430.619	252
433.137	224
435.654	246
438.169	226
440.684	238
443.198	220
445.712	208
448.223	228
450.735	202
453.246	180
455.755	186
458.264	188
460.771	184
463.279	196
465.786	192
468.291	190
470.796	188
473.301	172
475.803	178
478.306	198
480.807	178
483.308	194
485.807	172
488.307	186
490.804	168
493.302	190
495.798	182
498.294	198
500.788	184
503.283	196
505.775	204
508.269	194
510.759	210
513.251	202
515.74	214
518.23	214
520.718	192
523.204	196
525.692	218
528.177	206
530.663	236
533.147	224
535.629	226
538.113	272
540.594	254
543.074	258
545.555	256
548.034	268
550.512	250
552.989	250
555.467	270
557.942	262
560.417	244
562.892	248
565.365	276
567.838	254
570.309	272
572.78	264
575.251	262
577.72	252
580.189	258
582.656	234
585.123	228
587.589	228
590.055	220
592.52	224
594.983	208
597.446	214
599.908	228
602.369	238
604.829	238
607.289	268
609.747	276
612.205	304
614.663	332
617.119	436
619.574	726
622.029	1096
624.483	996
626.936	552
629.389	352
631.84	286
634.291	240
636.741	210
639.19	218
641.639	192
644.086	196
646.533	180
648.979	184
651.424	188
653.869	176
656.313	188
658.754	180
661.196	170
663.638	164
666.078	162
668.518	178
670.957	176
673.394	180
675.831	178
678.268	174
680.703	182
683.137	172
685.571	176
688.005	190
690.437	188
692.868	180
695.299	190
697.729	192
700.159	204
702.586	224
705.014	218
707.441	226
709.866	224
712.292	216
714.716	222
717.14	204
719.563	220
721.984	262
724.406	296
726.825	338
729.246	296
731.665	286
734.082	284
736.5	300
738.916	336
741.332	396
743.746	378
746.161	384
748.574	402
750.987	416
753.398	434
755.81	470
758.219	490
760.629	502
763.037	492
765.445	478
767.852	476
770.258	458
772.664	438
775.068	438
777.472	438
779.876	464
782.278	456
784.679	514
787.08	550
789.48	636
791.879	668
794.278	668
796.675	702
799.072	680
801.467	648
803.864	552
806.258	502
808.651	426
811.044	390
813.437	394
815.828	354
818.218	326
820.608	302
822.997	282
825.385	282
827.773	288
830.16	272
832.546	286
834.931	314
837.315	338
839.699	362
842.081	370
844.463	398
846.844	404
849.226	392
851.606	354
853.985	322
856.363	316
858.741	302
861.117	328
863.493	306
865.868	334
868.243	322
870.616	308
872.989	308
875.36	318
877.731	316
880.102	312
882.472	314
884.841	296
887.209	292
889.577	304
891.944	278
894.31	288
896.674	302
899.039	308
901.403	334
903.766	368
906.128	388
908.49	398
910.849	344
913.209	326
915.569	318
917.927	304
920.284	288
922.641	282
924.997	288
927.353	252
929.707	252
932.061	280
934.414	264
936.765	286
939.117	264
941.469	286
943.818	276
946.167	300
948.515	272
950.863	292
953.211	296
955.556	276
957.902	296
960.246	282
962.59	330
964.933	326
967.276	348
969.617	362
971.958	352
974.298	358
976.638	394
978.976	410
981.314	472
983.651	538
985.988	660
988.323	786
990.659	1172
992.992	1724
995.325	1922
997.658	2378
999.99	4144
1002.32	6510
1004.65	6152
1006.98	3498
1009.31	1586
1011.64	868
1013.97	622
1016.29	518
1018.62	478
1020.94	538
1023.27	652
1025.59	884
1027.91	1210
1030.24	1668
1032.56	2038
1034.88	1914
1037.2	1458
1039.52	1048
1041.84	762
1044.15	574
1046.47	490
1048.79	452
1051.1	436
1053.42	432
1055.73	418
1058.04	402
1060.36	416
1062.67	434
1064.98	406
1067.29	474
1069.6	462
1071.91	458
1074.22	454
1076.52	444
1078.83	456
1081.14	462
1083.44	450
1085.75	440
1088.05	442
1090.35	452
1092.65	448
1094.95	460
1097.26	446
1099.56	470
1101.86	450
1104.15	432
1106.45	404
1108.75	368
1111.05	386
1113.34	370
1115.64	342
1117.93	336
1120.22	316
1122.52	308
1124.81	290
1127.1	298
1129.39	286
1131.68	278
1133.97	288
1136.26	296
1138.54	308
1140.83	318
1143.12	360
1145.4	388
1147.69	420
1149.97	492
1152.25	672
1154.54	866
1156.82	982
1159.1	848
1161.38	716
1163.66	566
1165.94	548
1168.22	504
1170.49	520
1172.77	564
1175.05	672
1177.32	806
1179.6	972
1181.87	1178
1184.14	1242
1186.42	1098
1188.69	1084
1190.96	1030
1193.23	1136
1195.5	1236
1197.77	1234
1200.03	1208
1202.3	1154
1204.57	1108
1206.83	976
1209.1	842
1211.36	748
1213.63	634
1215.89	570
1218.15	546
1220.41	504
1222.67	484
1224.93	494
1227.19	454
1229.45	444
1231.71	424
1233.97	424
1236.22	402
1238.48	384
1240.73	388
1242.99	402
1245.24	376
1247.5	402
1249.75	400
1252	380
1254.25	376
1256.5	366
1258.75	366
1261	358
1263.25	378
1265.49	360
1267.74	372
1269.99	370
1272.23	360
1274.48	362
1276.72	370
1278.96	372
1281.21	364
1283.45	378
1285.69	372
1287.93	378
1290.17	386
1292.41	420
1294.64	390
1296.88	418
1299.12	410
1301.36	416
1303.59	424
1305.82	450
1308.06	418
1310.29	448
1312.52	426
1314.76	442
1316.99	470
1319.22	474
1321.45	528
1323.68	532
1325.9	564
1328.13	544
1330.36	534
1332.58	552
1334.81	522
1337.04	508
1339.26	480
1341.48	472
1343.71	418
1345.93	410
1348.15	408
1350.37	386
1352.59	384
1354.81	404
1357.03	388
1359.24	370
1361.46	402
1363.68	374
1365.89	370
1368.11	374
1370.32	386
1372.54	376
1374.75	398
1376.96	398
1379.17	378
1381.38	372
1383.59	338
1385.8	330
1388.01	322
1390.22	298
1392.43	286
1394.63	308
1396.84	284
1399.05	264
1401.25	282
1403.45	300
1405.66	294
1407.86	278
1410.06	282
1412.26	262
1414.46	276
1416.66	274
1418.86	268
1421.06	296
1423.26	292
1425.46	284
1427.65	292
1429.85	306
1432.04	328
1434.24	352
1436.43	376
1438.62	406
1440.82	444
1443.01	510
1445.2	516
1447.39	594
1449.58	628
1451.77	624
1453.95	606
1456.14	570
1458.33	448
1460.52	422
1462.7	366
1464.89	344
1467.07	300
1469.25	302
1471.44	314
1473.62	278
1475.8	288
1477.98	274
1480.16	286
1482.34	300
1484.52	280
1486.7	310
1488.87	260
1491.05	312
1493.23	302
1495.4	334
1497.58	300
1499.75	314
1501.92	308
1504.1	292
1506.27	262
1508.44	268
1510.61	288
1512.78	288
1514.95	276
1517.12	288
1519.28	292
1521.45	288
1523.62	274
1525.78	288
1527.95	292
1530.11	268
1532.28	290
1534.44	280
1536.6	290
1538.76	292
1540.93	290
1543.09	284
1545.25	298
1547.41	280
1549.56	288
1551.72	298
1553.88	276
1556.03	298
1558.19	296
1560.35	298
1562.5	308
1564.65	330
1566.81	344
1568.96	326
1571.11	380
1573.26	378
1575.41	416
1577.56	494
1579.71	614
1581.86	818
1584.01	1030
1586.15	958
1588.3	720
1590.45	610
1592.59	620
1594.74	698
1596.88	894
1599.02	1238
1601.17	1674
1603.31	1912
1605.45	1736
1607.59	1286
1609.73	954
1611.87	726
1614.01	568
1616.14	482
1618.28	458
1620.42	414
1622.55	414
1624.69	386
1626.82	356
1628.96	368
1631.09	332
1633.22	326
1635.36	320
1637.49	322
1639.62	320
1641.75	336
1643.88	348
1646	342
1648.13	370
1650.26	376
1652.39	346
1654.51	316
1656.64	326
1658.76	286
1660.89	296
1663.01	328
1665.13	300
1667.26	288
1669.38	312
1671.5	288
1673.62	324
1675.74	298
1677.86	294
1679.97	286
1682.09	308
1684.21	304
1686.33	288
1688.44	306
1690.56	308
1692.67	290
1694.78	292
1696.9	314
1699.01	296
1701.12	300
1703.23	288
1705.34	278
1707.45	304
1709.56	318
1711.67	310
1713.78	294
1715.88	280
1717.99	300
1720.1	284
1722.2	302
1724.31	300
1726.41	280
1728.51	304
1730.62	288
1732.72	310
1734.82	296
1736.92	304
1739.02	278
1741.12	290
1743.22	280
1745.32	286
1747.42	290
1749.51	312
1751.61	294
1753.7	290
1755.8	294
1757.89	304
1759.99	272
1762.08	292
1764.17	304
1766.26	312
1768.36	288
1770.45	304
1772.54	294
1774.62	286
1776.71	300
1778.8	312
1780.89	294
1782.98	306
1785.06	314
1787.15	328
1789.23	286
1791.32	276
1793.4	284
1795.48	288
1797.56	292
1799.65	306
1801.73	300
1803.81	306
1805.89	306
1807.97	320
1810.04	304
1812.12	320
1814.2	302
1816.28	308
1818.35	322
1820.43	306
1822.5	306
1824.58	314
1826.65	296
1828.72	316
1830.79	308
1832.86	306
1834.94	314
1837.01	306
1839.08	298
1841.15	314
1843.21	300
1845.28	310
1847.35	312
1849.41	298
1851.48	300
1853.55	304
1855.61	318
1857.67	294
1859.74	320
1861.8	292
1863.86	306
1865.92	306
1867.98	304
1870.05	318
1872.1	298
1874.16	304
1876.22	310
1878.28	326
1880.34	314
1882.39	308
1884.45	316
1886.5	304
1888.56	314
1890.61	298
1892.67	306
1894.72	300
1896.77	312
1898.82	308
1900.87	316
1902.92	300
1904.97	312
1907.02	324
1909.07	326
1911.12	304
1913.17	308
1915.21	316
1917.26	322
1919.3	318
1921.35	332
1923.39	310
1925.43	314
1927.48	318
1929.52	316
1931.56	322
1933.6	316
1935.64	316
1937.68	328
1939.72	324
1941.76	324
1943.8	332
1945.83	312
1947.87	284
1949.91	320
1951.94	298
1953.98	338
1956.01	320
1958.05	342
1960.08	322
1962.11	322
1964.14	288
1966.17	326
1968.2	316
1970.23	344
1972.26	308
1974.29	318
1976.32	304
1978.35	296
1980.37	316
1982.4	320
1984.43	304
1986.45	308
1988.48	320
1990.5	312
1992.52	322
1994.55	312
1996.57	324
1998.59	312
2000.61	342
2002.63	318
2004.65	342
2006.67	326
2008.69	324
2010.7	342
2012.72	328
2014.74	316
2016.75	334
2018.77	316
2020.78	316
2022.8	326
2024.81	322
2026.83	330
2028.84	318
2030.85	320
2032.86	332
2034.87	324
2036.88	342
2038.89	324
2040.9	316
2042.91	310
2044.91	326
2046.92	334
2048.93	326
2050.93	342
2052.94	352
2054.94	326
2056.95	332
2058.95	338
2060.95	334
2062.95	346
2064.96	302
2066.96	318
2068.96	336
2070.96	338
2072.96	350
2074.95	332
2076.95	348
2078.95	326
2080.95	344
2082.94	332
2084.94	342
2086.93	334
2088.93	354
2090.92	318
2092.91	336
2094.91	324
2096.9	328
2098.89	352
2100.88	334
2102.87	338
2104.86	340
2106.85	318
2108.84	332
2110.83	334
2112.81	332
2114.8	330
2116.78	352
2118.77	330
2120.75	330
2122.74	324
2124.72	340
2126.71	336
2128.69	344
2130.67	340
2132.65	344
2134.63	350
2136.61	316
2138.59	322
2140.57	334
2142.55	342
2144.53	318
2146.5	318
2148.48	354
2150.46	342
2152.43	352
2154.41	332
2156.38	344
2158.35	356
2160.33	322
2162.3	352
2164.27	358
2166.24	330
2168.21	348
2170.18	346
2172.15	348
2174.12	342
2176.09	360
2178.06	324
2180.03	370
2181.99	346
2183.96	334
2185.92	358
2187.89	356
2189.85	348
2191.82	356
2193.78	340
2195.74	336
2197.7	354
2199.67	348
2201.63	342
2203.59	358
2205.55	362
2207.51	336
2209.46	346
2211.42	342
2213.38	336
2215.34	344
2217.29	358
2219.25	328
2221.2	348
2223.16	344
2225.11	360
2227.06	354
2229.02	356
2230.97	364
2232.92	348
2234.87	348
2236.82	344
2238.77	364
2240.72	356
2242.67	352
2244.62	358
2246.57	364
2248.51	350
2250.46	362
2252.4	332
2254.35	356
2256.29	348
2258.24	350
2260.18	356
2262.13	320
2264.07	342
2266.01	336
2267.95	372
2269.89	360
2271.83	340
2273.77	346
2275.71	348
2277.65	370
2279.58	350
2281.52	364
2283.46	336
2285.4	346
2287.33	356
2289.27	352
2291.2	332
2293.13	354
2295.07	354
2297	336
2298.93	352
2300.86	354
2302.79	348
2304.72	350
2306.65	348
2308.58	368
2310.51	366
2312.44	360
2314.37	352
2316.29	362
2318.22	340
2320.15	350
2322.07	344
2324	356
2325.92	352
2327.84	388
2329.77	350
2331.69	350
2333.61	352
2335.53	374
2337.45	370
2339.37	350
2341.29	346
2343.21	362
2345.13	340
2347.05	346
2348.97	360
2350.88	366
2352.8	350
2354.71	352
2356.63	362
2358.54	342
2360.46	346
2362.37	366
2364.28	352
2366.2	374
2368.11	380
2370.02	356
2371.93	372
2373.84	370
2375.75	364
2377.66	348
2379.57	368
2381.47	348
2383.38	368
2385.29	358
2387.2	360
2389.1	350
2391.01	358
2392.91	364
2394.81	360
2396.72	362
2398.62	354
2400.52	352
2402.42	342
2404.33	372
2406.23	372
2408.13	370
2410.03	360
2411.92	362
2413.82	374
2415.72	378
2417.62	364
2419.51	364
2421.41	364
2423.31	358
2425.2	352
2427.1	366
2428.99	350
2430.88	368
2432.78	362
2434.67	370
2436.56	378
2438.45	354
2440.34	382
2442.23	370
2444.12	366
2446.01	376
2447.9	360
2449.79	364