File: Mixture_Classification/Jesse_Dataset_v2/Pure Raman/Polystyrene/633nm/ps-ppo-7jan25-1,0000-map3_Y06_X04.txt
182.393	1012
184.993	1008
187.593	964
190.193	930
192.79	914
195.387	880
197.983	930
200.578	922
203.174	948
205.766	942
208.36	926
210.951	1020
213.542	1024
216.131	1030
218.721	1056
221.309	1042
223.897	1080
226.483	1040
229.069	992
231.654	918
234.238	822
236.821	758
239.404	678
241.984	586
244.566	502
247.145	452
249.723	432
252.302	394
254.878	380
257.455	344
260.03	328
262.604	336
265.178	330
267.75	326
270.322	290
272.893	312
275.463	304
278.032	304
280.601	288
283.168	284
285.734	264
288.301	266
290.866	254
293.429	230
295.992	242
298.556	232
301.117	222
303.677	220
306.236	224
308.795	218
311.354	224
313.911	218
316.467	224
319.022	242
321.577	230
324.13	232
326.684	226
329.236	236
331.787	212
334.337	214
336.887	222
339.435	228
341.983	212
344.529	218
347.075	222
349.621	218
352.165	212
354.708	198
357.251	194
359.793	210
362.334	222
364.874	200
367.413	206
369.951	218
372.489	214
375.026	222
377.562	226
380.097	214
382.631	240
385.164	248
387.697	260
390.229	250
392.76	262
395.29	268
397.819	264
400.346	282
402.873	306
405.4	324
407.926	338
410.451	322
412.976	324
415.499	282
418.02	286
420.542	258
423.063	242
425.583	242
428.101	242
430.619	216
433.137	236
435.654	228
438.169	220
440.684	212
443.198	206
445.712	214
448.223	192
450.735	186
453.246	184
455.755	172
458.264	186
460.771	168
463.279	158
465.786	158
468.291	162
470.796	166
473.301	170
475.803	174
478.306	162
480.807	170
483.308	154
485.807	172
488.307	164
490.804	154
493.302	164
495.798	166
498.294	170
500.788	166
503.283	180
505.775	184
508.269	180
510.759	182
513.251	182
515.74	182
518.23	190
520.718	178
523.204	182
525.692	186
528.177	208
530.663	202
533.147	214
535.629	222
538.113	236
540.594	234
543.074	236
545.555	236
548.034	236
550.512	242
552.989	246
555.467	230
557.942	240
560.417	212
562.892	224
565.365	236
567.838	230
570.309	234
572.78	248
575.251	246
577.72	222
580.189	228
582.656	210
585.123	202
587.589	208
590.055	204
592.52	190
594.983	196
597.446	190
599.908	198
602.369	204
604.829	216
607.289	246
609.747	270
612.205	264
614.663	292
617.119	396
619.574	692
622.029	1062
624.483	996
626.936	504
629.389	326
631.84	256
634.291	236
636.741	220
639.19	188
641.639	184
644.086	174
646.533	166
648.979	154
651.424	156
653.869	166
656.313	152
658.754	140
661.196	152
663.638	160
666.078	160
668.518	154
670.957	168
673.394	162
675.831	154
678.268	162
680.703	148
683.137	144
685.571	148
688.005	152
690.437	162
692.868	150
695.299	162
697.729	166
700.159	198
702.586	202
705.014	224
707.441	188
709.866	188
712.292	202
714.716	186
717.14	192
719.563	224
721.984	236
724.406	278
726.825	298
729.246	282
731.665	252
734.082	266
736.5	270
738.916	312
741.332	340
743.746	358
746.161	378
748.574	352
750.987	364
753.398	406
755.81	428
758.219	450
760.629	464
763.037	456
765.445	448
767.852	436
770.258	402
772.664	386
775.068	380
777.472	392
779.876	412
782.278	424
784.679	476
787.08	526
789.48	574
791.879	638
794.278	654
796.675	668
799.072	660
801.467	622
803.864	532
806.258	432
808.651	436
811.044	390
813.437	354
815.828	316
818.218	310
820.608	284
822.997	250
825.385	244
827.773	248
830.16	238
832.546	250
834.931	284
837.315	292
839.699	320
842.081	332
844.463	338
846.844	334
849.226	328
851.606	306
853.985	264
856.363	276
858.741	282
861.117	294
863.493	258
865.868	280
868.243	284
870.616	284
872.989	270
875.36	280
877.731	250
880.102	288
882.472	240
884.841	258
887.209	260
889.577	262
891.944	266
894.31	278
896.674	262
899.039	268
901.403	304
903.766	292
906.128	330
908.49	344
910.849	316
913.209	290
915.569	280
917.927	234
920.284	236
922.641	248
924.997	248
927.353	226
929.707	226
932.061	222
934.414	230
936.765	234
939.117	244
941.469	238
943.818	236
946.167	244
948.515	244
950.863	246
953.211	234
955.556	240
957.902	254
960.246	266
962.59	282
964.933	304
967.276	294
969.617	302
971.958	308
974.298	302
976.638	356
978.976	354
981.314	436
983.651	510
985.988	594
988.323	778
990.659	1140
992.992	1674
995.325	1856
997.658	2274
999.99	4236
1002.32	6648
1004.65	6118
1006.98	3368
1009.31	1554
1011.64	828
1013.97	548
1016.29	460
1018.62	444
1020.94	488
1023.27	610
1025.59	810
1027.91	1170
1030.24	1604
1032.56	1976
1034.88	1858
1037.2	1402
1039.52	948
1041.84	676
1044.15	544
1046.47	462
1048.79	436
1051.1	406
1053.42	366
1055.73	366
1058.04	366
1060.36	370
1062.67	368
1064.98	396
1067.29	390
1069.6	432
1071.91	436
1074.22	424
1076.52	418
1078.83	426
1081.14	410
1083.44	394
1085.75	386
1088.05	400
1090.35	402
1092.65	400
1094.95	416
1097.26	414
1099.56	406
1101.86	394
1104.15	392
1106.45	368
1108.75	348
1111.05	336
1113.34	298
1115.64	312
1117.93	320
1120.22	276
1122.52	272
1124.81	258
1127.1	252
1129.39	242
1131.68	258
1133.97	266
1136.26	248
1138.54	278
1140.83	300
1143.12	316
1145.4	332
1147.69	398
1149.97	480
1152.25	640
1154.54	850
1156.82	928
1159.1	850
1161.38	682
1163.66	554
1165.94	490
1168.22	468
1170.49	492
1172.77	516
1175.05	616
1177.32	760
1179.6	968
1181.87	1124
1184.14	1216
1186.42	1094
1188.69	1040
1190.96	1040
1193.23	1068
1195.5	1170
1197.77	1188
1200.03	1148
1202.3	1144
1204.57	1056
1206.83	948
1209.1	830
1211.36	698
1213.63	588
1215.89	514
1218.15	476
1220.41	472
1222.67	448
1224.93	452
1227.19	410
1229.45	406
1231.71	372
1233.97	368
1236.22	360
1238.48	352
1240.73	336
1242.99	346
1245.24	362
1247.5	338
1249.75	360
1252	328
1254.25	344
1256.5	328
1258.75	332
1261	340
1263.25	334
1265.49	342
1267.74	324
1269.99	338
1272.23	320
1274.48	324
1276.72	326
1278.96	342
1281.21	334
1283.45	344
1285.69	336
1287.93	330
1290.17	336
1292.41	366
1294.64	370
1296.88	380
1299.12	382
1301.36	394
1303.59	396
1305.82	384
1308.06	406
1310.29	390
1312.52	388
1314.76	428
1316.99	448
1319.22	454
1321.45	458
1323.68	488
1325.9	492
1328.13	494
1330.36	506
1332.58	498
1334.81	490
1337.04	476
1339.26	430
1341.48	450
1343.71	406
1345.93	374
1348.15	380
1350.37	364
1352.59	352
1354.81	360
1357.03	360
1359.24	366
1361.46	354
1363.68	362
1365.89	380
1368.11	366
1370.32	360
1372.54	354
1374.75	350
1376.96	358
1379.17	322
1381.38	318
1383.59	318
1385.8	284
1388.01	266
1390.22	246
1392.43	236
1394.63	270
1396.84	256
1399.05	256
1401.25	258
1403.45	266
1405.66	266
1407.86	256
1410.06	266
1412.26	242
1414.46	242
1416.66	234
1418.86	256
1421.06	238
1423.26	236
1425.46	260
1427.65	254
1429.85	270
1432.04	266
1434.24	296
1436.43	350
1438.62	380
1440.82	430
1443.01	490
1445.2	518
1447.39	560
1449.58	580
1451.77	574
1453.95	556
1456.14	526
1458.33	438
1460.52	354
1462.7	314
1464.89	304
1467.07	272
1469.25	280
1471.44	262
1473.62	260
1475.8	252
1477.98	242
1480.16	252
1482.34	256
1484.52	254
1486.7	256
1488.87	266
1491.05	264
1493.23	268
1495.4	284
1497.58	276
1499.75	272
1501.92	272
1504.1	262
1506.27	246
1508.44	252
1510.61	242
1512.78	250
1514.95	262
1517.12	238
1519.28	238
1521.45	250
1523.62	270
1525.78	236
1527.95	250
1530.11	234
1532.28	254
1534.44	232
1536.6	250
1538.76	236
1540.93	252
1543.09	266
1545.25	260
1547.41	252
1549.56	254
1551.72	260
1553.88	244
1556.03	274
1558.19	286
1560.35	284
1562.5	290
1564.65	308
1566.81	290
1568.96	304
1571.11	330
1573.26	352
1575.41	384
1577.56	440
1579.71	566
1581.86	794
1584.01	932
1586.15	888
1588.3	694
1590.45	570
1592.59	580
1594.74	676
1596.88	844
1599.02	1202
1601.17	1616
1603.31	1848
1605.45	1704
1607.59	1276
1609.73	914
1611.87	664
1614.01	534
1616.14	442
1618.28	438
1620.42	386
1622.55	358
1624.69	352
1626.82	358
1628.96	316
1631.09	314
1633.22	308
1635.36	294
1637.49	308
1639.62	292
1641.75	310
1643.88	300
1646	324
1648.13	334
1650.26	316
1652.39	306
1654.51	302
1656.64	298
1658.76	280
1660.89	282
1663.01	270
1665.13	258
1667.26	270
1669.38	266
1671.5	266
1673.62	264
1675.74	292
1677.86	270
1679.97	278
1682.09	290
1684.21	288
1686.33	290
1688.44	296
1690.56	286
1692.67	280
1694.78	276
1696.9	282
1699.01	260
1701.12	280
1703.23	270
1705.34	266
1707.45	256
1709.56	276
1711.67	256
1713.78	248
1715.88	252
1717.99	248
1720.1	278
1722.2	274
1724.31	266
1726.41	244
1728.51	266
1730.62	254
1732.72	262
1734.82	256
1736.92	260
1739.02	272
1741.12	262
1743.22	270
1745.32	270
1747.42	260
1749.51	284
1751.61	268
1753.7	262
1755.8	270
1757.89	266
1759.99	274
1762.08	242
1764.17	246
1766.26	274
1768.36	266
1770.45	266
1772.54	274
1774.62	278
1776.71	274
1778.8	262
1780.89	258
1782.98	268
1785.06	270
1787.15	272
1789.23	268
1791.32	270
1793.4	286
1795.48	274
1797.56	288
1799.65	272
1801.73	256
1803.81	280
1805.89	278
1807.97	272
1810.04	280
1812.12	290
1814.2	278
1816.28	288
1818.35	264
1820.43	284
1822.5	286
1824.58	274
1826.65	280
1828.72	268
1830.79	274
1832.86	272
1834.94	282
1837.01	266
1839.08	284
1841.15	266
1843.21	276
1845.28	266
1847.35	276
1849.41	260
1851.48	270
1853.55	280
1855.61	274
1857.67	266
1859.74	274
1861.8	264
1863.86	278
1865.92	276
1867.98	278
1870.05	298
1872.1	286
1874.16	290
1876.22	296
1878.28	268
1880.34	272
1882.39	280
1884.45	270
1886.5	270
1888.56	284
1890.61	278
1892.67	282
1894.72	276
1896.77	278
1898.82	278
1900.87	284
1902.92	296
1904.97	296
1907.02	304
1909.07	298
1911.12	280
1913.17	298
1915.21	306
1917.26	288
1919.3	310
1921.35	296
1923.39	306
1925.43	302
1927.48	306
1929.52	288
1931.56	280
1933.6	300
1935.64	300
1937.68	296
1939.72	290
1941.76	282
1943.8	298
1945.83	308
1947.87	294
1949.91	300
1951.94	288
1953.98	312
1956.01	280
1958.05	298
1960.08	286
1962.11	304
1964.14	296
1966.17	282
1968.2	294
1970.23	286
1972.26	296
1974.29	296
1976.32	296
1978.35	290
1980.37	280
1982.4	290
1984.43	288
1986.45	296
1988.48	278
1990.5	296
1992.52	274
1994.55	280
1996.57	294
1998.59	294
2000.61	310
2002.63	312
2004.65	310
2006.67	302
2008.69	300
2010.7	280
2012.72	294
2014.74	302
2016.75	302
2018.77	300
2020.78	316
2022.8	280
2024.81	316
2026.83	306
2028.84	296
2030.85	300
2032.86	314
2034.87	300
2036.88	304
2038.89	292
2040.9	308
2042.91	298
2044.91	314
2046.92	298
2048.93	294
2050.93	294
2052.94	312
2054.94	326
2056.95	298
2058.95	326
2060.95	302
2062.95	278
2064.96	300
2066.96	308
2068.96	308
2070.96	306
2072.96	304
2074.95	314
2076.95	316
2078.95	316
2080.95	300
2082.94	332
2084.94	294
2086.93	306
2088.93	306
2090.92	314
2092.91	310
2094.91	286
2096.9	308
2098.89	296
2100.88	310
2102.87	302
2104.86	312
2106.85	292
2108.84	314
2110.83	322
2112.81	308
2114.8	322
2116.78	302
2118.77	326
2120.75	314
2122.74	312
2124.72	316
2126.71	320
2128.69	310
2130.67	292
2132.65	328
2134.63	312
2136.61	310
2138.59	312
2140.57	320
2142.55	344
2144.53	308
2146.5	300
2148.48	322
2150.46	316
2152.43	322
2154.41	316
2156.38	318
2158.35	308
2160.33	322
2162.3	316
2164.27	308
2166.24	312
2168.21	308
2170.18	308
2172.15	308
2174.12	318
2176.09	292
2178.06	334
2180.03	342
2181.99	322
2183.96	322
2185.92	320
2187.89	314
2189.85	318
2191.82	328
2193.78	314
2195.74	316
2197.7	324
2199.67	322
2201.63	324
2203.59	332
2205.55	308
2207.51	324
2209.46	326
2211.42	340
2213.38	320
2215.34	320
2217.29	302
2219.25	322
2221.2	308
2223.16	330
2225.11	312
2227.06	326
2229.02	336
2230.97	314
2232.92	306
2234.87	320
2236.82	324
2238.77	320
2240.72	324
2242.67	336
2244.62	332
2246.57	336
2248.51	328
2250.46	324
2252.4	316
2254.35	334
2256.29	322
2258.24	312
2260.18	336
2262.13	322
2264.07	340
2266.01	348
2267.95	314
2269.89	324
2271.83	320
2273.77	338
2275.71	330
2277.65	334
2279.58	316
2281.52	322
2283.46	324
2285.4	334
2287.33	318
2289.27	350
2291.2	320
2293.13	332
2295.07	342
2297	328
2298.93	340
2300.86	328
2302.79	344
2304.72	332
2306.65	342
2308.58	330
2310.51	352
2312.44	342
2314.37	342
2316.29	328
2318.22	336
2320.15	332
2322.07	308
2324	342
2325.92	318
2327.84	332
2329.77	328
2331.69	324
2333.61	342
2335.53	348
2337.45	342
2339.37	342
2341.29	336
2343.21	356
2345.13	326
2347.05	340
2348.97	346
2350.88	350
2352.8	342
2354.71	336
2356.63	312
2358.54	342
2360.46	338
2362.37	336
2364.28	332
2366.2	338
2368.11	346
2370.02	340
2371.93	340
2373.84	326
2375.75	332
2377.66	338
2379.57	328
2381.47	334
2383.38	332
2385.29	338
2387.2	332
2389.1	322
2391.01	346
2392.91	346
2394.81	346
2396.72	342
2398.62	338
2400.52	346
2402.42	344
2404.33	340
2406.23	312
2408.13	332
2410.03	344
2411.92	360
2413.82	328
2415.72	328
2417.62	338
2419.51	348
2421.41	344
2423.31	336
2425.2	344
2427.1	350
2428.99	348
2430.88	354
2432.78	354
2434.67	344
2436.56	348
2438.45	358
2440.34	352
2442.23	356
2444.12	346
2446.01	340
2447.9	352
2449.79	366