File: Mixture_Classification/Jesse_Dataset_v2/Pure Raman/Polystyrene/633nm/ps-ppo-7jan25-1,0000-map3_Y06_X10.txt
182.393	1104
184.993	1068
187.593	1038
190.193	988
192.79	980
195.387	1012
197.983	1028
200.578	986
203.174	990
205.766	1026
208.36	998
210.951	1066
213.542	1108
216.131	1090
218.721	1156
221.309	1168
223.897	1116
226.483	1114
229.069	1034
231.654	970
234.238	894
236.821	804
239.404	730
241.984	650
244.566	564
247.145	528
249.723	470
252.302	458
254.878	438
257.455	448
260.03	426
262.604	414
265.178	410
267.75	376
270.322	394
272.893	380
275.463	382
278.032	364
280.601	376
283.168	356
285.734	356
288.301	330
290.866	328
293.429	310
295.992	304
298.556	298
301.117	286
303.677	286
306.236	288
308.795	302
311.354	304
313.911	276
316.467	310
319.022	294
321.577	294
324.13	278
326.684	298
329.236	308
331.787	280
334.337	280
336.887	276
339.435	284
341.983	306
344.529	298
347.075	276
349.621	264
352.165	290
354.708	268
357.251	286
359.793	270
362.334	280
364.874	280
367.413	272
369.951	284
372.489	292
375.026	280
377.562	286
380.097	278
382.631	274
385.164	298
387.697	318
390.229	318
392.76	326
395.29	328
397.819	328
400.346	358
402.873	368
405.4	394
407.926	378
410.451	382
412.976	348
415.499	364
418.02	336
420.542	310
423.063	310
425.583	302
428.101	290
430.619	278
433.137	274
435.654	270
438.169	272
440.684	260
443.198	276
445.712	268
448.223	254
450.735	260
453.246	262
455.755	230
458.264	252
460.771	234
463.279	242
465.786	238
468.291	226
470.796	220
473.301	244
475.803	238
478.306	236
480.807	226
483.308	226
485.807	214
488.307	234
490.804	220
493.302	230
495.798	238
498.294	210
500.788	240
503.283	246
505.775	238
508.269	252
510.759	242
513.251	242
515.74	246
518.23	242
520.718	240
523.204	238
525.692	252
528.177	256
530.663	264
533.147	256
535.629	272
538.113	290
540.594	308
543.074	316
545.555	304
548.034	310
550.512	312
552.989	292
555.467	280
557.942	292
560.417	280
562.892	290
565.365	284
567.838	298
570.309	280
572.78	306
575.251	296
577.72	292
580.189	274
582.656	268
585.123	254
587.589	242
590.055	264
592.52	280
594.983	242
597.446	266
599.908	254
602.369	258
604.829	286
607.289	304
609.747	316
612.205	342
614.663	356
617.119	484
619.574	746
622.029	1168
624.483	1014
626.936	560
629.389	372
631.84	340
634.291	286
636.741	268
639.19	250
641.639	228
644.086	238
646.533	220
648.979	218
651.424	212
653.869	224
656.313	216
658.754	206
661.196	206
663.638	218
666.078	214
668.518	204
670.957	208
673.394	212
675.831	226
678.268	222
680.703	212
683.137	210
685.571	216
688.005	208
690.437	220
692.868	214
695.299	222
697.729	242
700.159	230
702.586	268
705.014	248
707.441	250
709.866	252
712.292	240
714.716	254
717.14	242
719.563	266
721.984	296
724.406	344
726.825	356
729.246	344
731.665	304
734.082	300
736.5	332
738.916	376
741.332	420
743.746	420
746.161	442
748.574	416
750.987	464
753.398	452
755.81	498
758.219	494
760.629	498
763.037	514
765.445	522
767.852	486
770.258	492
772.664	474
775.068	440
777.472	468
779.876	504
782.278	512
784.679	572
787.08	600
789.48	644
791.879	702
794.278	688
796.675	720
799.072	742
801.467	660
803.864	586
806.258	510
808.651	470
811.044	446
813.437	418
815.828	392
818.218	350
820.608	346
822.997	320
825.385	330
827.773	304
830.16	318
832.546	288
834.931	344
837.315	364
839.699	400
842.081	420
844.463	402
846.844	414
849.226	386
851.606	372
853.985	356
856.363	358
858.741	352
861.117	350
863.493	342
865.868	340
868.243	360
870.616	330
872.989	338
875.36	358
877.731	336
880.102	344
882.472	324
884.841	348
887.209	328
889.577	324
891.944	336
894.31	330
896.674	330
899.039	348
901.403	366
903.766	394
906.128	424
908.49	394
910.849	390
913.209	406
915.569	366
917.927	338
920.284	330
922.641	314
924.997	320
927.353	298
929.707	304
932.061	316
934.414	320
936.765	322
939.117	322
941.469	318
943.818	314
946.167	304
948.515	314
950.863	306
953.211	324
955.556	324
957.902	312
960.246	352
962.59	340
964.933	356
967.276	394
969.617	378
971.958	384
974.298	378
976.638	384
978.976	492
981.314	512
983.651	574
985.988	676
988.323	866
990.659	1214
992.992	1806
995.325	2004
997.658	2382
999.99	4238
1002.32	6636
1004.65	6086
1006.98	3450
1009.31	1594
1011.64	932
1013.97	624
1016.29	552
1018.62	526
1020.94	564
1023.27	684
1025.59	874
1027.91	1234
1030.24	1712
1032.56	2004
1034.88	1940
1037.2	1468
1039.52	1072
1041.84	770
1044.15	612
1046.47	582
1048.79	530
1051.1	468
1053.42	486
1055.73	462
1058.04	478
1060.36	460
1062.67	456
1064.98	474
1067.29	492
1069.6	504
1071.91	508
1074.22	534
1076.52	508
1078.83	492
1081.14	494
1083.44	458
1085.75	490
1088.05	482
1090.35	484
1092.65	492
1094.95	498
1097.26	496
1099.56	504
1101.86	486
1104.15	504
1106.45	454
1108.75	410
1111.05	434
1113.34	400
1115.64	418
1117.93	432
1120.22	382
1122.52	352
1124.81	358
1127.1	358
1129.39	358
1131.68	348
1133.97	354
1136.26	350
1138.54	386
1140.83	390
1143.12	422
1145.4	432
1147.69	502
1149.97	574
1152.25	724
1154.54	956
1156.82	1032
1159.1	966
1161.38	814
1163.66	652
1165.94	582
1168.22	572
1170.49	584
1172.77	652
1175.05	738
1177.32	868
1179.6	1054
1181.87	1224
1184.14	1266
1186.42	1222
1188.69	1130
1190.96	1102
1193.23	1170
1195.5	1258
1197.77	1300
1200.03	1280
1202.3	1242
1204.57	1156
1206.83	1064
1209.1	918
1211.36	814
1213.63	684
1215.89	602
1218.15	574
1220.41	584
1222.67	536
1224.93	558
1227.19	510
1229.45	478
1231.71	480
1233.97	466
1236.22	468
1238.48	444
1240.73	470
1242.99	458
1245.24	450
1247.5	436
1249.75	432
1252	430
1254.25	440
1256.5	442
1258.75	448
1261	438
1263.25	402
1265.49	434
1267.74	414
1269.99	432
1272.23	436
1274.48	438
1276.72	414
1278.96	426
1281.21	436
1283.45	410
1285.69	428
1287.93	454
1290.17	430
1292.41	440
1294.64	470
1296.88	484
1299.12	484
1301.36	484
1303.59	472
1305.82	520
1308.06	492
1310.29	500
1312.52	480
1314.76	542
1316.99	536
1319.22	564
1321.45	560
1323.68	574
1325.9	634
1328.13	576
1330.36	604
1332.58	584
1334.81	580
1337.04	536
1339.26	552
1341.48	508
1343.71	462
1345.93	452
1348.15	464
1350.37	468
1352.59	472
1354.81	438
1357.03	452
1359.24	428
1361.46	430
1363.68	446
1365.89	452
1368.11	436
1370.32	454
1372.54	458
1374.75	426
1376.96	448
1379.17	450
1381.38	416
1383.59	396
1385.8	378
1388.01	344
1390.22	342
1392.43	338
1394.63	334
1396.84	342
1399.05	328
1401.25	310
1403.45	340
1405.66	348
1407.86	340
1410.06	338
1412.26	348
1414.46	304
1416.66	308
1418.86	328
1421.06	328
1423.26	328
1425.46	314
1427.65	328
1429.85	346
1432.04	382
1434.24	384
1436.43	424
1438.62	444
1440.82	514
1443.01	534
1445.2	574
1447.39	658
1449.58	640
1451.77	656
1453.95	632
1456.14	592
1458.33	496
1460.52	440
1462.7	394
1464.89	352
1467.07	370
1469.25	356
1471.44	340
1473.62	326
1475.8	322
1477.98	326
1480.16	340
1482.34	330
1484.52	318
1486.7	322
1488.87	336
1491.05	330
1493.23	334
1495.4	332
1497.58	342
1499.75	332
1501.92	306
1504.1	318
1506.27	324
1508.44	320
1510.61	320
1512.78	314
1514.95	304
1517.12	322
1519.28	306
1521.45	316
1523.62	312
1525.78	296
1527.95	324
1530.11	322
1532.28	320
1534.44	312
1536.6	324
1538.76	326
1540.93	330
1543.09	296
1545.25	348
1547.41	330
1549.56	328
1551.72	322
1553.88	340
1556.03	334
1558.19	350
1560.35	334
1562.5	334
1564.65	366
1566.81	384
1568.96	370
1571.11	400
1573.26	406
1575.41	472
1577.56	512
1579.71	640
1581.86	842
1584.01	1038
1586.15	942
1588.3	770
1590.45	604
1592.59	634
1594.74	756
1596.88	962
1599.02	1274
1601.17	1696
1603.31	1934
1605.45	1756
1607.59	1350
1609.73	992
1611.87	722
1614.01	588
1616.14	506
1618.28	444
1620.42	448
1622.55	426
1624.69	408
1626.82	396
1628.96	374
1631.09	346
1633.22	378
1635.36	358
1637.49	366
1639.62	364
1641.75	362
1643.88	386
1646	384
1648.13	398
1650.26	402
1652.39	386
1654.51	344
1656.64	326
1658.76	336
1660.89	324
1663.01	326
1665.13	332
1667.26	326
1669.38	338
1671.5	322
1673.62	346
1675.74	332
1677.86	330
1679.97	328
1682.09	338
1684.21	348
1686.33	324
1688.44	326
1690.56	330
1692.67	316
1694.78	326
1696.9	336
1699.01	318
1701.12	326
1703.23	330
1705.34	318
1707.45	304
1709.56	308
1711.67	340
1713.78	332
1715.88	324
1717.99	314
1720.1	298
1722.2	294
1724.31	324
1726.41	312
1728.51	320
1730.62	304
1732.72	300
1734.82	316
1736.92	314
1739.02	322
1741.12	320
1743.22	302
1745.32	282
1747.42	302
1749.51	306
1751.61	304
1753.7	304
1755.8	312
1757.89	308
1759.99	306
1762.08	302
1764.17	334
1766.26	312
1768.36	322
1770.45	300
1772.54	324
1774.62	318
1776.71	298
1778.8	326
1780.89	336
1782.98	328
1785.06	340
1787.15	316
1789.23	314
1791.32	334
1793.4	316
1795.48	318
1797.56	330
1799.65	318
1801.73	328
1803.81	336
1805.89	324
1807.97	312
1810.04	310
1812.12	338
1814.2	334
1816.28	310
1818.35	324
1820.43	340
1822.5	344
1824.58	332
1826.65	312
1828.72	344
1830.79	322
1832.86	336
1834.94	322
1837.01	326
1839.08	322
1841.15	310
1843.21	322
1845.28	308
1847.35	328
1849.41	324
1851.48	324
1853.55	310
1855.61	340
1857.67	310
1859.74	340
1861.8	338
1863.86	316
1865.92	338
1867.98	334
1870.05	318
1872.1	340
1874.16	334
1876.22	324
1878.28	320
1880.34	318
1882.39	318
1884.45	348
1886.5	328
1888.56	326
1890.61	324
1892.67	318
1894.72	318
1896.77	328
1898.82	342
1900.87	312
1902.92	328
1904.97	346
1907.02	340
1909.07	340
1911.12	342
1913.17	338
1915.21	326
1917.26	350
1919.3	320
1921.35	320
1923.39	330
1925.43	322
1927.48	338
1929.52	352
1931.56	336
1933.6	346
1935.64	354
1937.68	338
1939.72	336
1941.76	334
1943.8	336
1945.83	334
1947.87	336
1949.91	318
1951.94	306
1953.98	326
1956.01	324
1958.05	332
1960.08	364
1962.11	342
1964.14	328
1966.17	322
1968.2	346
1970.23	322
1972.26	324
1974.29	338
1976.32	324
1978.35	336
1980.37	316
1982.4	334
1984.43	344
1986.45	336
1988.48	332
1990.5	318
1992.52	330
1994.55	310
1996.57	340
1998.59	334
2000.61	338
2002.63	322
2004.65	328
2006.67	330
2008.69	342
2010.7	318
2012.72	358
2014.74	326
2016.75	324
2018.77	330
2020.78	338
2022.8	344
2024.81	354
2026.83	346
2028.84	352
2030.85	328
2032.86	330
2034.87	352
2036.88	350
2038.89	312
2040.9	344
2042.91	334
2044.91	358
2046.92	340
2048.93	338
2050.93	356
2052.94	344
2054.94	346
2056.95	344
2058.95	358
2060.95	334
2062.95	344
2064.96	346
2066.96	348
2068.96	348
2070.96	330
2072.96	346
2074.95	342
2076.95	358
2078.95	338
2080.95	346
2082.94	356
2084.94	346
2086.93	336
2088.93	338
2090.92	336
2092.91	330
2094.91	350
2096.9	338
2098.89	370
2100.88	352
2102.87	344
2104.86	336
2106.85	348
2108.84	352
2110.83	338
2112.81	346
2114.8	368
2116.78	360
2118.77	356
2120.75	326
2122.74	358
2124.72	328
2126.71	354
2128.69	362
2130.67	362
2132.65	346
2134.63	366
2136.61	362
2138.59	326
2140.57	352
2142.55	340
2144.53	348
2146.5	358
2148.48	370
2150.46	356
2152.43	354
2154.41	338
2156.38	354
2158.35	326
2160.33	356
2162.3	346
2164.27	340
2166.24	372
2168.21	352
2170.18	346
2172.15	364
2174.12	340
2176.09	360
2178.06	362
2180.03	342
2181.99	358
2183.96	360
2185.92	356
2187.89	342
2189.85	348
2191.82	354
2193.78	368
2195.74	350
2197.7	328
2199.67	358
2201.63	360
2203.59	356
2205.55	366
2207.51	370
2209.46	354
2211.42	352
2213.38	354
2215.34	344
2217.29	352
2219.25	380
2221.2	334
2223.16	366
2225.11	348
2227.06	370
2229.02	378
2230.97	338
2232.92	372
2234.87	354
2236.82	366
2238.77	364
2240.72	372
2242.67	366
2244.62	348
2246.57	342
2248.51	366
2250.46	344
2252.4	350
2254.35	346
2256.29	352
2258.24	342
2260.18	366
2262.13	360
2264.07	372
2266.01	380
2267.95	362
2269.89	352
2271.83	354
2273.77	360
2275.71	342
2277.65	372
2279.58	362
2281.52	364
2283.46	352
2285.4	348
2287.33	368
2289.27	354
2291.2	354
2293.13	358
2295.07	366
2297	378
2298.93	344
2300.86	354
2302.79	364
2304.72	380
2306.65	372
2308.58	370
2310.51	386
2312.44	354
2314.37	360
2316.29	384
2318.22	358
2320.15	348
2322.07	370
2324	360
2325.92	348
2327.84	374
2329.77	366
2331.69	364
2333.61	372
2335.53	392
2337.45	382
2339.37	380
2341.29	376
2343.21	354
2345.13	356
2347.05	366
2348.97	370
2350.88	360
2352.8	362
2354.71	376
2356.63	378
2358.54	354
2360.46	384
2362.37	372
2364.28	350
2366.2	366
2368.11	358
2370.02	372
2371.93	376
2373.84	368
2375.75	352
2377.66	374
2379.57	366
2381.47	378
2383.38	384
2385.29	368
2387.2	372
2389.1	350
2391.01	374
2392.91	372
2394.81	366
2396.72	368
2398.62	370
2400.52	366
2402.42	370
2404.33	380
2406.23	392
2408.13	380
2410.03	366
2411.92	378
2413.82	362
2415.72	372
2417.62	352
2419.51	350
2421.41	384
2423.31	380
2425.2	408
2427.1	384
2428.99	372
2430.88	392
2432.78	376
2434.67	368
2436.56	388
2438.45	360
2440.34	372
2442.23	380
2444.12	398
2446.01	386
2447.9	392
2449.79	392