File: Mixture_Classification/Jesse_Dataset_v2/Pure Raman/Polystyrene/633nm/ps-ppo-7jan25-1,0000-map3_Y10_X06.txt
182.393	1010
184.993	976
187.593	904
190.193	926
192.79	930
195.387	902
197.983	930
200.578	930
203.174	932
205.766	928
208.36	976
210.951	998
213.542	1022
216.131	1084
218.721	1042
221.309	1046
223.897	1056
226.483	1058
229.069	972
231.654	914
234.238	836
236.821	740
239.404	656
241.984	576
244.566	516
247.145	448
249.723	396
252.302	396
254.878	358
257.455	348
260.03	350
262.604	352
265.178	324
267.75	314
270.322	312
272.893	320
275.463	322
278.032	296
280.601	290
283.168	270
285.734	276
288.301	274
290.866	260
293.429	244
295.992	226
298.556	230
301.117	234
303.677	220
306.236	228
308.795	222
311.354	218
313.911	226
316.467	228
319.022	228
321.577	234
324.13	234
326.684	228
329.236	226
331.787	226
334.337	222
336.887	230
339.435	228
341.983	226
344.529	212
347.075	214
349.621	212
352.165	210
354.708	220
357.251	222
359.793	216
362.334	200
364.874	202
367.413	196
369.951	220
372.489	224
375.026	222
377.562	234
380.097	226
382.631	234
385.164	256
387.697	262
390.229	240
392.76	268
395.29	268
397.819	266
400.346	278
402.873	300
405.4	326
407.926	330
410.451	334
412.976	316
415.499	270
418.02	268
420.542	260
423.063	254
425.583	242
428.101	222
430.619	224
433.137	210
435.654	226
438.169	216
440.684	208
443.198	218
445.712	206
448.223	208
450.735	182
453.246	184
455.755	180
458.264	180
460.771	166
463.279	176
465.786	170
468.291	172
470.796	184
473.301	168
475.803	176
478.306	174
480.807	178
483.308	150
485.807	174
488.307	172
490.804	168
493.302	170
495.798	164
498.294	168
500.788	174
503.283	174
505.775	190
508.269	180
510.759	174
513.251	196
515.74	190
518.23	188
520.718	202
523.204	188
525.692	200
528.177	208
530.663	204
533.147	218
535.629	224
538.113	248
540.594	250
543.074	268
545.555	254
548.034	248
550.512	244
552.989	232
555.467	250
557.942	242
560.417	244
562.892	242
565.365	226
567.838	234
570.309	240
572.78	238
575.251	232
577.72	244
580.189	220
582.656	202
585.123	196
587.589	200
590.055	186
592.52	206
594.983	194
597.446	200
599.908	208
602.369	220
604.829	232
607.289	254
609.747	268
612.205	268
614.663	288
617.119	400
619.574	692
622.029	1100
624.483	934
626.936	528
629.389	324
631.84	266
634.291	230
636.741	198
639.19	186
641.639	174
644.086	182
646.533	176
648.979	172
651.424	166
653.869	162
656.313	158
658.754	164
661.196	156
663.638	162
666.078	150
668.518	156
670.957	168
673.394	158
675.831	164
678.268	154
680.703	168
683.137	160
685.571	154
688.005	170
690.437	154
692.868	166
695.299	168
697.729	150
700.159	188
702.586	188
705.014	204
707.441	204
709.866	202
712.292	200
714.716	206
717.14	198
719.563	202
721.984	244
724.406	274
726.825	294
729.246	274
731.665	264
734.082	268
736.5	276
738.916	322
741.332	356
743.746	394
746.161	368
748.574	356
750.987	392
753.398	414
755.81	418
758.219	458
760.629	456
763.037	462
765.445	466
767.852	448
770.258	418
772.664	402
775.068	408
777.472	400
779.876	398
782.278	412
784.679	468
787.08	552
789.48	582
791.879	618
794.278	646
796.675	682
799.072	642
801.467	614
803.864	538
806.258	446
808.651	404
811.044	394
813.437	344
815.828	338
818.218	320
820.608	286
822.997	280
825.385	252
827.773	250
830.16	250
832.546	264
834.931	284
837.315	304
839.699	316
842.081	344
844.463	356
846.844	346
849.226	322
851.606	284
853.985	270
856.363	296
858.741	268
861.117	270
863.493	296
865.868	268
868.243	296
870.616	290
872.989	274
875.36	280
877.731	282
880.102	276
882.472	266
884.841	268
887.209	260
889.577	270
891.944	266
894.31	252
896.674	282
899.039	276
901.403	302
903.766	330
906.128	330
908.49	324
910.849	344
913.209	310
915.569	274
917.927	268
920.284	256
922.641	256
924.997	228
927.353	238
929.707	234
932.061	232
934.414	232
936.765	244
939.117	232
941.469	254
943.818	240
946.167	264
948.515	240
950.863	246
953.211	252
955.556	252
957.902	280
960.246	256
962.59	278
964.933	292
967.276	324
969.617	304
971.958	300
974.298	322
976.638	360
978.976	382
981.314	448
983.651	498
985.988	586
988.323	758
990.659	1196
992.992	1684
995.325	1856
997.658	2324
999.99	4266
1002.32	6592
1004.65	5914
1006.98	3318
1009.31	1500
1011.64	800
1013.97	574
1016.29	440
1018.62	468
1020.94	488
1023.27	610
1025.59	784
1027.91	1192
1030.24	1590
1032.56	1940
1034.88	1832
1037.2	1356
1039.52	948
1041.84	686
1044.15	556
1046.47	478
1048.79	428
1051.1	408
1053.42	412
1055.73	376
1058.04	374
1060.36	390
1062.67	402
1064.98	408
1067.29	412
1069.6	414
1071.91	422
1074.22	404
1076.52	402
1078.83	424
1081.14	412
1083.44	404
1085.75	416
1088.05	394
1090.35	402
1092.65	406
1094.95	400
1097.26	416
1099.56	434
1101.86	396
1104.15	370
1106.45	368
1108.75	348
1111.05	348
1113.34	324
1115.64	306
1117.93	294
1120.22	294
1122.52	284
1124.81	254
1127.1	248
1129.39	252
1131.68	256
1133.97	246
1136.26	262
1138.54	278
1140.83	292
1143.12	308
1145.4	370
1147.69	380
1149.97	484
1152.25	668
1154.54	846
1156.82	924
1159.1	874
1161.38	708
1163.66	530
1165.94	462
1168.22	482
1170.49	496
1172.77	532
1175.05	616
1177.32	740
1179.6	978
1181.87	1152
1184.14	1182
1186.42	1086
1188.69	1028
1190.96	1040
1193.23	1120
1195.5	1208
1197.77	1188
1200.03	1200
1202.3	1110
1204.57	1054
1206.83	924
1209.1	832
1211.36	674
1213.63	616
1215.89	542
1218.15	474
1220.41	464
1222.67	448
1224.93	446
1227.19	412
1229.45	406
1231.71	394
1233.97	394
1236.22	356
1238.48	368
1240.73	360
1242.99	336
1245.24	356
1247.5	344
1249.75	340
1252	336
1254.25	326
1256.5	342
1258.75	342
1261	310
1263.25	336
1265.49	346
1267.74	336
1269.99	328
1272.23	342
1274.48	320
1276.72	332
1278.96	342
1281.21	330
1283.45	324
1285.69	340
1287.93	348
1290.17	350
1292.41	350
1294.64	358
1296.88	378
1299.12	382
1301.36	374
1303.59	388
1305.82	400
1308.06	396
1310.29	408
1312.52	414
1314.76	444
1316.99	434
1319.22	448
1321.45	470
1323.68	488
1325.9	490
1328.13	534
1330.36	510
1332.58	524
1334.81	490
1337.04	480
1339.26	452
1341.48	392
1343.71	410
1345.93	386
1348.15	376
1350.37	384
1352.59	354
1354.81	352
1357.03	360
1359.24	328
1361.46	346
1363.68	352
1365.89	370
1368.11	358
1370.32	358
1372.54	386
1374.75	368
1376.96	338
1379.17	338
1381.38	334
1383.59	302
1385.8	308
1388.01	284
1390.22	266
1392.43	258
1394.63	254
1396.84	264
1399.05	268
1401.25	270
1403.45	264
1405.66	256
1407.86	258
1410.06	252
1412.26	254
1414.46	252
1416.66	242
1418.86	244
1421.06	258
1423.26	236
1425.46	238
1427.65	252
1429.85	260
1432.04	276
1434.24	302
1436.43	348
1438.62	376
1440.82	408
1443.01	494
1445.2	506
1447.39	566
1449.58	592
1451.77	586
1453.95	564
1456.14	520
1458.33	438
1460.52	362
1462.7	342
1464.89	290
1467.07	272
1469.25	278
1471.44	268
1473.62	280
1475.8	254
1477.98	258
1480.16	270
1482.34	260
1484.52	260
1486.7	232
1488.87	264
1491.05	254
1493.23	264
1495.4	286
1497.58	272
1499.75	268
1501.92	250
1504.1	228
1506.27	262
1508.44	262
1510.61	254
1512.78	262
1514.95	256
1517.12	264
1519.28	260
1521.45	268
1523.62	254
1525.78	266
1527.95	260
1530.11	238
1532.28	244
1534.44	262
1536.6	274
1538.76	274
1540.93	260
1543.09	256
1545.25	250
1547.41	284
1549.56	276
1551.72	260
1553.88	276
1556.03	280
1558.19	270
1560.35	276
1562.5	306
1564.65	300
1566.81	320
1568.96	324
1571.11	340
1573.26	346
1575.41	412
1577.56	472
1579.71	556
1581.86	806
1584.01	990
1586.15	870
1588.3	696
1590.45	586
1592.59	578
1594.74	696
1596.88	878
1599.02	1218
1601.17	1672
1603.31	1816
1605.45	1670
1607.59	1292
1609.73	884
1611.87	670
1614.01	556
1616.14	446
1618.28	414
1620.42	382
1622.55	356
1624.69	322
1626.82	330
1628.96	320
1631.09	330
1633.22	312
1635.36	300
1637.49	302
1639.62	302
1641.75	314
1643.88	328
1646	334
1648.13	326
1650.26	326
1652.39	304
1654.51	294
1656.64	280
1658.76	290
1660.89	280
1663.01	278
1665.13	272
1667.26	276
1669.38	250
1671.5	282
1673.62	272
1675.74	292
1677.86	274
1679.97	282
1682.09	284
1684.21	266
1686.33	274
1688.44	260
1690.56	288
1692.67	270
1694.78	276
1696.9	266
1699.01	282
1701.12	268
1703.23	276
1705.34	268
1707.45	272
1709.56	268
1711.67	270
1713.78	284
1715.88	270
1717.99	284
1720.1	250
1722.2	270
1724.31	276
1726.41	256
1728.51	274
1730.62	276
1732.72	284
1734.82	282
1736.92	286
1739.02	284
1741.12	274
1743.22	276
1745.32	264
1747.42	264
1749.51	266
1751.61	262
1753.7	284
1755.8	286
1757.89	262
1759.99	260
1762.08	278
1764.17	276
1766.26	260
1768.36	258
1770.45	276
1772.54	270
1774.62	278
1776.71	270
1778.8	266
1780.89	262
1782.98	250
1785.06	270
1787.15	278
1789.23	278
1791.32	286
1793.4	268
1795.48	280
1797.56	258
1799.65	274
1801.73	288
1803.81	276
1805.89	270
1807.97	300
1810.04	284
1812.12	288
1814.2	292
1816.28	276
1818.35	274
1820.43	280
1822.5	282
1824.58	302
1826.65	276
1828.72	286
1830.79	284
1832.86	286
1834.94	276
1837.01	282
1839.08	278
1841.15	290
1843.21	270
1845.28	278
1847.35	278
1849.41	282
1851.48	274
1853.55	284
1855.61	294
1857.67	276
1859.74	280
1861.8	282
1863.86	270
1865.92	280
1867.98	292
1870.05	280
1872.1	282
1874.16	278
1876.22	268
1878.28	288
1880.34	270
1882.39	284
1884.45	266
1886.5	282
1888.56	278
1890.61	284
1892.67	288
1894.72	296
1896.77	280
1898.82	276
1900.87	282
1902.92	292
1904.97	284
1907.02	310
1909.07	286
1911.12	304
1913.17	300
1915.21	298
1917.26	288
1919.3	284
1921.35	306
1923.39	308
1925.43	306
1927.48	298
1929.52	280
1931.56	304
1933.6	290
1935.64	288
1937.68	282
1939.72	290
1941.76	308
1943.8	294
1945.83	306
1947.87	300
1949.91	302
1951.94	300
1953.98	286
1956.01	288
1958.05	284
1960.08	298
1962.11	308
1964.14	296
1966.17	288
1968.2	300
1970.23	274
1972.26	286
1974.29	300
1976.32	292
1978.35	286
1980.37	300
1982.4	280
1984.43	294
1986.45	294
1988.48	308
1990.5	296
1992.52	298
1994.55	274
1996.57	284
1998.59	280
2000.61	312
2002.63	290
2004.65	286
2006.67	300
2008.69	324
2010.7	296
2012.72	288
2014.74	300
2016.75	290
2018.77	306
2020.78	286
2022.8	292
2024.81	306
2026.83	298
2028.84	314
2030.85	300
2032.86	312
2034.87	304
2036.88	292
2038.89	302
2040.9	314
2042.91	306
2044.91	308
2046.92	288
2048.93	298
2050.93	322
2052.94	290
2054.94	304
2056.95	300
2058.95	300
2060.95	306
2062.95	324
2064.96	296
2066.96	304
2068.96	308
2070.96	308
2072.96	304
2074.95	308
2076.95	300
2078.95	286
2080.95	306
2082.94	310
2084.94	292
2086.93	322
2088.93	320
2090.92	318
2092.91	314
2094.91	310
2096.9	306
2098.89	308
2100.88	290
2102.87	318
2104.86	314
2106.85	294
2108.84	324
2110.83	304
2112.81	310
2114.8	318
2116.78	308
2118.77	286
2120.75	296
2122.74	310
2124.72	300
2126.71	326
2128.69	296
2130.67	310
2132.65	310
2134.63	322
2136.61	300
2138.59	308
2140.57	332
2142.55	314
2144.53	324
2146.5	328
2148.48	306
2150.46	340
2152.43	316
2154.41	320
2156.38	318
2158.35	298
2160.33	332
2162.3	304
2164.27	308
2166.24	330
2168.21	330
2170.18	294
2172.15	300
2174.12	308
2176.09	310
2178.06	324
2180.03	324
2181.99	330
2183.96	318
2185.92	314
2187.89	320
2189.85	300
2191.82	326
2193.78	326
2195.74	334
2197.7	314
2199.67	330
2201.63	330
2203.59	316
2205.55	312
2207.51	316
2209.46	306
2211.42	324
2213.38	318
2215.34	324
2217.29	316
2219.25	322
2221.2	312
2223.16	332
2225.11	328
2227.06	320
2229.02	334
2230.97	324
2232.92	328
2234.87	328
2236.82	334
2238.77	328
2240.72	320
2242.67	336
2244.62	316
2246.57	326
2248.51	316
2250.46	310
2252.4	324
2254.35	314
2256.29	330
2258.24	332
2260.18	320
2262.13	334
2264.07	324
2266.01	328
2267.95	320
2269.89	312
2271.83	320
2273.77	330
2275.71	340
2277.65	330
2279.58	316
2281.52	320
2283.46	324
2285.4	328
2287.33	318
2289.27	332
2291.2	338
2293.13	326
2295.07	326
2297	294
2298.93	308
2300.86	332
2302.79	318
2304.72	320
2306.65	340
2308.58	324
2310.51	334
2312.44	324
2314.37	320
2316.29	340
2318.22	330
2320.15	326
2322.07	318
2324	326
2325.92	332
2327.84	322
2329.77	340
2331.69	350
2333.61	340
2335.53	328
2337.45	318
2339.37	308
2341.29	332
2343.21	330
2345.13	330
2347.05	328
2348.97	322
2350.88	354
2352.8	334
2354.71	336
2356.63	334
2358.54	330
2360.46	360
2362.37	336
2364.28	334
2366.2	328
2368.11	316
2370.02	320
2371.93	342
2373.84	334
2375.75	346
2377.66	320
2379.57	354
2381.47	342
2383.38	342
2385.29	320
2387.2	322
2389.1	332
2391.01	330
2392.91	304
2394.81	352
2396.72	328
2398.62	336
2400.52	332
2402.42	334
2404.33	334
2406.23	340
2408.13	346
2410.03	336
2411.92	356
2413.82	340
2415.72	348
2417.62	340
2419.51	346
2421.41	332
2423.31	336
2425.2	336
2427.1	348
2428.99	332
2430.88	354
2432.78	332
2434.67	348
2436.56	346
2438.45	324
2440.34	348
2442.23	354
2444.12	356
2446.01	338
2447.9	356
2449.79	340