File: Mixture_Classification/Jesse_Dataset_v2/Pure Raman/Polystyrene/633nm/ps-ppo-7jan25-1,0000-map3_Y03_X05.txt
182.393	1094
184.993	1018
187.593	1022
190.193	1028
192.79	978
195.387	968
197.983	986
200.578	986
203.174	966
205.766	1026
208.36	1074
210.951	1058
213.542	1054
216.131	1100
218.721	1110
221.309	1134
223.897	1124
226.483	1074
229.069	964
231.654	974
234.238	880
236.821	800
239.404	714
241.984	646
244.566	560
247.145	496
249.723	464
252.302	410
254.878	414
257.455	394
260.03	384
262.604	392
265.178	378
267.75	362
270.322	360
272.893	352
275.463	352
278.032	338
280.601	330
283.168	350
285.734	314
288.301	302
290.866	292
293.429	280
295.992	284
298.556	270
301.117	268
303.677	264
306.236	266
308.795	264
311.354	266
313.911	254
316.467	258
319.022	276
321.577	272
324.13	254
326.684	256
329.236	240
331.787	260
334.337	262
336.887	258
339.435	260
341.983	252
344.529	256
347.075	242
349.621	240
352.165	250
354.708	244
357.251	236
359.793	214
362.334	258
364.874	228
367.413	224
369.951	234
372.489	240
375.026	242
377.562	274
380.097	264
382.631	272
385.164	270
387.697	298
390.229	296
392.76	294
395.29	294
397.819	308
400.346	322
402.873	328
405.4	352
407.926	372
410.451	360
412.976	338
415.499	320
418.02	316
420.542	296
423.063	282
425.583	274
428.101	254
430.619	258
433.137	246
435.654	240
438.169	242
440.684	238
443.198	248
445.712	232
448.223	228
450.735	230
453.246	214
455.755	198
458.264	210
460.771	214
463.279	200
465.786	200
468.291	208
470.796	206
473.301	210
475.803	198
478.306	202
480.807	188
483.308	182
485.807	188
488.307	184
490.804	200
493.302	196
495.798	194
498.294	200
500.788	194
503.283	210
505.775	214
508.269	196
510.759	202
513.251	190
515.74	206
518.23	216
520.718	204
523.204	210
525.692	222
528.177	224
530.663	226
533.147	246
535.629	252
538.113	276
540.594	278
543.074	276
545.555	278
548.034	252
550.512	274
552.989	278
555.467	272
557.942	252
560.417	272
562.892	264
565.365	264
567.838	254
570.309	260
572.78	252
575.251	266
577.72	256
580.189	252
582.656	220
585.123	222
587.589	226
590.055	214
592.52	220
594.983	228
597.446	212
599.908	230
602.369	228
604.829	236
607.289	256
609.747	278
612.205	294
614.663	342
617.119	418
619.574	724
622.029	1092
624.483	998
626.936	540
629.389	342
631.84	284
634.291	250
636.741	230
639.19	208
641.639	208
644.086	202
646.533	188
648.979	196
651.424	188
653.869	190
656.313	174
658.754	180
661.196	174
663.638	186
666.078	182
668.518	188
670.957	190
673.394	186
675.831	202
678.268	186
680.703	174
683.137	172
685.571	170
688.005	206
690.437	192
692.868	180
695.299	196
697.729	202
700.159	212
702.586	234
705.014	216
707.441	230
709.866	224
712.292	220
714.716	232
717.14	236
719.563	222
721.984	250
724.406	310
726.825	328
729.246	302
731.665	280
734.082	286
736.5	302
738.916	336
741.332	376
743.746	404
746.161	412
748.574	406
750.987	434
753.398	440
755.81	448
758.219	468
760.629	506
763.037	486
765.445	482
767.852	476
770.258	454
772.664	436
775.068	434
777.472	428
779.876	462
782.278	464
784.679	512
787.08	580
789.48	630
791.879	664
794.278	688
796.675	700
799.072	684
801.467	636
803.864	570
806.258	504
808.651	448
811.044	418
813.437	386
815.828	362
818.218	352
820.608	322
822.997	308
825.385	288
827.773	286
830.16	296
832.546	278
834.931	300
837.315	350
839.699	376
842.081	408
844.463	392
846.844	400
849.226	368
851.606	342
853.985	330
856.363	324
858.741	324
861.117	328
863.493	310
865.868	332
868.243	332
870.616	328
872.989	332
875.36	310
877.731	330
880.102	334
882.472	314
884.841	310
887.209	324
889.577	314
891.944	324
894.31	318
896.674	304
899.039	336
901.403	348
903.766	360
906.128	382
908.49	392
910.849	364
913.209	366
915.569	340
917.927	320
920.284	298
922.641	294
924.997	288
927.353	292
929.707	278
932.061	288
934.414	284
936.765	288
939.117	300
941.469	288
943.818	316
946.167	282
948.515	306
950.863	294
953.211	306
955.556	304
957.902	310
960.246	350
962.59	358
964.933	358
967.276	390
969.617	356
971.958	372
974.298	364
976.638	418
978.976	458
981.314	500
983.651	584
985.988	674
988.323	814
990.659	1202
992.992	1798
995.325	1946
997.658	2362
999.99	4302
1002.32	6626
1004.65	6246
1006.98	3376
1009.31	1620
1011.64	882
1013.97	614
1016.29	544
1018.62	528
1020.94	552
1023.27	656
1025.59	870
1027.91	1224
1030.24	1704
1032.56	2048
1034.88	1924
1037.2	1502
1039.52	1014
1041.84	756
1044.15	610
1046.47	538
1048.79	480
1051.1	452
1053.42	440
1055.73	456
1058.04	450
1060.36	448
1062.67	452
1064.98	460
1067.29	450
1069.6	492
1071.91	498
1074.22	502
1076.52	470
1078.83	492
1081.14	466
1083.44	494
1085.75	440
1088.05	460
1090.35	458
1092.65	458
1094.95	488
1097.26	482
1099.56	466
1101.86	466
1104.15	454
1106.45	434
1108.75	380
1111.05	396
1113.34	396
1115.64	372
1117.93	352
1120.22	354
1122.52	342
1124.81	320
1127.1	328
1129.39	320
1131.68	312
1133.97	328
1136.26	332
1138.54	330
1140.83	358
1143.12	372
1145.4	388
1147.69	452
1149.97	542
1152.25	676
1154.54	906
1156.82	1006
1159.1	910
1161.38	748
1163.66	626
1165.94	532
1168.22	536
1170.49	542
1172.77	596
1175.05	680
1177.32	812
1179.6	1048
1181.87	1206
1184.14	1226
1186.42	1168
1188.69	1074
1190.96	1086
1193.23	1174
1195.5	1204
1197.77	1264
1200.03	1230
1202.3	1180
1204.57	1102
1206.83	1022
1209.1	904
1211.36	752
1213.63	636
1215.89	586
1218.15	554
1220.41	538
1222.67	502
1224.93	490
1227.19	484
1229.45	470
1231.71	446
1233.97	420
1236.22	420
1238.48	406
1240.73	418
1242.99	400
1245.24	406
1247.5	382
1249.75	370
1252	382
1254.25	384
1256.5	384
1258.75	384
1261	392
1263.25	380
1265.49	380
1267.74	370
1269.99	374
1272.23	374
1274.48	360
1276.72	358
1278.96	372
1281.21	360
1283.45	380
1285.69	360
1287.93	390
1290.17	398
1292.41	400
1294.64	398
1296.88	426
1299.12	420
1301.36	406
1303.59	432
1305.82	450
1308.06	456
1310.29	458
1312.52	454
1314.76	442
1316.99	474
1319.22	474
1321.45	524
1323.68	528
1325.9	552
1328.13	540
1330.36	546
1332.58	540
1334.81	536
1337.04	494
1339.26	464
1341.48	446
1343.71	442
1345.93	406
1348.15	384
1350.37	392
1352.59	392
1354.81	384
1357.03	382
1359.24	382
1361.46	400
1363.68	382
1365.89	392
1368.11	390
1370.32	384
1372.54	394
1374.75	394
1376.96	412
1379.17	380
1381.38	362
1383.59	328
1385.8	332
1388.01	316
1390.22	302
1392.43	298
1394.63	298
1396.84	278
1399.05	300
1401.25	290
1403.45	280
1405.66	290
1407.86	280
1410.06	288
1412.26	272
1414.46	284
1416.66	292
1418.86	290
1421.06	254
1423.26	282
1425.46	286
1427.65	276
1429.85	296
1432.04	318
1434.24	348
1436.43	374
1438.62	398
1440.82	470
1443.01	486
1445.2	546
1447.39	590
1449.58	612
1451.77	626
1453.95	596
1456.14	548
1458.33	482
1460.52	382
1462.7	348
1464.89	302
1467.07	292
1469.25	296
1471.44	284
1473.62	294
1475.8	282
1477.98	278
1480.16	298
1482.34	286
1484.52	278
1486.7	276
1488.87	286
1491.05	282
1493.23	316
1495.4	312
1497.58	302
1499.75	290
1501.92	288
1504.1	276
1506.27	280
1508.44	282
1510.61	276
1512.78	272
1514.95	274
1517.12	274
1519.28	284
1521.45	280
1523.62	278
1525.78	280
1527.95	266
1530.11	290
1532.28	294
1534.44	264
1536.6	286
1538.76	288
1540.93	282
1543.09	276
1545.25	294
1547.41	278
1549.56	274
1551.72	294
1553.88	306
1556.03	298
1558.19	306
1560.35	292
1562.5	322
1564.65	308
1566.81	338
1568.96	326
1571.11	364
1573.26	374
1575.41	408
1577.56	486
1579.71	604
1581.86	806
1584.01	1020
1586.15	924
1588.3	690
1590.45	604
1592.59	598
1594.74	722
1596.88	846
1599.02	1236
1601.17	1674
1603.31	1902
1605.45	1646
1607.59	1318
1609.73	916
1611.87	700
1614.01	564
1616.14	488
1618.28	424
1620.42	410
1622.55	388
1624.69	354
1626.82	352
1628.96	334
1631.09	332
1633.22	330
1635.36	314
1637.49	322
1639.62	322
1641.75	332
1643.88	338
1646	340
1648.13	338
1650.26	356
1652.39	328
1654.51	306
1656.64	302
1658.76	300
1660.89	292
1663.01	306
1665.13	290
1667.26	290
1669.38	288
1671.5	278
1673.62	282
1675.74	280
1677.86	300
1679.97	284
1682.09	286
1684.21	274
1686.33	302
1688.44	296
1690.56	274
1692.67	276
1694.78	290
1696.9	296
1699.01	290
1701.12	298
1703.23	288
1705.34	270
1707.45	274
1709.56	264
1711.67	282
1713.78	278
1715.88	282
1717.99	274
1720.1	286
1722.2	284
1724.31	292
1726.41	280
1728.51	272
1730.62	284
1732.72	286
1734.82	286
1736.92	272
1739.02	288
1741.12	274
1743.22	278
1745.32	294
1747.42	284
1749.51	278
1751.61	282
1753.7	284
1755.8	294
1757.89	274
1759.99	286
1762.08	284
1764.17	278
1766.26	276
1768.36	290
1770.45	274
1772.54	274
1774.62	270
1776.71	292
1778.8	270
1780.89	284
1782.98	268
1785.06	308
1787.15	292
1789.23	292
1791.32	294
1793.4	286
1795.48	304
1797.56	290
1799.65	262
1801.73	282
1803.81	286
1805.89	276
1807.97	302
1810.04	282
1812.12	310
1814.2	290
1816.28	284
1818.35	286
1820.43	290
1822.5	286
1824.58	276
1826.65	292
1828.72	290
1830.79	284
1832.86	284
1834.94	278
1837.01	272
1839.08	288
1841.15	300
1843.21	280
1845.28	284
1847.35	278
1849.41	276
1851.48	286
1853.55	272
1855.61	292
1857.67	304
1859.74	296
1861.8	286
1863.86	292
1865.92	290
1867.98	286
1870.05	298
1872.1	296
1874.16	278
1876.22	288
1878.28	302
1880.34	276
1882.39	302
1884.45	270
1886.5	304
1888.56	280
1890.61	286
1892.67	306
1894.72	298
1896.77	282
1898.82	290
1900.87	304
1902.92	292
1904.97	282
1907.02	286
1909.07	304
1911.12	306
1913.17	294
1915.21	296
1917.26	300
1919.3	306
1921.35	304
1923.39	314
1925.43	292
1927.48	316
1929.52	304
1931.56	264
1933.6	288
1935.64	318
1937.68	320
1939.72	302
1941.76	288
1943.8	300
1945.83	308
1947.87	306
1949.91	298
1951.94	298
1953.98	314
1956.01	298
1958.05	296
1960.08	302
1962.11	308
1964.14	308
1966.17	282
1968.2	296
1970.23	294
1972.26	318
1974.29	312
1976.32	300
1978.35	304
1980.37	302
1982.4	292
1984.43	312
1986.45	300
1988.48	298
1990.5	300
1992.52	304
1994.55	282
1996.57	278
1998.59	306
2000.61	298
2002.63	300
2004.65	300
2006.67	292
2008.69	304
2010.7	320
2012.72	308
2014.74	330
2016.75	300
2018.77	318
2020.78	316
2022.8	314
2024.81	310
2026.83	320
2028.84	306
2030.85	296
2032.86	292
2034.87	308
2036.88	302
2038.89	316
2040.9	308
2042.91	328
2044.91	322
2046.92	320
2048.93	306
2050.93	306
2052.94	312
2054.94	306
2056.95	324
2058.95	322
2060.95	308
2062.95	320
2064.96	328
2066.96	324
2068.96	314
2070.96	308
2072.96	326
2074.95	326
2076.95	330
2078.95	320
2080.95	312
2082.94	316
2084.94	312
2086.93	322
2088.93	330
2090.92	312
2092.91	314
2094.91	308
2096.9	306
2098.89	326
2100.88	316
2102.87	310
2104.86	340
2106.85	318
2108.84	300
2110.83	330
2112.81	322
2114.8	324
2116.78	326
2118.77	328
2120.75	326
2122.74	322
2124.72	316
2126.71	328
2128.69	318
2130.67	316
2132.65	322
2134.63	300
2136.61	300
2138.59	330
2140.57	322
2142.55	326
2144.53	328
2146.5	326
2148.48	338
2150.46	336
2152.43	346
2154.41	316
2156.38	314
2158.35	316
2160.33	332
2162.3	326
2164.27	318
2166.24	334
2168.21	308
2170.18	328
2172.15	310
2174.12	310
2176.09	338
2178.06	316
2180.03	324
2181.99	316
2183.96	308
2185.92	322
2187.89	348
2189.85	326
2191.82	322
2193.78	348
2195.74	336
2197.7	328
2199.67	328
2201.63	324
2203.59	332
2205.55	334
2207.51	324
2209.46	316
2211.42	326
2213.38	336
2215.34	312
2217.29	320
2219.25	316
2221.2	338
2223.16	324
2225.11	340
2227.06	338
2229.02	326
2230.97	334
2232.92	324
2234.87	336
2236.82	330
2238.77	332
2240.72	344
2242.67	338
2244.62	336
2246.57	324
2248.51	330
2250.46	334
2252.4	348
2254.35	342
2256.29	342
2258.24	340
2260.18	336
2262.13	344
2264.07	332
2266.01	346
2267.95	338
2269.89	312
2271.83	316
2273.77	342
2275.71	322
2277.65	336
2279.58	336
2281.52	334
2283.46	340
2285.4	344
2287.33	340
2289.27	328
2291.2	334
2293.13	334
2295.07	336
2297	336
2298.93	360
2300.86	328
2302.79	336
2304.72	332
2306.65	340
2308.58	350
2310.51	356
2312.44	356
2314.37	344
2316.29	340
2318.22	342
2320.15	322
2322.07	354
2324	336
2325.92	332
2327.84	334
2329.77	324
2331.69	332
2333.61	350
2335.53	348
2337.45	334
2339.37	338
2341.29	338
2343.21	346
2345.13	362
2347.05	340
2348.97	348
2350.88	352
2352.8	344
2354.71	354
2356.63	322
2358.54	356
2360.46	348
2362.37	354
2364.28	370
2366.2	350
2368.11	348
2370.02	342
2371.93	340
2373.84	346
2375.75	336
2377.66	358
2379.57	350
2381.47	354
2383.38	336
2385.29	358
2387.2	352
2389.1	346
2391.01	340
2392.91	350
2394.81	350
2396.72	360
2398.62	358
2400.52	338
2402.42	352
2404.33	356
2406.23	356
2408.13	354
2410.03	336
2411.92	348
2413.82	348
2415.72	350
2417.62	344
2419.51	340
2421.41	350
2423.31	348
2425.2	342
2427.1	352
2428.99	366
2430.88	352
2432.78	350
2434.67	374
2436.56	364
2438.45	362
2440.34	354
2442.23	368
2444.12	356
2446.01	350
2447.9	362
2449.79	336