File: Mixture_Classification/Jesse_Dataset_v2/Pure Raman/Polystyrene/633nm/ps-ppo-7jan25-1,0000-map3_Y02_X04.txt
182.393	1066
184.993	1048
187.593	1004
190.193	974
192.79	956
195.387	972
197.983	982
200.578	958
203.174	992
205.766	964
208.36	1044
210.951	1020
213.542	1076
216.131	1096
218.721	1090
221.309	1112
223.897	1096
226.483	1076
229.069	1006
231.654	962
234.238	834
236.821	776
239.404	718
241.984	646
244.566	532
247.145	500
249.723	466
252.302	410
254.878	414
257.455	408
260.03	346
262.604	362
265.178	348
267.75	380
270.322	364
272.893	344
275.463	338
278.032	328
280.601	336
283.168	306
285.734	310
288.301	286
290.866	284
293.429	266
295.992	270
298.556	258
301.117	242
303.677	248
306.236	258
308.795	260
311.354	254
313.911	256
316.467	262
319.022	242
321.577	260
324.13	260
326.684	266
329.236	266
331.787	260
334.337	250
336.887	246
339.435	248
341.983	248
344.529	242
347.075	222
349.621	242
352.165	234
354.708	240
357.251	236
359.793	240
362.334	250
364.874	230
367.413	244
369.951	234
372.489	220
375.026	254
377.562	252
380.097	258
382.631	264
385.164	270
387.697	274
390.229	286
392.76	296
395.29	294
397.819	310
400.346	318
402.873	320
405.4	368
407.926	364
410.451	350
412.976	342
415.499	332
418.02	312
420.542	286
423.063	264
425.583	282
428.101	224
430.619	254
433.137	244
435.654	246
438.169	248
440.684	242
443.198	240
445.712	234
448.223	226
450.735	222
453.246	218
455.755	198
458.264	184
460.771	194
463.279	210
465.786	196
468.291	206
470.796	200
473.301	194
475.803	188
478.306	200
480.807	190
483.308	194
485.807	180
488.307	180
490.804	194
493.302	206
495.798	188
498.294	198
500.788	204
503.283	198
505.775	214
508.269	206
510.759	214
513.251	200
515.74	198
518.23	214
520.718	206
523.204	222
525.692	220
528.177	224
530.663	230
533.147	238
535.629	246
538.113	250
540.594	266
543.074	256
545.555	286
548.034	260
550.512	266
552.989	274
555.467	254
557.942	272
560.417	274
562.892	244
565.365	248
567.838	264
570.309	240
572.78	284
575.251	264
577.72	264
580.189	242
582.656	240
585.123	234
587.589	232
590.055	214
592.52	222
594.983	208
597.446	218
599.908	228
602.369	216
604.829	250
607.289	272
609.747	286
612.205	290
614.663	328
617.119	450
619.574	694
622.029	1076
624.483	990
626.936	524
629.389	356
631.84	300
634.291	244
636.741	226
639.19	208
641.639	198
644.086	200
646.533	202
648.979	188
651.424	192
653.869	182
656.313	176
658.754	174
661.196	180
663.638	180
666.078	188
668.518	168
670.957	186
673.394	180
675.831	172
678.268	178
680.703	176
683.137	182
685.571	176
688.005	174
690.437	172
692.868	178
695.299	182
697.729	176
700.159	220
702.586	218
705.014	220
707.441	222
709.866	216
712.292	210
714.716	236
717.14	214
719.563	218
721.984	258
724.406	314
726.825	332
729.246	306
731.665	280
734.082	274
736.5	314
738.916	336
741.332	352
743.746	396
746.161	380
748.574	388
750.987	402
753.398	396
755.81	460
758.219	456
760.629	484
763.037	476
765.445	460
767.852	460
770.258	416
772.664	432
775.068	446
777.472	436
779.876	424
782.278	462
784.679	478
787.08	572
789.48	606
791.879	650
794.278	684
796.675	708
799.072	704
801.467	634
803.864	552
806.258	506
808.651	442
811.044	408
813.437	394
815.828	348
818.218	334
820.608	318
822.997	276
825.385	258
827.773	268
830.16	266
832.546	282
834.931	284
837.315	338
839.699	356
842.081	380
844.463	382
846.844	366
849.226	340
851.606	328
853.985	314
856.363	318
858.741	304
861.117	298
863.493	314
865.868	310
868.243	304
870.616	284
872.989	308
875.36	290
877.731	310
880.102	280
882.472	296
884.841	302
887.209	294
889.577	276
891.944	290
894.31	306
896.674	302
899.039	322
901.403	322
903.766	356
906.128	362
908.49	372
910.849	358
913.209	332
915.569	300
917.927	286
920.284	272
922.641	268
924.997	252
927.353	274
929.707	250
932.061	256
934.414	256
936.765	262
939.117	254
941.469	268
943.818	288
946.167	276
948.515	276
950.863	270
953.211	280
955.556	278
957.902	286
960.246	296
962.59	300
964.933	308
967.276	336
969.617	326
971.958	316
974.298	332
976.638	356
978.976	398
981.314	464
983.651	540
985.988	634
988.323	786
990.659	1130
992.992	1714
995.325	1902
997.658	2360
999.99	4192
1002.32	6620
1004.65	6064
1006.98	3418
1009.31	1590
1011.64	850
1013.97	574
1016.29	512
1018.62	472
1020.94	518
1023.27	646
1025.59	832
1027.91	1158
1030.24	1668
1032.56	1976
1034.88	1870
1037.2	1428
1039.52	988
1041.84	726
1044.15	582
1046.47	502
1048.79	474
1051.1	434
1053.42	430
1055.73	404
1058.04	400
1060.36	410
1062.67	416
1064.98	434
1067.29	438
1069.6	466
1071.91	456
1074.22	448
1076.52	466
1078.83	442
1081.14	442
1083.44	430
1085.75	432
1088.05	414
1090.35	446
1092.65	438
1094.95	432
1097.26	440
1099.56	456
1101.86	434
1104.15	436
1106.45	378
1108.75	398
1111.05	340
1113.34	326
1115.64	346
1117.93	334
1120.22	336
1122.52	304
1124.81	284
1127.1	284
1129.39	280
1131.68	280
1133.97	276
1136.26	284
1138.54	324
1140.83	312
1143.12	340
1145.4	374
1147.69	438
1149.97	508
1152.25	664
1154.54	894
1156.82	986
1159.1	888
1161.38	700
1163.66	592
1165.94	514
1168.22	520
1170.49	514
1172.77	558
1175.05	612
1177.32	766
1179.6	960
1181.87	1164
1184.14	1182
1186.42	1060
1188.69	1050
1190.96	1072
1193.23	1156
1195.5	1206
1197.77	1252
1200.03	1186
1202.3	1148
1204.57	1112
1206.83	954
1209.1	836
1211.36	724
1213.63	624
1215.89	560
1218.15	528
1220.41	496
1222.67	454
1224.93	470
1227.19	442
1229.45	438
1231.71	406
1233.97	414
1236.22	402
1238.48	376
1240.73	356
1242.99	398
1245.24	366
1247.5	376
1249.75	354
1252	378
1254.25	386
1256.5	358
1258.75	356
1261	362
1263.25	376
1265.49	368
1267.74	364
1269.99	360
1272.23	366
1274.48	348
1276.72	356
1278.96	350
1281.21	358
1283.45	374
1285.69	372
1287.93	364
1290.17	364
1292.41	396
1294.64	414
1296.88	394
1299.12	416
1301.36	420
1303.59	436
1305.82	424
1308.06	424
1310.29	428
1312.52	440
1314.76	442
1316.99	450
1319.22	496
1321.45	508
1323.68	512
1325.9	516
1328.13	558
1330.36	546
1332.58	548
1334.81	516
1337.04	502
1339.26	472
1341.48	454
1343.71	426
1345.93	402
1348.15	398
1350.37	390
1352.59	382
1354.81	384
1357.03	384
1359.24	372
1361.46	382
1363.68	378
1365.89	368
1368.11	400
1370.32	382
1372.54	400
1374.75	384
1376.96	388
1379.17	358
1381.38	340
1383.59	340
1385.8	330
1388.01	316
1390.22	278
1392.43	276
1394.63	278
1396.84	282
1399.05	284
1401.25	266
1403.45	278
1405.66	282
1407.86	294
1410.06	288
1412.26	272
1414.46	290
1416.66	264
1418.86	282
1421.06	258
1423.26	272
1425.46	278
1427.65	282
1429.85	302
1432.04	296
1434.24	322
1436.43	358
1438.62	398
1440.82	468
1443.01	502
1445.2	534
1447.39	578
1449.58	620
1451.77	610
1453.95	602
1456.14	574
1458.33	470
1460.52	380
1462.7	356
1464.89	320
1467.07	316
1469.25	310
1471.44	298
1473.62	268
1475.8	278
1477.98	284
1480.16	286
1482.34	280
1484.52	288
1486.7	284
1488.87	276
1491.05	300
1493.23	300
1495.4	320
1497.58	298
1499.75	294
1501.92	268
1504.1	276
1506.27	272
1508.44	284
1510.61	264
1512.78	282
1514.95	288
1517.12	278
1519.28	266
1521.45	272
1523.62	292
1525.78	276
1527.95	268
1530.11	262
1532.28	278
1534.44	272
1536.6	264
1538.76	278
1540.93	288
1543.09	280
1545.25	276
1547.41	256
1549.56	280
1551.72	296
1553.88	280
1556.03	294
1558.19	302
1560.35	282
1562.5	318
1564.65	318
1566.81	328
1568.96	346
1571.11	370
1573.26	354
1575.41	392
1577.56	474
1579.71	584
1581.86	784
1584.01	982
1586.15	884
1588.3	748
1590.45	578
1592.59	610
1594.74	702
1596.88	874
1599.02	1222
1601.17	1662
1603.31	1918
1605.45	1682
1607.59	1282
1609.73	908
1611.87	676
1614.01	572
1616.14	468
1618.28	444
1620.42	404
1622.55	374
1624.69	368
1626.82	360
1628.96	314
1631.09	320
1633.22	336
1635.36	304
1637.49	314
1639.62	342
1641.75	334
1643.88	346
1646	344
1648.13	364
1650.26	350
1652.39	344
1654.51	336
1656.64	320
1658.76	300
1660.89	292
1663.01	278
1665.13	302
1667.26	272
1669.38	310
1671.5	302
1673.62	308
1675.74	296
1677.86	278
1679.97	298
1682.09	286
1684.21	304
1686.33	290
1688.44	282
1690.56	296
1692.67	278
1694.78	280
1696.9	292
1699.01	294
1701.12	294
1703.23	292
1705.34	286
1707.45	300
1709.56	298
1711.67	284
1713.78	290
1715.88	262
1717.99	270
1720.1	282
1722.2	276
1724.31	294
1726.41	294
1728.51	298
1730.62	268
1732.72	304
1734.82	290
1736.92	298
1739.02	282
1741.12	278
1743.22	272
1745.32	304
1747.42	280
1749.51	288
1751.61	276
1753.7	284
1755.8	280
1757.89	282
1759.99	288
1762.08	278
1764.17	270
1766.26	286
1768.36	272
1770.45	278
1772.54	294
1774.62	296
1776.71	272
1778.8	274
1780.89	270
1782.98	282
1785.06	274
1787.15	304
1789.23	298
1791.32	288
1793.4	288
1795.48	286
1797.56	292
1799.65	280
1801.73	284
1803.81	274
1805.89	280
1807.97	296
1810.04	274
1812.12	306
1814.2	296
1816.28	286
1818.35	292
1820.43	290
1822.5	288
1824.58	296
1826.65	276
1828.72	300
1830.79	304
1832.86	278
1834.94	296
1837.01	298
1839.08	296
1841.15	292
1843.21	286
1845.28	288
1847.35	284
1849.41	280
1851.48	288
1853.55	284
1855.61	300
1857.67	268
1859.74	300
1861.8	300
1863.86	306
1865.92	298
1867.98	292
1870.05	292
1872.1	284
1874.16	270
1876.22	288
1878.28	286
1880.34	300
1882.39	282
1884.45	290
1886.5	296
1888.56	304
1890.61	268
1892.67	294
1894.72	292
1896.77	300
1898.82	290
1900.87	294
1902.92	300
1904.97	304
1907.02	302
1909.07	302
1911.12	304
1913.17	298
1915.21	284
1917.26	316
1919.3	314
1921.35	296
1923.39	310
1925.43	310
1927.48	312
1929.52	314
1931.56	302
1933.6	330
1935.64	298
1937.68	306
1939.72	314
1941.76	318
1943.8	304
1945.83	318
1947.87	298
1949.91	324
1951.94	322
1953.98	312
1956.01	288
1958.05	320
1960.08	316
1962.11	318
1964.14	292
1966.17	294
1968.2	306
1970.23	314
1972.26	292
1974.29	314
1976.32	286
1978.35	312
1980.37	302
1982.4	300
1984.43	298
1986.45	306
1988.48	294
1990.5	302
1992.52	312
1994.55	306
1996.57	296
1998.59	310
2000.61	316
2002.63	312
2004.65	302
2006.67	308
2008.69	316
2010.7	310
2012.72	314
2014.74	312
2016.75	322
2018.77	306
2020.78	322
2022.8	314
2024.81	320
2026.83	326
2028.84	326
2030.85	306
2032.86	300
2034.87	304
2036.88	298
2038.89	308
2040.9	306
2042.91	304
2044.91	318
2046.92	304
2048.93	318
2050.93	330
2052.94	324
2054.94	314
2056.95	328
2058.95	322
2060.95	318
2062.95	314
2064.96	300
2066.96	314
2068.96	312
2070.96	324
2072.96	316
2074.95	306
2076.95	328
2078.95	320
2080.95	302
2082.94	326
2084.94	304
2086.93	318
2088.93	330
2090.92	318
2092.91	336
2094.91	316
2096.9	314
2098.89	318
2100.88	318
2102.87	298
2104.86	318
2106.85	332
2108.84	326
2110.83	314
2112.81	314
2114.8	310
2116.78	324
2118.77	330
2120.75	304
2122.74	316
2124.72	308
2126.71	316
2128.69	308
2130.67	316
2132.65	318
2134.63	320
2136.61	320
2138.59	326
2140.57	328
2142.55	330
2144.53	322
2146.5	312
2148.48	338
2150.46	308
2152.43	332
2154.41	318
2156.38	320
2158.35	322
2160.33	326
2162.3	330
2164.27	340
2166.24	314
2168.21	332
2170.18	332
2172.15	328
2174.12	318
2176.09	332
2178.06	332
2180.03	294
2181.99	326
2183.96	334
2185.92	334
2187.89	324
2189.85	324
2191.82	344
2193.78	332
2195.74	338
2197.7	354
2199.67	354
2201.63	338
2203.59	342
2205.55	328
2207.51	326
2209.46	352
2211.42	344
2213.38	330
2215.34	332
2217.29	338
2219.25	344
2221.2	350
2223.16	336
2225.11	328
2227.06	330
2229.02	338
2230.97	336
2232.92	350
2234.87	332
2236.82	330
2238.77	310
2240.72	316
2242.67	330
2244.62	332
2246.57	344
2248.51	338
2250.46	316
2252.4	312
2254.35	330
2256.29	336
2258.24	314
2260.18	348
2262.13	344
2264.07	320
2266.01	350
2267.95	320
2269.89	326
2271.83	312
2273.77	324
2275.71	344
2277.65	332
2279.58	332
2281.52	338
2283.46	328
2285.4	316
2287.33	338
2289.27	328
2291.2	330
2293.13	338
2295.07	336
2297	356
2298.93	344
2300.86	342
2302.79	344
2304.72	364
2306.65	336
2308.58	354
2310.51	352
2312.44	344
2314.37	360
2316.29	334
2318.22	342
2320.15	342
2322.07	338
2324	342
2325.92	328
2327.84	344
2329.77	326
2331.69	334
2333.61	334
2335.53	344
2337.45	320
2339.37	340
2341.29	338
2343.21	340
2345.13	334
2347.05	340
2348.97	338
2350.88	330
2352.8	350
2354.71	344
2356.63	330
2358.54	354
2360.46	344
2362.37	354
2364.28	356
2366.2	348
2368.11	352
2370.02	340
2371.93	354
2373.84	350
2375.75	322
2377.66	338
2379.57	354
2381.47	352
2383.38	366
2385.29	342
2387.2	360
2389.1	362
2391.01	342
2392.91	360
2394.81	330
2396.72	360
2398.62	378
2400.52	348
2402.42	342
2404.33	342
2406.23	344
2408.13	350
2410.03	352
2411.92	356
2413.82	356
2415.72	348
2417.62	350
2419.51	340
2421.41	348
2423.31	334
2425.2	358
2427.1	352
2428.99	342
2430.88	334
2432.78	328
2434.67	368
2436.56	312
2438.45	350
2440.34	358
2442.23	354
2444.12	362
2446.01	362
2447.9	362
2449.79	362