File: Mixture_Classification/Jesse_Dataset_v2/Pure Raman/Polystyrene/633nm/ps-ppo-7jan25-1,0000-map3_Y10_X10.txt
182.393	1022
184.993	982
187.593	948
190.193	968
192.79	928
195.387	934
197.983	942
200.578	942
203.174	916
205.766	974
208.36	950
210.951	980
213.542	1066
216.131	1064
218.721	1042
221.309	1064
223.897	1062
226.483	1024
229.069	996
231.654	896
234.238	812
236.821	728
239.404	672
241.984	580
244.566	498
247.145	454
249.723	404
252.302	374
254.878	382
257.455	370
260.03	378
262.604	356
265.178	336
267.75	340
270.322	304
272.893	332
275.463	318
278.032	302
280.601	300
283.168	270
285.734	270
288.301	278
290.866	264
293.429	252
295.992	244
298.556	232
301.117	230
303.677	234
306.236	222
308.795	214
311.354	230
313.911	248
316.467	230
319.022	234
321.577	242
324.13	232
326.684	216
329.236	242
331.787	228
334.337	254
336.887	224
339.435	238
341.983	244
344.529	226
347.075	214
349.621	202
352.165	222
354.708	222
357.251	226
359.793	220
362.334	228
364.874	218
367.413	222
369.951	204
372.489	212
375.026	234
377.562	226
380.097	238
382.631	244
385.164	252
387.697	260
390.229	284
392.76	246
395.29	284
397.819	290
400.346	300
402.873	306
405.4	314
407.926	348
410.451	328
412.976	328
415.499	310
418.02	258
420.542	260
423.063	264
425.583	260
428.101	236
430.619	238
433.137	226
435.654	232
438.169	210
440.684	220
443.198	220
445.712	214
448.223	198
450.735	196
453.246	206
455.755	192
458.264	176
460.771	186
463.279	188
465.786	178
468.291	184
470.796	182
473.301	194
475.803	176
478.306	176
480.807	172
483.308	168
485.807	174
488.307	190
490.804	184
493.302	170
495.798	190
498.294	186
500.788	188
503.283	190
505.775	194
508.269	204
510.759	198
513.251	190
515.74	190
518.23	200
520.718	200
523.204	196
525.692	204
528.177	224
530.663	222
533.147	240
535.629	244
538.113	262
540.594	252
543.074	256
545.555	258
548.034	262
550.512	268
552.989	256
555.467	252
557.942	244
560.417	258
562.892	242
565.365	252
567.838	264
570.309	256
572.78	242
575.251	276
577.72	244
580.189	240
582.656	210
585.123	208
587.589	218
590.055	220
592.52	212
594.983	214
597.446	206
599.908	220
602.369	210
604.829	236
607.289	258
609.747	282
612.205	286
614.663	314
617.119	434
619.574	718
622.029	1098
624.483	968
626.936	506
629.389	340
631.84	278
634.291	250
636.741	212
639.19	212
641.639	188
644.086	184
646.533	184
648.979	188
651.424	168
653.869	178
656.313	170
658.754	180
661.196	172
663.638	166
666.078	178
668.518	176
670.957	176
673.394	170
675.831	170
678.268	174
680.703	176
683.137	172
685.571	170
688.005	178
690.437	180
692.868	178
695.299	164
697.729	184
700.159	208
702.586	214
705.014	226
707.441	212
709.866	210
712.292	212
714.716	216
717.14	212
719.563	230
721.984	246
724.406	302
726.825	314
729.246	286
731.665	278
734.082	294
736.5	288
738.916	334
741.332	362
743.746	366
746.161	376
748.574	372
750.987	398
753.398	420
755.81	424
758.219	470
760.629	484
763.037	496
765.445	460
767.852	432
770.258	458
772.664	420
775.068	416
777.472	390
779.876	428
782.278	442
784.679	492
787.08	546
789.48	600
791.879	624
794.278	686
796.675	694
799.072	656
801.467	646
803.864	542
806.258	480
808.651	416
811.044	386
813.437	348
815.828	336
818.218	328
820.608	292
822.997	290
825.385	270
827.773	262
830.16	262
832.546	278
834.931	280
837.315	314
839.699	340
842.081	390
844.463	370
846.844	346
849.226	332
851.606	306
853.985	310
856.363	300
858.741	282
861.117	284
863.493	274
865.868	284
868.243	300
870.616	288
872.989	284
875.36	304
877.731	290
880.102	270
882.472	274
884.841	274
887.209	270
889.577	274
891.944	280
894.31	284
896.674	288
899.039	302
901.403	312
903.766	340
906.128	364
908.49	338
910.849	334
913.209	310
915.569	302
917.927	284
920.284	250
922.641	250
924.997	256
927.353	260
929.707	256
932.061	232
934.414	258
936.765	260
939.117	254
941.469	256
943.818	250
946.167	260
948.515	280
950.863	266
953.211	254
955.556	274
957.902	248
960.246	262
962.59	304
964.933	304
967.276	332
969.617	320
971.958	340
974.298	334
976.638	352
978.976	404
981.314	482
983.651	532
985.988	594
988.323	802
990.659	1190
992.992	1740
995.325	1884
997.658	2342
999.99	4270
1002.32	6568
1004.65	5984
1006.98	3316
1009.31	1486
1011.64	796
1013.97	530
1016.29	470
1018.62	478
1020.94	502
1023.27	592
1025.59	832
1027.91	1210
1030.24	1670
1032.56	1970
1034.88	1890
1037.2	1380
1039.52	920
1041.84	684
1044.15	538
1046.47	480
1048.79	444
1051.1	416
1053.42	398
1055.73	410
1058.04	380
1060.36	392
1062.67	422
1064.98	408
1067.29	426
1069.6	458
1071.91	414
1074.22	454
1076.52	428
1078.83	436
1081.14	434
1083.44	426
1085.75	418
1088.05	404
1090.35	408
1092.65	394
1094.95	418
1097.26	430
1099.56	432
1101.86	430
1104.15	418
1106.45	400
1108.75	350
1111.05	330
1113.34	324
1115.64	326
1117.93	304
1120.22	304
1122.52	298
1124.81	274
1127.1	254
1129.39	256
1131.68	266
1133.97	274
1136.26	282
1138.54	310
1140.83	320
1143.12	308
1145.4	360
1147.69	414
1149.97	488
1152.25	656
1154.54	882
1156.82	996
1159.1	860
1161.38	690
1163.66	566
1165.94	500
1168.22	522
1170.49	504
1172.77	556
1175.05	604
1177.32	724
1179.6	994
1181.87	1144
1184.14	1210
1186.42	1126
1188.69	1060
1190.96	1080
1193.23	1114
1195.5	1222
1197.77	1224
1200.03	1194
1202.3	1170
1204.57	1086
1206.83	970
1209.1	858
1211.36	706
1213.63	618
1215.89	560
1218.15	484
1220.41	478
1222.67	458
1224.93	450
1227.19	442
1229.45	448
1231.71	410
1233.97	384
1236.22	374
1238.48	372
1240.73	380
1242.99	364
1245.24	378
1247.5	370
1249.75	362
1252	364
1254.25	354
1256.5	344
1258.75	356
1261	322
1263.25	348
1265.49	366
1267.74	354
1269.99	358
1272.23	336
1274.48	354
1276.72	332
1278.96	332
1281.21	362
1283.45	346
1285.69	344
1287.93	360
1290.17	364
1292.41	378
1294.64	370
1296.88	384
1299.12	400
1301.36	390
1303.59	416
1305.82	412
1308.06	436
1310.29	430
1312.52	432
1314.76	442
1316.99	452
1319.22	486
1321.45	498
1323.68	514
1325.9	524
1328.13	508
1330.36	524
1332.58	512
1334.81	538
1337.04	462
1339.26	470
1341.48	426
1343.71	412
1345.93	398
1348.15	400
1350.37	388
1352.59	390
1354.81	388
1357.03	352
1359.24	374
1361.46	368
1363.68	386
1365.89	388
1368.11	386
1370.32	374
1372.54	376
1374.75	384
1376.96	350
1379.17	366
1381.38	350
1383.59	326
1385.8	322
1388.01	292
1390.22	294
1392.43	282
1394.63	284
1396.84	276
1399.05	260
1401.25	282
1403.45	270
1405.66	278
1407.86	280
1410.06	268
1412.26	278
1414.46	272
1416.66	262
1418.86	270
1421.06	280
1423.26	270
1425.46	280
1427.65	280
1429.85	286
1432.04	312
1434.24	330
1436.43	376
1438.62	422
1440.82	432
1443.01	502
1445.2	538
1447.39	604
1449.58	568
1451.77	594
1453.95	580
1456.14	532
1458.33	440
1460.52	384
1462.7	346
1464.89	318
1467.07	300
1469.25	276
1471.44	278
1473.62	296
1475.8	298
1477.98	286
1480.16	264
1482.34	284
1484.52	266
1486.7	278
1488.87	280
1491.05	298
1493.23	300
1495.4	328
1497.58	288
1499.75	274
1501.92	284
1504.1	284
1506.27	280
1508.44	260
1510.61	272
1512.78	268
1514.95	268
1517.12	272
1519.28	272
1521.45	288
1523.62	282
1525.78	268
1527.95	266
1530.11	280
1532.28	284
1534.44	272
1536.6	274
1538.76	278
1540.93	296
1543.09	276
1545.25	286
1547.41	280
1549.56	286
1551.72	278
1553.88	290
1556.03	298
1558.19	306
1560.35	294
1562.5	306
1564.65	292
1566.81	316
1568.96	346
1571.11	344
1573.26	384
1575.41	386
1577.56	490
1579.71	576
1581.86	806
1584.01	1036
1586.15	896
1588.3	696
1590.45	594
1592.59	588
1594.74	722
1596.88	848
1599.02	1248
1601.17	1666
1603.31	1902
1605.45	1720
1607.59	1288
1609.73	942
1611.87	690
1614.01	554
1616.14	472
1618.28	428
1620.42	396
1622.55	388
1624.69	362
1626.82	356
1628.96	350
1631.09	326
1633.22	322
1635.36	330
1637.49	346
1639.62	328
1641.75	342
1643.88	328
1646	358
1648.13	350
1650.26	344
1652.39	336
1654.51	314
1656.64	330
1658.76	300
1660.89	292
1663.01	298
1665.13	298
1667.26	268
1669.38	298
1671.5	306
1673.62	296
1675.74	292
1677.86	294
1679.97	300
1682.09	294
1684.21	288
1686.33	310
1688.44	312
1690.56	304
1692.67	294
1694.78	292
1696.9	290
1699.01	276
1701.12	298
1703.23	290
1705.34	284
1707.45	308
1709.56	276
1711.67	286
1713.78	286
1715.88	286
1717.99	280
1720.1	276
1722.2	288
1724.31	276
1726.41	276
1728.51	290
1730.62	284
1732.72	298
1734.82	298
1736.92	274
1739.02	298
1741.12	298
1743.22	294
1745.32	284
1747.42	286
1749.51	290
1751.61	302
1753.7	284
1755.8	274
1757.89	292
1759.99	278
1762.08	306
1764.17	278
1766.26	288
1768.36	284
1770.45	282
1772.54	316
1774.62	284
1776.71	294
1778.8	302
1780.89	306
1782.98	308
1785.06	276
1787.15	292
1789.23	304
1791.32	292
1793.4	298
1795.48	296
1797.56	290
1799.65	314
1801.73	296
1803.81	290
1805.89	292
1807.97	300
1810.04	308
1812.12	316
1814.2	288
1816.28	298
1818.35	312
1820.43	306
1822.5	286
1824.58	288
1826.65	306
1828.72	284
1830.79	312
1832.86	280
1834.94	292
1837.01	294
1839.08	306
1841.15	308
1843.21	290
1845.28	318
1847.35	296
1849.41	296
1851.48	300
1853.55	288
1855.61	282
1857.67	284
1859.74	288
1861.8	310
1863.86	288
1865.92	300
1867.98	284
1870.05	302
1872.1	318
1874.16	294
1876.22	278
1878.28	320
1880.34	312
1882.39	310
1884.45	298
1886.5	306
1888.56	296
1890.61	306
1892.67	308
1894.72	312
1896.77	300
1898.82	308
1900.87	302
1902.92	284
1904.97	314
1907.02	296
1909.07	312
1911.12	302
1913.17	332
1915.21	296
1917.26	312
1919.3	322
1921.35	294
1923.39	314
1925.43	316
1927.48	318
1929.52	304
1931.56	338
1933.6	308
1935.64	312
1937.68	302
1939.72	314
1941.76	308
1943.8	314
1945.83	304
1947.87	300
1949.91	314
1951.94	312
1953.98	310
1956.01	324
1958.05	294
1960.08	310
1962.11	296
1964.14	332
1966.17	314
1968.2	334
1970.23	314
1972.26	328
1974.29	300
1976.32	304
1978.35	302
1980.37	314
1982.4	308
1984.43	318
1986.45	316
1988.48	308
1990.5	316
1992.52	304
1994.55	318
1996.57	284
1998.59	314
2000.61	318
2002.63	320
2004.65	296
2006.67	318
2008.69	316
2010.7	306
2012.72	314
2014.74	312
2016.75	312
2018.77	318
2020.78	304
2022.8	320
2024.81	314
2026.83	314
2028.84	324
2030.85	314
2032.86	318
2034.87	334
2036.88	324
2038.89	308
2040.9	318
2042.91	300
2044.91	324
2046.92	316
2048.93	336
2050.93	302
2052.94	316
2054.94	326
2056.95	318
2058.95	336
2060.95	326
2062.95	322
2064.96	320
2066.96	332
2068.96	344
2070.96	306
2072.96	344
2074.95	318
2076.95	326
2078.95	344
2080.95	316
2082.94	304
2084.94	348
2086.93	342
2088.93	344
2090.92	308
2092.91	316
2094.91	312
2096.9	314
2098.89	310
2100.88	328
2102.87	324
2104.86	318
2106.85	342
2108.84	328
2110.83	322
2112.81	332
2114.8	328
2116.78	316
2118.77	338
2120.75	322
2122.74	330
2124.72	316
2126.71	318
2128.69	330
2130.67	324
2132.65	332
2134.63	320
2136.61	336
2138.59	344
2140.57	344
2142.55	322
2144.53	346
2146.5	340
2148.48	340
2150.46	330
2152.43	320
2154.41	322
2156.38	332
2158.35	342
2160.33	326
2162.3	326
2164.27	348
2166.24	328
2168.21	336
2170.18	326
2172.15	328
2174.12	314
2176.09	338
2178.06	324
2180.03	340
2181.99	334
2183.96	340
2185.92	342
2187.89	302
2189.85	318
2191.82	338
2193.78	322
2195.74	330
2197.7	336
2199.67	340
2201.63	348
2203.59	340
2205.55	350
2207.51	326
2209.46	352
2211.42	322
2213.38	344
2215.34	340
2217.29	330
2219.25	328
2221.2	342
2223.16	334
2225.11	336
2227.06	340
2229.02	338
2230.97	330
2232.92	326
2234.87	324
2236.82	320
2238.77	318
2240.72	316
2242.67	326
2244.62	332
2246.57	324
2248.51	338
2250.46	346
2252.4	340
2254.35	324
2256.29	334
2258.24	356
2260.18	328
2262.13	340
2264.07	342
2266.01	348
2267.95	346
2269.89	368
2271.83	362
2273.77	328
2275.71	358
2277.65	328
2279.58	330
2281.52	338
2283.46	350
2285.4	342
2287.33	338
2289.27	328
2291.2	348
2293.13	336
2295.07	372
2297	334
2298.93	324
2300.86	350
2302.79	356
2304.72	344
2306.65	332
2308.58	356
2310.51	340
2312.44	350
2314.37	332
2316.29	330
2318.22	354
2320.15	354
2322.07	354
2324	348
2325.92	336
2327.84	352
2329.77	352
2331.69	336
2333.61	338
2335.53	356
2337.45	332
2339.37	352
2341.29	342
2343.21	340
2345.13	346
2347.05	362
2348.97	354
2350.88	352
2352.8	352
2354.71	340
2356.63	336
2358.54	338
2360.46	356
2362.37	352
2364.28	354
2366.2	356
2368.11	358
2370.02	340
2371.93	354
2373.84	334
2375.75	338
2377.66	354
2379.57	356
2381.47	338
2383.38	346
2385.29	330
2387.2	354
2389.1	346
2391.01	336
2392.91	370
2394.81	338
2396.72	348
2398.62	360
2400.52	366
2402.42	344
2404.33	360
2406.23	362
2408.13	344
2410.03	358
2411.92	342
2413.82	354
2415.72	348
2417.62	346
2419.51	360
2421.41	354
2423.31	334
2425.2	374
2427.1	378
2428.99	376
2430.88	356
2432.78	346
2434.67	364
2436.56	356
2438.45	390
2440.34	340
2442.23	352
2444.12	366
2446.01	360
2447.9	356
2449.79	368