File: Mixture_Classification/Jesse_Dataset_v2/Pure Raman/Polystyrene/633nm/ps-ppo-7jan25-1,0000-map3_Y07_X03.txt
182.393	1064
184.993	970
187.593	984
190.193	970
192.79	908
195.387	946
197.983	936
200.578	936
203.174	972
205.766	982
208.36	984
210.951	1044
213.542	1056
216.131	1080
218.721	1088
221.309	1072
223.897	1116
226.483	1090
229.069	988
231.654	962
234.238	850
236.821	764
239.404	702
241.984	630
244.566	548
247.145	470
249.723	446
252.302	396
254.878	410
257.455	386
260.03	358
262.604	372
265.178	364
267.75	370
270.322	364
272.893	320
275.463	332
278.032	322
280.601	316
283.168	324
285.734	298
288.301	278
290.866	272
293.429	284
295.992	264
298.556	258
301.117	252
303.677	258
306.236	242
308.795	240
311.354	278
313.911	250
316.467	272
319.022	258
321.577	276
324.13	232
326.684	264
329.236	244
331.787	252
334.337	240
336.887	246
339.435	246
341.983	246
344.529	250
347.075	232
349.621	232
352.165	242
354.708	242
357.251	234
359.793	228
362.334	248
364.874	248
367.413	234
369.951	248
372.489	226
375.026	258
377.562	248
380.097	256
382.631	292
385.164	268
387.697	298
390.229	284
392.76	288
395.29	308
397.819	292
400.346	300
402.873	336
405.4	352
407.926	378
410.451	350
412.976	342
415.499	326
418.02	294
420.542	300
423.063	266
425.583	268
428.101	266
430.619	246
433.137	256
435.654	254
438.169	242
440.684	250
443.198	250
445.712	234
448.223	234
450.735	218
453.246	218
455.755	212
458.264	220
460.771	206
463.279	198
465.786	198
468.291	212
470.796	220
473.301	200
475.803	226
478.306	194
480.807	198
483.308	216
485.807	190
488.307	204
490.804	210
493.302	192
495.798	192
498.294	198
500.788	224
503.283	228
505.775	212
508.269	220
510.759	222
513.251	208
515.74	222
518.23	210
520.718	224
523.204	238
525.692	212
528.177	228
530.663	250
533.147	258
535.629	258
538.113	266
540.594	284
543.074	292
545.555	280
548.034	276
550.512	280
552.989	266
555.467	290
557.942	280
560.417	284
562.892	278
565.365	260
567.838	278
570.309	260
572.78	280
575.251	270
577.72	274
580.189	254
582.656	248
585.123	230
587.589	220
590.055	240
592.52	234
594.983	234
597.446	222
599.908	246
602.369	238
604.829	242
607.289	294
609.747	314
612.205	312
614.663	344
617.119	438
619.574	718
622.029	1148
624.483	1020
626.936	550
629.389	378
631.84	280
634.291	284
636.741	248
639.19	232
641.639	212
644.086	196
646.533	204
648.979	204
651.424	202
653.869	178
656.313	196
658.754	192
661.196	194
663.638	192
666.078	192
668.518	186
670.957	202
673.394	178
675.831	178
678.268	206
680.703	172
683.137	194
685.571	188
688.005	190
690.437	182
692.868	180
695.299	186
697.729	204
700.159	222
702.586	240
705.014	244
707.441	228
709.866	230
712.292	222
714.716	232
717.14	220
719.563	242
721.984	264
724.406	304
726.825	336
729.246	304
731.665	272
734.082	278
736.5	308
738.916	348
741.332	390
743.746	384
746.161	408
748.574	416
750.987	434
753.398	448
755.81	440
758.219	476
760.629	480
763.037	490
765.445	452
767.852	476
770.258	454
772.664	432
775.068	430
777.472	446
779.876	434
782.278	480
784.679	494
787.08	582
789.48	618
791.879	684
794.278	672
796.675	712
799.072	712
801.467	628
803.864	602
806.258	484
808.651	444
811.044	434
813.437	378
815.828	356
818.218	356
820.608	322
822.997	290
825.385	280
827.773	262
830.16	270
832.546	266
834.931	304
837.315	314
839.699	348
842.081	362
844.463	382
846.844	370
849.226	342
851.606	324
853.985	340
856.363	314
858.741	322
861.117	324
863.493	296
865.868	328
868.243	312
870.616	324
872.989	302
875.36	288
877.731	288
880.102	284
882.472	298
884.841	302
887.209	280
889.577	290
891.944	298
894.31	298
896.674	298
899.039	308
901.403	312
903.766	346
906.128	352
908.49	352
910.849	324
913.209	330
915.569	304
917.927	294
920.284	284
922.641	256
924.997	284
927.353	258
929.707	254
932.061	280
934.414	264
936.765	250
939.117	254
941.469	266
943.818	282
946.167	276
948.515	262
950.863	260
953.211	262
955.556	280
957.902	274
960.246	286
962.59	298
964.933	330
967.276	342
969.617	342
971.958	338
974.298	344
976.638	362
978.976	412
981.314	482
983.651	530
985.988	640
988.323	794
990.659	1146
992.992	1782
995.325	1910
997.658	2318
999.99	4218
1002.32	6664
1004.65	6036
1006.98	3434
1009.31	1596
1011.64	810
1013.97	598
1016.29	470
1018.62	490
1020.94	492
1023.27	626
1025.59	842
1027.91	1214
1030.24	1680
1032.56	1974
1034.88	1908
1037.2	1448
1039.52	950
1041.84	706
1044.15	558
1046.47	494
1048.79	466
1051.1	432
1053.42	408
1055.73	388
1058.04	408
1060.36	400
1062.67	422
1064.98	422
1067.29	430
1069.6	430
1071.91	428
1074.22	428
1076.52	418
1078.83	434
1081.14	396
1083.44	416
1085.75	422
1088.05	408
1090.35	418
1092.65	428
1094.95	458
1097.26	450
1099.56	432
1101.86	406
1104.15	392
1106.45	392
1108.75	348
1111.05	340
1113.34	336
1115.64	354
1117.93	308
1120.22	290
1122.52	302
1124.81	308
1127.1	266
1129.39	272
1131.68	266
1133.97	272
1136.26	282
1138.54	286
1140.83	308
1143.12	340
1145.4	398
1147.69	414
1149.97	496
1152.25	672
1154.54	882
1156.82	980
1159.1	890
1161.38	680
1163.66	570
1165.94	530
1168.22	508
1170.49	500
1172.77	536
1175.05	624
1177.32	730
1179.6	948
1181.87	1148
1184.14	1176
1186.42	1116
1188.69	1062
1190.96	1040
1193.23	1110
1195.5	1204
1197.77	1242
1200.03	1234
1202.3	1154
1204.57	1038
1206.83	970
1209.1	818
1211.36	772
1213.63	650
1215.89	546
1218.15	518
1220.41	478
1222.67	466
1224.93	454
1227.19	442
1229.45	428
1231.71	396
1233.97	398
1236.22	372
1238.48	352
1240.73	376
1242.99	370
1245.24	380
1247.5	364
1249.75	354
1252	360
1254.25	360
1256.5	350
1258.75	332
1261	356
1263.25	362
1265.49	368
1267.74	354
1269.99	346
1272.23	352
1274.48	352
1276.72	372
1278.96	346
1281.21	346
1283.45	338
1285.69	338
1287.93	340
1290.17	350
1292.41	382
1294.64	384
1296.88	396
1299.12	412
1301.36	400
1303.59	394
1305.82	438
1308.06	440
1310.29	418
1312.52	432
1314.76	428
1316.99	480
1319.22	468
1321.45	500
1323.68	520
1325.9	520
1328.13	542
1330.36	544
1332.58	530
1334.81	512
1337.04	484
1339.26	454
1341.48	420
1343.71	410
1345.93	406
1348.15	394
1350.37	374
1352.59	364
1354.81	360
1357.03	354
1359.24	342
1361.46	370
1363.68	374
1365.89	386
1368.11	366
1370.32	366
1372.54	378
1374.75	374
1376.96	374
1379.17	334
1381.38	358
1383.59	308
1385.8	282
1388.01	294
1390.22	262
1392.43	262
1394.63	254
1396.84	278
1399.05	246
1401.25	266
1403.45	264
1405.66	282
1407.86	274
1410.06	282
1412.26	254
1414.46	258
1416.66	258
1418.86	260
1421.06	276
1423.26	256
1425.46	260
1427.65	274
1429.85	284
1432.04	294
1434.24	318
1436.43	356
1438.62	410
1440.82	440
1443.01	480
1445.2	534
1447.39	554
1449.58	636
1451.77	602
1453.95	576
1456.14	528
1458.33	454
1460.52	378
1462.7	310
1464.89	316
1467.07	306
1469.25	296
1471.44	300
1473.62	282
1475.8	262
1477.98	276
1480.16	260
1482.34	284
1484.52	278
1486.7	274
1488.87	268
1491.05	276
1493.23	300
1495.4	312
1497.58	290
1499.75	268
1501.92	288
1504.1	266
1506.27	288
1508.44	266
1510.61	254
1512.78	250
1514.95	280
1517.12	280
1519.28	278
1521.45	254
1523.62	264
1525.78	270
1527.95	280
1530.11	254
1532.28	276
1534.44	270
1536.6	268
1538.76	290
1540.93	278
1543.09	286
1545.25	276
1547.41	264
1549.56	300
1551.72	270
1553.88	292
1556.03	290
1558.19	280
1560.35	286
1562.5	316
1564.65	298
1566.81	324
1568.96	334
1571.11	350
1573.26	350
1575.41	396
1577.56	482
1579.71	588
1581.86	814
1584.01	968
1586.15	918
1588.3	698
1590.45	590
1592.59	608
1594.74	686
1596.88	890
1599.02	1176
1601.17	1632
1603.31	1866
1605.45	1718
1607.59	1316
1609.73	938
1611.87	678
1614.01	554
1616.14	480
1618.28	426
1620.42	398
1622.55	370
1624.69	370
1626.82	360
1628.96	332
1631.09	328
1633.22	322
1635.36	320
1637.49	330
1639.62	310
1641.75	332
1643.88	348
1646	368
1648.13	358
1650.26	356
1652.39	346
1654.51	308
1656.64	296
1658.76	276
1660.89	294
1663.01	274
1665.13	284
1667.26	272
1669.38	298
1671.5	276
1673.62	308
1675.74	284
1677.86	274
1679.97	282
1682.09	308
1684.21	306
1686.33	298
1688.44	284
1690.56	290
1692.67	284
1694.78	284
1696.9	278
1699.01	302
1701.12	282
1703.23	292
1705.34	294
1707.45	268
1709.56	276
1711.67	278
1713.78	272
1715.88	274
1717.99	274
1720.1	278
1722.2	266
1724.31	282
1726.41	284
1728.51	280
1730.62	294
1732.72	276
1734.82	268
1736.92	300
1739.02	280
1741.12	272
1743.22	306
1745.32	274
1747.42	274
1749.51	288
1751.61	302
1753.7	294
1755.8	282
1757.89	284
1759.99	290
1762.08	288
1764.17	276
1766.26	274
1768.36	284
1770.45	282
1772.54	282
1774.62	282
1776.71	282
1778.8	280
1780.89	284
1782.98	278
1785.06	262
1787.15	286
1789.23	296
1791.32	290
1793.4	294
1795.48	276
1797.56	294
1799.65	300
1801.73	290
1803.81	280
1805.89	314
1807.97	298
1810.04	290
1812.12	290
1814.2	290
1816.28	288
1818.35	292
1820.43	274
1822.5	294
1824.58	298
1826.65	306
1828.72	304
1830.79	280
1832.86	304
1834.94	296
1837.01	276
1839.08	304
1841.15	292
1843.21	298
1845.28	282
1847.35	284
1849.41	292
1851.48	292
1853.55	276
1855.61	288
1857.67	292
1859.74	314
1861.8	300
1863.86	296
1865.92	290
1867.98	276
1870.05	284
1872.1	276
1874.16	278
1876.22	294
1878.28	300
1880.34	294
1882.39	304
1884.45	300
1886.5	290
1888.56	310
1890.61	294
1892.67	306
1894.72	296
1896.77	328
1898.82	288
1900.87	284
1902.92	308
1904.97	296
1907.02	332
1909.07	300
1911.12	284
1913.17	314
1915.21	326
1917.26	310
1919.3	316
1921.35	298
1923.39	312
1925.43	314
1927.48	310
1929.52	312
1931.56	322
1933.6	304
1935.64	318
1937.68	320
1939.72	318
1941.76	338
1943.8	282
1945.83	322
1947.87	308
1949.91	306
1951.94	316
1953.98	314
1956.01	312
1958.05	310
1960.08	304
1962.11	308
1964.14	308
1966.17	314
1968.2	300
1970.23	310
1972.26	298
1974.29	302
1976.32	306
1978.35	308
1980.37	318
1982.4	298
1984.43	304
1986.45	302
1988.48	302
1990.5	328
1992.52	306
1994.55	300
1996.57	310
1998.59	308
2000.61	306
2002.63	314
2004.65	320
2006.67	294
2008.69	324
2010.7	296
2012.72	326
2014.74	294
2016.75	324
2018.77	300
2020.78	324
2022.8	320
2024.81	326
2026.83	332
2028.84	324
2030.85	300
2032.86	316
2034.87	320
2036.88	302
2038.89	314
2040.9	324
2042.91	314
2044.91	328
2046.92	324
2048.93	310
2050.93	306
2052.94	316
2054.94	312
2056.95	318
2058.95	300
2060.95	304
2062.95	314
2064.96	324
2066.96	308
2068.96	310
2070.96	310
2072.96	340
2074.95	304
2076.95	332
2078.95	318
2080.95	318
2082.94	334
2084.94	320
2086.93	316
2088.93	314
2090.92	318
2092.91	302
2094.91	340
2096.9	324
2098.89	320
2100.88	332
2102.87	328
2104.86	342
2106.85	328
2108.84	310
2110.83	316
2112.81	320
2114.8	336
2116.78	328
2118.77	322
2120.75	320
2122.74	336
2124.72	328
2126.71	322
2128.69	342
2130.67	320
2132.65	338
2134.63	328
2136.61	316
2138.59	320
2140.57	328
2142.55	330
2144.53	324
2146.5	354
2148.48	312
2150.46	330
2152.43	328
2154.41	300
2156.38	328
2158.35	334
2160.33	338
2162.3	326
2164.27	352
2166.24	336
2168.21	344
2170.18	318
2172.15	332
2174.12	320
2176.09	346
2178.06	328
2180.03	338
2181.99	312
2183.96	340
2185.92	330
2187.89	334
2189.85	326
2191.82	330
2193.78	334
2195.74	340
2197.7	350
2199.67	318
2201.63	336
2203.59	314
2205.55	332
2207.51	344
2209.46	352
2211.42	336
2213.38	358
2215.34	332
2217.29	346
2219.25	340
2221.2	340
2223.16	334
2225.11	320
2227.06	350
2229.02	340
2230.97	324
2232.92	344
2234.87	324
2236.82	346
2238.77	320
2240.72	340
2242.67	330
2244.62	350
2246.57	330
2248.51	322
2250.46	346
2252.4	328
2254.35	322
2256.29	338
2258.24	342
2260.18	344
2262.13	344
2264.07	338
2266.01	316
2267.95	332
2269.89	336
2271.83	338
2273.77	338
2275.71	352
2277.65	322
2279.58	344
2281.52	342
2283.46	342
2285.4	322
2287.33	336
2289.27	344
2291.2	338
2293.13	364
2295.07	350
2297	326
2298.93	320
2300.86	356
2302.79	344
2304.72	346
2306.65	346
2308.58	328
2310.51	356
2312.44	342
2314.37	350
2316.29	350
2318.22	340
2320.15	346
2322.07	336
2324	332
2325.92	332
2327.84	366
2329.77	364
2331.69	334
2333.61	334
2335.53	344
2337.45	346
2339.37	340
2341.29	326
2343.21	350
2345.13	348
2347.05	346
2348.97	366
2350.88	332
2352.8	336
2354.71	336
2356.63	348
2358.54	354
2360.46	332
2362.37	350
2364.28	340
2366.2	332
2368.11	346
2370.02	322
2371.93	334
2373.84	324
2375.75	342
2377.66	348
2379.57	336
2381.47	338
2383.38	346
2385.29	352
2387.2	352
2389.1	344
2391.01	348
2392.91	352
2394.81	346
2396.72	340
2398.62	344
2400.52	352
2402.42	334
2404.33	358
2406.23	358
2408.13	356
2410.03	352
2411.92	332
2413.82	362
2415.72	340
2417.62	366
2419.51	338
2421.41	364
2423.31	344
2425.2	376
2427.1	350
2428.99	354
2430.88	348
2432.78	370
2434.67	370
2436.56	352
2438.45	366
2440.34	364
2442.23	384
2444.12	354
2446.01	368
2447.9	350
2449.79	372