File: Mixture_Classification/Jesse_Dataset_v2/Pure Raman/Polystyrene/633nm/ps-ppo-7jan25-1,0000-map3_Y03_X04.txt
182.393	1012
184.993	974
187.593	932
190.193	960
192.79	920
195.387	922
197.983	904
200.578	902
203.174	944
205.766	952
208.36	940
210.951	996
213.542	1048
216.131	1060
218.721	1074
221.309	1064
223.897	1102
226.483	1022
229.069	986
231.654	924
234.238	844
236.821	772
239.404	668
241.984	612
244.566	536
247.145	446
249.723	422
252.302	394
254.878	374
257.455	354
260.03	348
262.604	346
265.178	322
267.75	330
270.322	320
272.893	314
275.463	326
278.032	288
280.601	296
283.168	296
285.734	286
288.301	268
290.866	250
293.429	254
295.992	234
298.556	216
301.117	242
303.677	220
306.236	234
308.795	222
311.354	210
313.911	228
316.467	224
319.022	242
321.577	236
324.13	228
326.684	226
329.236	246
331.787	222
334.337	242
336.887	228
339.435	208
341.983	228
344.529	208
347.075	212
349.621	222
352.165	206
354.708	204
357.251	214
359.793	216
362.334	218
364.874	218
367.413	204
369.951	224
372.489	216
375.026	234
377.562	228
380.097	232
382.631	236
385.164	264
387.697	252
390.229	268
392.76	270
395.29	278
397.819	266
400.346	284
402.873	310
405.4	344
407.926	320
410.451	324
412.976	308
415.499	316
418.02	280
420.542	254
423.063	258
425.583	254
428.101	252
430.619	226
433.137	234
435.654	206
438.169	226
440.684	218
443.198	208
445.712	216
448.223	208
450.735	204
453.246	196
455.755	188
458.264	176
460.771	180
463.279	188
465.786	170
468.291	192
470.796	168
473.301	168
475.803	164
478.306	168
480.807	196
483.308	168
485.807	158
488.307	178
490.804	170
493.302	178
495.798	186
498.294	170
500.788	182
503.283	182
505.775	180
508.269	190
510.759	194
513.251	190
515.74	184
518.23	186
520.718	184
523.204	200
525.692	198
528.177	216
530.663	206
533.147	218
535.629	216
538.113	238
540.594	250
543.074	252
545.555	248
548.034	248
550.512	246
552.989	244
555.467	238
557.942	248
560.417	242
562.892	232
565.365	226
567.838	228
570.309	232
572.78	244
575.251	260
577.72	238
580.189	226
582.656	206
585.123	198
587.589	208
590.055	198
592.52	194
594.983	202
597.446	198
599.908	202
602.369	198
604.829	232
607.289	238
609.747	280
612.205	268
614.663	290
617.119	414
619.574	686
622.029	1110
624.483	1016
626.936	512
629.389	342
631.84	276
634.291	246
636.741	216
639.19	190
641.639	192
644.086	174
646.533	178
648.979	184
651.424	160
653.869	182
656.313	160
658.754	166
661.196	144
663.638	160
666.078	168
668.518	158
670.957	154
673.394	160
675.831	172
678.268	158
680.703	162
683.137	168
685.571	164
688.005	162
690.437	160
692.868	176
695.299	164
697.729	178
700.159	186
702.586	194
705.014	214
707.441	230
709.866	218
712.292	202
714.716	204
717.14	200
719.563	222
721.984	248
724.406	286
726.825	310
729.246	278
731.665	262
734.082	272
736.5	282
738.916	322
741.332	346
743.746	358
746.161	358
748.574	390
750.987	386
753.398	408
755.81	418
758.219	456
760.629	476
763.037	458
765.445	448
767.852	430
770.258	412
772.664	426
775.068	362
777.472	390
779.876	414
782.278	418
784.679	508
787.08	546
789.48	592
791.879	628
794.278	658
796.675	690
799.072	664
801.467	604
803.864	520
806.258	464
808.651	418
811.044	372
813.437	346
815.828	348
818.218	308
820.608	288
822.997	256
825.385	262
827.773	260
830.16	262
832.546	264
834.931	284
837.315	314
839.699	342
842.081	354
844.463	372
846.844	346
849.226	322
851.606	296
853.985	294
856.363	302
858.741	298
861.117	290
863.493	270
865.868	280
868.243	292
870.616	282
872.989	288
875.36	282
877.731	286
880.102	286
882.472	272
884.841	274
887.209	270
889.577	256
891.944	268
894.31	262
896.674	272
899.039	304
901.403	314
903.766	322
906.128	336
908.49	326
910.849	320
913.209	296
915.569	290
917.927	274
920.284	262
922.641	252
924.997	254
927.353	242
929.707	228
932.061	224
934.414	238
936.765	242
939.117	238
941.469	240
943.818	250
946.167	238
948.515	238
950.863	256
953.211	262
955.556	250
957.902	276
960.246	280
962.59	288
964.933	308
967.276	288
969.617	308
971.958	316
974.298	316
976.638	346
978.976	388
981.314	450
983.651	500
985.988	584
988.323	770
990.659	1154
992.992	1694
995.325	1892
997.658	2298
999.99	4160
1002.32	6530
1004.65	6100
1006.98	3460
1009.31	1570
1011.64	814
1013.97	586
1016.29	478
1018.62	448
1020.94	476
1023.27	612
1025.59	816
1027.91	1172
1030.24	1614
1032.56	1974
1034.88	1906
1037.2	1414
1039.52	956
1041.84	716
1044.15	550
1046.47	486
1048.79	426
1051.1	396
1053.42	380
1055.73	392
1058.04	368
1060.36	376
1062.67	364
1064.98	402
1067.29	416
1069.6	422
1071.91	418
1074.22	444
1076.52	426
1078.83	408
1081.14	410
1083.44	396
1085.75	362
1088.05	406
1090.35	384
1092.65	402
1094.95	426
1097.26	420
1099.56	414
1101.86	424
1104.15	408
1106.45	362
1108.75	362
1111.05	352
1113.34	328
1115.64	318
1117.93	316
1120.22	288
1122.52	284
1124.81	270
1127.1	278
1129.39	256
1131.68	284
1133.97	248
1136.26	282
1138.54	288
1140.83	282
1143.12	312
1145.4	364
1147.69	384
1149.97	484
1152.25	632
1154.54	898
1156.82	946
1159.1	898
1161.38	708
1163.66	544
1165.94	514
1168.22	464
1170.49	510
1172.77	538
1175.05	608
1177.32	754
1179.6	988
1181.87	1160
1184.14	1148
1186.42	1102
1188.69	1050
1190.96	1062
1193.23	1126
1195.5	1142
1197.77	1198
1200.03	1156
1202.3	1156
1204.57	1066
1206.83	952
1209.1	842
1211.36	738
1213.63	634
1215.89	544
1218.15	506
1220.41	470
1222.67	458
1224.93	434
1227.19	440
1229.45	398
1231.71	386
1233.97	368
1236.22	360
1238.48	360
1240.73	342
1242.99	354
1245.24	344
1247.5	340
1249.75	342
1252	342
1254.25	336
1256.5	348
1258.75	320
1261	346
1263.25	352
1265.49	340
1267.74	352
1269.99	336
1272.23	342
1274.48	322
1276.72	346
1278.96	356
1281.21	328
1283.45	352
1285.69	336
1287.93	338
1290.17	348
1292.41	358
1294.64	374
1296.88	376
1299.12	376
1301.36	390
1303.59	396
1305.82	408
1308.06	382
1310.29	402
1312.52	420
1314.76	444
1316.99	454
1319.22	456
1321.45	494
1323.68	504
1325.9	540
1328.13	532
1330.36	522
1332.58	494
1334.81	522
1337.04	464
1339.26	470
1341.48	450
1343.71	408
1345.93	416
1348.15	376
1350.37	350
1352.59	356
1354.81	368
1357.03	360
1359.24	364
1361.46	358
1363.68	370
1365.89	362
1368.11	364
1370.32	384
1372.54	348
1374.75	364
1376.96	358
1379.17	344
1381.38	340
1383.59	350
1385.8	308
1388.01	268
1390.22	278
1392.43	274
1394.63	270
1396.84	274
1399.05	272
1401.25	274
1403.45	274
1405.66	282
1407.86	260
1410.06	270
1412.26	246
1414.46	268
1416.66	234
1418.86	242
1421.06	242
1423.26	274
1425.46	248
1427.65	272
1429.85	268
1432.04	294
1434.24	322
1436.43	348
1438.62	404
1440.82	438
1443.01	472
1445.2	544
1447.39	554
1449.58	602
1451.77	616
1453.95	598
1456.14	518
1458.33	438
1460.52	392
1462.7	338
1464.89	298
1467.07	290
1469.25	292
1471.44	280
1473.62	278
1475.8	268
1477.98	268
1480.16	272
1482.34	260
1484.52	278
1486.7	276
1488.87	284
1491.05	282
1493.23	278
1495.4	306
1497.58	308
1499.75	268
1501.92	272
1504.1	248
1506.27	262
1508.44	264
1510.61	246
1512.78	260
1514.95	262
1517.12	266
1519.28	254
1521.45	258
1523.62	272
1525.78	262
1527.95	258
1530.11	258
1532.28	262
1534.44	290
1536.6	276
1538.76	278
1540.93	278
1543.09	288
1545.25	272
1547.41	278
1549.56	258
1551.72	276
1553.88	260
1556.03	274
1558.19	286
1560.35	298
1562.5	296
1564.65	296
1566.81	312
1568.96	318
1571.11	336
1573.26	364
1575.41	388
1577.56	472
1579.71	574
1581.86	806
1584.01	992
1586.15	906
1588.3	702
1590.45	610
1592.59	594
1594.74	700
1596.88	866
1599.02	1208
1601.17	1650
1603.31	1884
1605.45	1746
1607.59	1296
1609.73	900
1611.87	696
1614.01	526
1616.14	478
1618.28	412
1620.42	378
1622.55	404
1624.69	380
1626.82	356
1628.96	326
1631.09	322
1633.22	304
1635.36	312
1637.49	320
1639.62	300
1641.75	314
1643.88	352
1646	336
1648.13	338
1650.26	340
1652.39	346
1654.51	298
1656.64	312
1658.76	280
1660.89	282
1663.01	278
1665.13	290
1667.26	286
1669.38	290
1671.5	274
1673.62	306
1675.74	280
1677.86	278
1679.97	288
1682.09	278
1684.21	290
1686.33	276
1688.44	302
1690.56	292
1692.67	278
1694.78	286
1696.9	302
1699.01	294
1701.12	272
1703.23	296
1705.34	270
1707.45	288
1709.56	302
1711.67	276
1713.78	290
1715.88	276
1717.99	274
1720.1	282
1722.2	278
1724.31	286
1726.41	272
1728.51	256
1730.62	292
1732.72	268
1734.82	298
1736.92	270
1739.02	286
1741.12	276
1743.22	278
1745.32	268
1747.42	274
1749.51	282
1751.61	290
1753.7	272
1755.8	288
1757.89	290
1759.99	274
1762.08	300
1764.17	268
1766.26	278
1768.36	286
1770.45	286
1772.54	276
1774.62	270
1776.71	288
1778.8	292
1780.89	284
1782.98	286
1785.06	288
1787.15	280
1789.23	300
1791.32	296
1793.4	278
1795.48	256
1797.56	280
1799.65	302
1801.73	286
1803.81	288
1805.89	284
1807.97	304
1810.04	292
1812.12	304
1814.2	292
1816.28	296
1818.35	292
1820.43	292
1822.5	276
1824.58	294
1826.65	276
1828.72	298
1830.79	264
1832.86	276
1834.94	300
1837.01	294
1839.08	296
1841.15	288
1843.21	290
1845.28	290
1847.35	292
1849.41	272
1851.48	284
1853.55	284
1855.61	298
1857.67	284
1859.74	298
1861.8	298
1863.86	284
1865.92	296
1867.98	296
1870.05	304
1872.1	286
1874.16	298
1876.22	292
1878.28	310
1880.34	300
1882.39	296
1884.45	296
1886.5	294
1888.56	300
1890.61	302
1892.67	280
1894.72	288
1896.77	294
1898.82	288
1900.87	296
1902.92	286
1904.97	310
1907.02	296
1909.07	298
1911.12	306
1913.17	316
1915.21	332
1917.26	332
1919.3	306
1921.35	310
1923.39	302
1925.43	288
1927.48	310
1929.52	294
1931.56	296
1933.6	302
1935.64	302
1937.68	298
1939.72	306
1941.76	302
1943.8	296
1945.83	312
1947.87	302
1949.91	322
1951.94	308
1953.98	304
1956.01	306
1958.05	290
1960.08	304
1962.11	306
1964.14	308
1966.17	332
1968.2	316
1970.23	292
1972.26	324
1974.29	304
1976.32	304
1978.35	288
1980.37	298
1982.4	292
1984.43	322
1986.45	290
1988.48	292
1990.5	294
1992.52	294
1994.55	314
1996.57	308
1998.59	294
2000.61	316
2002.63	302
2004.65	324
2006.67	306
2008.69	314
2010.7	308
2012.72	314
2014.74	304
2016.75	298
2018.77	332
2020.78	294
2022.8	314
2024.81	308
2026.83	304
2028.84	308
2030.85	316
2032.86	320
2034.87	310
2036.88	318
2038.89	314
2040.9	314
2042.91	316
2044.91	318
2046.92	316
2048.93	318
2050.93	310
2052.94	318
2054.94	312
2056.95	312
2058.95	322
2060.95	328
2062.95	326
2064.96	316
2066.96	334
2068.96	328
2070.96	332
2072.96	330
2074.95	328
2076.95	324
2078.95	334
2080.95	310
2082.94	320
2084.94	338
2086.93	324
2088.93	314
2090.92	312
2092.91	314
2094.91	340
2096.9	324
2098.89	316
2100.88	314
2102.87	328
2104.86	324
2106.85	310
2108.84	324
2110.83	338
2112.81	322
2114.8	328
2116.78	336
2118.77	322
2120.75	330
2122.74	330
2124.72	322
2126.71	322
2128.69	332
2130.67	320
2132.65	324
2134.63	318
2136.61	340
2138.59	334
2140.57	338
2142.55	336
2144.53	328
2146.5	330
2148.48	334
2150.46	332
2152.43	318
2154.41	338
2156.38	320
2158.35	308
2160.33	334
2162.3	322
2164.27	318
2166.24	316
2168.21	334
2170.18	332
2172.15	334
2174.12	322
2176.09	340
2178.06	328
2180.03	346
2181.99	316
2183.96	322
2185.92	350
2187.89	332
2189.85	336
2191.82	344
2193.78	330
2195.74	334
2197.7	338
2199.67	326
2201.63	332
2203.59	336
2205.55	346
2207.51	336
2209.46	336
2211.42	328
2213.38	342
2215.34	346
2217.29	338
2219.25	340
2221.2	336
2223.16	332
2225.11	320
2227.06	338
2229.02	316
2230.97	340
2232.92	358
2234.87	338
2236.82	338
2238.77	344
2240.72	328
2242.67	334
2244.62	308
2246.57	334
2248.51	336
2250.46	310
2252.4	330
2254.35	342
2256.29	348
2258.24	332
2260.18	342
2262.13	328
2264.07	340
2266.01	328
2267.95	344
2269.89	342
2271.83	334
2273.77	354
2275.71	340
2277.65	328
2279.58	312
2281.52	320
2283.46	340
2285.4	326
2287.33	314
2289.27	320
2291.2	350
2293.13	352
2295.07	316
2297	354
2298.93	326
2300.86	342
2302.79	342
2304.72	342
2306.65	338
2308.58	322
2310.51	328
2312.44	320
2314.37	346
2316.29	354
2318.22	338
2320.15	356
2322.07	356
2324	348
2325.92	352
2327.84	358
2329.77	344
2331.69	366
2333.61	354
2335.53	358
2337.45	332
2339.37	344
2341.29	356
2343.21	362
2345.13	356
2347.05	342
2348.97	350
2350.88	358
2352.8	354
2354.71	350
2356.63	360
2358.54	352
2360.46	366
2362.37	344
2364.28	360
2366.2	346
2368.11	356
2370.02	334
2371.93	356
2373.84	350
2375.75	348
2377.66	354
2379.57	348
2381.47	340
2383.38	346
2385.29	346
2387.2	352
2389.1	338
2391.01	368
2392.91	360
2394.81	356
2396.72	352
2398.62	356
2400.52	350
2402.42	360
2404.33	360
2406.23	320
2408.13	342
2410.03	346
2411.92	346
2413.82	360
2415.72	368
2417.62	358
2419.51	344
2421.41	348
2423.31	360
2425.2	336
2427.1	344
2428.99	352
2430.88	362
2432.78	352
2434.67	362
2436.56	342
2438.45	350
2440.34	374
2442.23	368
2444.12	368
2446.01	378
2447.9	384
2449.79	356