File: Mixture_Classification/Jesse_Dataset_v2/Pure Raman/Polystyrene/633nm/ps-ppo-7jan25-1,0000-map3_Y01_X00.txt
182.393	1060
184.993	1048
187.593	998
190.193	976
192.79	946
195.387	946
197.983	912
200.578	978
203.174	966
205.766	974
208.36	1024
210.951	1062
213.542	1042
216.131	1056
218.721	1116
221.309	1100
223.897	1062
226.483	1078
229.069	1016
231.654	950
234.238	846
236.821	814
239.404	702
241.984	626
244.566	548
247.145	482
249.723	452
252.302	422
254.878	384
257.455	384
260.03	390
262.604	354
265.178	358
267.75	362
270.322	342
272.893	370
275.463	338
278.032	330
280.601	322
283.168	326
285.734	310
288.301	302
290.866	298
293.429	280
295.992	288
298.556	274
301.117	248
303.677	256
306.236	270
308.795	260
311.354	252
313.911	260
316.467	246
319.022	246
321.577	240
324.13	250
326.684	268
329.236	254
331.787	266
334.337	258
336.887	246
339.435	260
341.983	256
344.529	262
347.075	232
349.621	240
352.165	244
354.708	232
357.251	218
359.793	250
362.334	238
364.874	236
367.413	252
369.951	228
372.489	222
375.026	242
377.562	270
380.097	242
382.631	270
385.164	262
387.697	294
390.229	296
392.76	286
395.29	288
397.819	308
400.346	316
402.873	314
405.4	334
407.926	390
410.451	358
412.976	330
415.499	344
418.02	308
420.542	324
423.063	284
425.583	278
428.101	264
430.619	258
433.137	250
435.654	248
438.169	242
440.684	236
443.198	244
445.712	232
448.223	230
450.735	236
453.246	210
455.755	198
458.264	212
460.771	204
463.279	194
465.786	208
468.291	194
470.796	198
473.301	192
475.803	218
478.306	204
480.807	192
483.308	188
485.807	198
488.307	204
490.804	202
493.302	188
495.798	196
498.294	196
500.788	218
503.283	190
505.775	206
508.269	212
510.759	200
513.251	212
515.74	218
518.23	216
520.718	218
523.204	210
525.692	232
528.177	226
530.663	234
533.147	244
535.629	248
538.113	264
540.594	282
543.074	282
545.555	262
548.034	286
550.512	246
552.989	264
555.467	270
557.942	274
560.417	268
562.892	264
565.365	268
567.838	270
570.309	250
572.78	276
575.251	266
577.72	250
580.189	236
582.656	216
585.123	224
587.589	214
590.055	228
592.52	238
594.983	224
597.446	238
599.908	244
602.369	238
604.829	248
607.289	272
609.747	282
612.205	302
614.663	324
617.119	446
619.574	746
622.029	1116
624.483	974
626.936	554
629.389	360
631.84	286
634.291	252
636.741	234
639.19	218
641.639	220
644.086	200
646.533	194
648.979	178
651.424	198
653.869	170
656.313	188
658.754	170
661.196	186
663.638	162
666.078	192
668.518	176
670.957	174
673.394	180
675.831	178
678.268	184
680.703	188
683.137	170
685.571	196
688.005	192
690.437	178
692.868	176
695.299	198
697.729	194
700.159	206
702.586	216
705.014	232
707.441	230
709.866	226
712.292	222
714.716	232
717.14	228
719.563	240
721.984	260
724.406	320
726.825	312
729.246	292
731.665	286
734.082	298
736.5	306
738.916	360
741.332	370
743.746	396
746.161	388
748.574	418
750.987	418
753.398	426
755.81	446
758.219	472
760.629	484
763.037	482
765.445	482
767.852	480
770.258	460
772.664	432
775.068	426
777.472	432
779.876	436
782.278	470
784.679	498
787.08	560
789.48	608
791.879	664
794.278	676
796.675	704
799.072	728
801.467	672
803.864	562
806.258	470
808.651	438
811.044	428
813.437	394
815.828	346
818.218	334
820.608	302
822.997	280
825.385	284
827.773	278
830.16	274
832.546	292
834.931	280
837.315	338
839.699	344
842.081	390
844.463	406
846.844	376
849.226	346
851.606	318
853.985	322
856.363	302
858.741	312
861.117	312
863.493	306
865.868	296
868.243	298
870.616	308
872.989	316
875.36	304
877.731	298
880.102	298
882.472	272
884.841	268
887.209	270
889.577	294
891.944	282
894.31	294
896.674	290
899.039	310
901.403	338
903.766	350
906.128	364
908.49	384
910.849	342
913.209	326
915.569	326
917.927	296
920.284	282
922.641	288
924.997	274
927.353	264
929.707	258
932.061	254
934.414	254
936.765	260
939.117	288
941.469	264
943.818	268
946.167	282
948.515	280
950.863	292
953.211	290
955.556	296
957.902	294
960.246	304
962.59	320
964.933	332
967.276	332
969.617	304
971.958	340
974.298	350
976.638	370
978.976	416
981.314	474
983.651	550
985.988	618
988.323	768
990.659	1160
992.992	1702
995.325	1916
997.658	2346
999.99	4132
1002.32	6598
1004.65	6118
1006.98	3454
1009.31	1572
1011.64	848
1013.97	580
1016.29	482
1018.62	486
1020.94	530
1023.27	628
1025.59	846
1027.91	1210
1030.24	1692
1032.56	1972
1034.88	1910
1037.2	1404
1039.52	970
1041.84	738
1044.15	576
1046.47	510
1048.79	462
1051.1	444
1053.42	430
1055.73	416
1058.04	436
1060.36	410
1062.67	412
1064.98	440
1067.29	436
1069.6	454
1071.91	472
1074.22	448
1076.52	444
1078.83	438
1081.14	450
1083.44	442
1085.75	430
1088.05	436
1090.35	444
1092.65	410
1094.95	446
1097.26	420
1099.56	460
1101.86	408
1104.15	420
1106.45	380
1108.75	400
1111.05	380
1113.34	372
1115.64	368
1117.93	326
1120.22	310
1122.52	322
1124.81	294
1127.1	300
1129.39	298
1131.68	286
1133.97	288
1136.26	296
1138.54	290
1140.83	330
1143.12	330
1145.4	402
1147.69	430
1149.97	528
1152.25	684
1154.54	884
1156.82	1008
1159.1	910
1161.38	736
1163.66	596
1165.94	550
1168.22	524
1170.49	530
1172.77	534
1175.05	656
1177.32	722
1179.6	1000
1181.87	1150
1184.14	1210
1186.42	1146
1188.69	1060
1190.96	1060
1193.23	1134
1195.5	1216
1197.77	1206
1200.03	1236
1202.3	1206
1204.57	1062
1206.83	1000
1209.1	864
1211.36	742
1213.63	664
1215.89	554
1218.15	504
1220.41	492
1222.67	498
1224.93	478
1227.19	466
1229.45	440
1231.71	458
1233.97	422
1236.22	390
1238.48	404
1240.73	386
1242.99	390
1245.24	384
1247.5	398
1249.75	380
1252	386
1254.25	358
1256.5	378
1258.75	362
1261	360
1263.25	384
1265.49	376
1267.74	370
1269.99	392
1272.23	344
1274.48	376
1276.72	350
1278.96	370
1281.21	384
1283.45	370
1285.69	370
1287.93	378
1290.17	364
1292.41	402
1294.64	404
1296.88	424
1299.12	428
1301.36	416
1303.59	432
1305.82	418
1308.06	416
1310.29	446
1312.52	426
1314.76	462
1316.99	458
1319.22	474
1321.45	516
1323.68	524
1325.9	536
1328.13	554
1330.36	544
1332.58	538
1334.81	550
1337.04	512
1339.26	480
1341.48	456
1343.71	450
1345.93	416
1348.15	396
1350.37	414
1352.59	402
1354.81	404
1357.03	378
1359.24	390
1361.46	388
1363.68	370
1365.89	386
1368.11	366
1370.32	412
1372.54	402
1374.75	404
1376.96	372
1379.17	366
1381.38	352
1383.59	336
1385.8	308
1388.01	314
1390.22	300
1392.43	276
1394.63	298
1396.84	302
1399.05	290
1401.25	294
1403.45	290
1405.66	290
1407.86	294
1410.06	296
1412.26	296
1414.46	288
1416.66	270
1418.86	264
1421.06	284
1423.26	286
1425.46	288
1427.65	296
1429.85	290
1432.04	302
1434.24	334
1436.43	374
1438.62	410
1440.82	428
1443.01	502
1445.2	546
1447.39	602
1449.58	612
1451.77	596
1453.95	614
1456.14	516
1458.33	486
1460.52	412
1462.7	364
1464.89	300
1467.07	324
1469.25	306
1471.44	300
1473.62	292
1475.8	288
1477.98	298
1480.16	292
1482.34	304
1484.52	298
1486.7	296
1488.87	298
1491.05	318
1493.23	306
1495.4	318
1497.58	298
1499.75	288
1501.92	296
1504.1	294
1506.27	294
1508.44	288
1510.61	270
1512.78	280
1514.95	268
1517.12	280
1519.28	300
1521.45	290
1523.62	286
1525.78	292
1527.95	306
1530.11	282
1532.28	286
1534.44	282
1536.6	274
1538.76	300
1540.93	286
1543.09	298
1545.25	272
1547.41	304
1549.56	282
1551.72	290
1553.88	306
1556.03	320
1558.19	304
1560.35	320
1562.5	320
1564.65	322
1566.81	348
1568.96	338
1571.11	354
1573.26	390
1575.41	434
1577.56	494
1579.71	586
1581.86	816
1584.01	1008
1586.15	950
1588.3	726
1590.45	632
1592.59	652
1594.74	720
1596.88	926
1599.02	1246
1601.17	1656
1603.31	1884
1605.45	1704
1607.59	1280
1609.73	898
1611.87	690
1614.01	568
1616.14	474
1618.28	450
1620.42	428
1622.55	382
1624.69	386
1626.82	382
1628.96	362
1631.09	338
1633.22	322
1635.36	338
1637.49	342
1639.62	346
1641.75	364
1643.88	340
1646	348
1648.13	362
1650.26	368
1652.39	348
1654.51	320
1656.64	328
1658.76	302
1660.89	314
1663.01	298
1665.13	304
1667.26	318
1669.38	326
1671.5	322
1673.62	308
1675.74	322
1677.86	312
1679.97	306
1682.09	306
1684.21	308
1686.33	286
1688.44	322
1690.56	304
1692.67	300
1694.78	296
1696.9	306
1699.01	312
1701.12	308
1703.23	324
1705.34	292
1707.45	298
1709.56	304
1711.67	288
1713.78	296
1715.88	300
1717.99	290
1720.1	294
1722.2	278
1724.31	278
1726.41	280
1728.51	288
1730.62	298
1732.72	310
1734.82	292
1736.92	284
1739.02	290
1741.12	302
1743.22	290
1745.32	302
1747.42	298
1749.51	282
1751.61	290
1753.7	296
1755.8	286
1757.89	316
1759.99	304
1762.08	286
1764.17	290
1766.26	302
1768.36	300
1770.45	266
1772.54	276
1774.62	290
1776.71	322
1778.8	302
1780.89	294
1782.98	306
1785.06	280
1787.15	288
1789.23	300
1791.32	304
1793.4	306
1795.48	294
1797.56	316
1799.65	302
1801.73	308
1803.81	296
1805.89	290
1807.97	304
1810.04	316
1812.12	316
1814.2	300
1816.28	310
1818.35	322
1820.43	318
1822.5	298
1824.58	322
1826.65	310
1828.72	310
1830.79	316
1832.86	302
1834.94	314
1837.01	290
1839.08	300
1841.15	300
1843.21	296
1845.28	302
1847.35	298
1849.41	304
1851.48	298
1853.55	312
1855.61	304
1857.67	306
1859.74	290
1861.8	314
1863.86	318
1865.92	286
1867.98	300
1870.05	292
1872.1	318
1874.16	318
1876.22	292
1878.28	290
1880.34	308
1882.39	298
1884.45	324
1886.5	300
1888.56	304
1890.61	312
1892.67	318
1894.72	318
1896.77	310
1898.82	332
1900.87	308
1902.92	312
1904.97	318
1907.02	314
1909.07	312
1911.12	326
1913.17	336
1915.21	306
1917.26	318
1919.3	296
1921.35	314
1923.39	306
1925.43	320
1927.48	336
1929.52	314
1931.56	304
1933.6	312
1935.64	330
1937.68	318
1939.72	318
1941.76	296
1943.8	328
1945.83	310
1947.87	310
1949.91	320
1951.94	320
1953.98	318
1956.01	310
1958.05	326
1960.08	328
1962.11	314
1964.14	326
1966.17	340
1968.2	320
1970.23	328
1972.26	318
1974.29	298
1976.32	326
1978.35	318
1980.37	320
1982.4	330
1984.43	304
1986.45	312
1988.48	336
1990.5	320
1992.52	320
1994.55	318
1996.57	320
1998.59	316
2000.61	328
2002.63	322
2004.65	324
2006.67	336
2008.69	340
2010.7	300
2012.72	310
2014.74	320
2016.75	326
2018.77	330
2020.78	316
2022.8	330
2024.81	312
2026.83	318
2028.84	316
2030.85	324
2032.86	310
2034.87	330
2036.88	322
2038.89	322
2040.9	314
2042.91	328
2044.91	314
2046.92	320
2048.93	336
2050.93	312
2052.94	328
2054.94	330
2056.95	312
2058.95	318
2060.95	334
2062.95	346
2064.96	318
2066.96	342
2068.96	316
2070.96	334
2072.96	336
2074.95	318
2076.95	328
2078.95	338
2080.95	324
2082.94	344
2084.94	328
2086.93	324
2088.93	330
2090.92	328
2092.91	332
2094.91	316
2096.9	322
2098.89	342
2100.88	332
2102.87	342
2104.86	330
2106.85	350
2108.84	308
2110.83	348
2112.81	326
2114.8	340
2116.78	352
2118.77	328
2120.75	340
2122.74	330
2124.72	342
2126.71	342
2128.69	336
2130.67	334
2132.65	336
2134.63	322
2136.61	326
2138.59	332
2140.57	330
2142.55	332
2144.53	328
2146.5	330
2148.48	318
2150.46	338
2152.43	330
2154.41	346
2156.38	326
2158.35	354
2160.33	338
2162.3	322
2164.27	338
2166.24	342
2168.21	314
2170.18	318
2172.15	354
2174.12	316
2176.09	342
2178.06	350
2180.03	342
2181.99	318
2183.96	326
2185.92	352
2187.89	352
2189.85	352
2191.82	342
2193.78	336
2195.74	336
2197.7	346
2199.67	352
2201.63	358
2203.59	346
2205.55	342
2207.51	344
2209.46	342
2211.42	340
2213.38	338
2215.34	348
2217.29	342
2219.25	340
2221.2	338
2223.16	350
2225.11	346
2227.06	354
2229.02	338
2230.97	322
2232.92	346
2234.87	326
2236.82	340
2238.77	340
2240.72	344
2242.67	334
2244.62	336
2246.57	354
2248.51	348
2250.46	330
2252.4	344
2254.35	346
2256.29	336
2258.24	354
2260.18	340
2262.13	344
2264.07	338
2266.01	364
2267.95	348
2269.89	334
2271.83	346
2273.77	360
2275.71	338
2277.65	346
2279.58	352
2281.52	340
2283.46	332
2285.4	350
2287.33	348
2289.27	336
2291.2	352
2293.13	344
2295.07	348
2297	344
2298.93	324
2300.86	356
2302.79	352
2304.72	360
2306.65	362
2308.58	346
2310.51	348
2312.44	356
2314.37	350
2316.29	356
2318.22	356
2320.15	348
2322.07	332
2324	362
2325.92	340
2327.84	350
2329.77	332
2331.69	364
2333.61	332
2335.53	352
2337.45	354
2339.37	366
2341.29	348
2343.21	370
2345.13	356
2347.05	352
2348.97	362
2350.88	340
2352.8	364
2354.71	358
2356.63	362
2358.54	342
2360.46	380
2362.37	348
2364.28	360
2366.2	344
2368.11	360
2370.02	356
2371.93	332
2373.84	360
2375.75	380
2377.66	328
2379.57	342
2381.47	370
2383.38	352
2385.29	370
2387.2	348
2389.1	366
2391.01	348
2392.91	344
2394.81	380
2396.72	352
2398.62	344
2400.52	358
2402.42	356
2404.33	360
2406.23	364
2408.13	364
2410.03	338
2411.92	376
2413.82	332
2415.72	348
2417.62	356
2419.51	358
2421.41	370
2423.31	346
2425.2	358
2427.1	364
2428.99	368
2430.88	360
2432.78	400
2434.67	366
2436.56	370
2438.45	372
2440.34	356
2442.23	354
2444.12	370
2446.01	386
2447.9	376
2449.79	384