File: Mixture_Classification/Jesse_Dataset_v2/Pure Raman/Polystyrene/633nm/ps-ppo-7jan25-1,0000-map3_Y03_X06.txt
182.393	1002
184.993	982
187.593	948
190.193	932
192.79	942
195.387	926
197.983	932
200.578	914
203.174	902
205.766	904
208.36	958
210.951	1020
213.542	1006
216.131	1024
218.721	1100
221.309	1044
223.897	996
226.483	1060
229.069	968
231.654	896
234.238	830
236.821	762
239.404	666
241.984	592
244.566	526
247.145	450
249.723	416
252.302	374
254.878	362
257.455	366
260.03	352
262.604	346
265.178	338
267.75	322
270.322	312
272.893	308
275.463	318
278.032	290
280.601	310
283.168	298
285.734	268
288.301	264
290.866	244
293.429	240
295.992	242
298.556	240
301.117	228
303.677	220
306.236	230
308.795	214
311.354	230
313.911	218
316.467	220
319.022	222
321.577	208
324.13	236
326.684	232
329.236	236
331.787	214
334.337	218
336.887	208
339.435	228
341.983	204
344.529	218
347.075	202
349.621	216
352.165	210
354.708	212
357.251	210
359.793	208
362.334	208
364.874	204
367.413	216
369.951	208
372.489	212
375.026	214
377.562	222
380.097	234
382.631	234
385.164	228
387.697	260
390.229	256
392.76	250
395.29	280
397.819	270
400.346	292
402.873	304
405.4	338
407.926	342
410.451	330
412.976	312
415.499	290
418.02	250
420.542	254
423.063	250
425.583	230
428.101	232
430.619	240
433.137	214
435.654	218
438.169	212
440.684	214
443.198	218
445.712	198
448.223	196
450.735	190
453.246	200
455.755	190
458.264	180
460.771	172
463.279	176
465.786	178
468.291	176
470.796	170
473.301	170
475.803	184
478.306	168
480.807	180
483.308	176
485.807	168
488.307	160
490.804	170
493.302	174
495.798	164
498.294	172
500.788	184
503.283	190
505.775	188
508.269	184
510.759	174
513.251	186
515.74	180
518.23	198
520.718	176
523.204	180
525.692	192
528.177	212
530.663	208
533.147	226
535.629	236
538.113	226
540.594	260
543.074	256
545.555	252
548.034	258
550.512	240
552.989	234
555.467	228
557.942	238
560.417	244
562.892	228
565.365	216
567.838	234
570.309	240
572.78	238
575.251	242
577.72	236
580.189	218
582.656	202
585.123	194
587.589	196
590.055	198
592.52	206
594.983	214
597.446	210
599.908	196
602.369	212
604.829	206
607.289	266
609.747	268
612.205	272
614.663	262
617.119	418
619.574	658
622.029	1048
624.483	982
626.936	530
629.389	334
631.84	260
634.291	240
636.741	200
639.19	200
641.639	192
644.086	176
646.533	174
648.979	160
651.424	160
653.869	166
656.313	166
658.754	152
661.196	158
663.638	150
666.078	158
668.518	166
670.957	156
673.394	146
675.831	170
678.268	148
680.703	164
683.137	154
685.571	150
688.005	160
690.437	172
692.868	150
695.299	178
697.729	158
700.159	180
702.586	196
705.014	204
707.441	212
709.866	192
712.292	194
714.716	206
717.14	200
719.563	206
721.984	244
724.406	274
726.825	316
729.246	274
731.665	262
734.082	260
736.5	278
738.916	350
741.332	356
743.746	368
746.161	346
748.574	380
750.987	386
753.398	430
755.81	442
758.219	458
760.629	460
763.037	462
765.445	468
767.852	438
770.258	424
772.664	428
775.068	412
777.472	408
779.876	428
782.278	456
784.679	490
787.08	540
789.48	602
791.879	620
794.278	646
796.675	688
799.072	682
801.467	632
803.864	550
806.258	462
808.651	414
811.044	388
813.437	364
815.828	342
818.218	304
820.608	274
822.997	266
825.385	246
827.773	246
830.16	244
832.546	256
834.931	284
837.315	300
839.699	354
842.081	366
844.463	354
846.844	336
849.226	316
851.606	318
853.985	296
856.363	290
858.741	270
861.117	268
863.493	272
865.868	284
868.243	278
870.616	278
872.989	294
875.36	276
877.731	264
880.102	280
882.472	262
884.841	262
887.209	270
889.577	262
891.944	266
894.31	270
896.674	304
899.039	294
901.403	300
903.766	340
906.128	352
908.49	340
910.849	314
913.209	310
915.569	290
917.927	270
920.284	256
922.641	238
924.997	252
927.353	242
929.707	234
932.061	234
934.414	238
936.765	232
939.117	226
941.469	248
943.818	258
946.167	250
948.515	240
950.863	258
953.211	256
955.556	264
957.902	282
960.246	266
962.59	300
964.933	310
967.276	314
969.617	308
971.958	336
974.298	322
976.638	334
978.976	396
981.314	436
983.651	514
985.988	598
988.323	744
990.659	1166
992.992	1728
995.325	1916
997.658	2306
999.99	4080
1002.32	6570
1004.65	6090
1006.98	3442
1009.31	1534
1011.64	818
1013.97	576
1016.29	474
1018.62	434
1020.94	504
1023.27	616
1025.59	834
1027.91	1184
1030.24	1588
1032.56	1976
1034.88	1894
1037.2	1462
1039.52	966
1041.84	674
1044.15	530
1046.47	474
1048.79	420
1051.1	416
1053.42	376
1055.73	384
1058.04	376
1060.36	392
1062.67	390
1064.98	410
1067.29	422
1069.6	414
1071.91	428
1074.22	420
1076.52	432
1078.83	430
1081.14	430
1083.44	406
1085.75	418
1088.05	406
1090.35	410
1092.65	410
1094.95	398
1097.26	412
1099.56	410
1101.86	408
1104.15	400
1106.45	376
1108.75	360
1111.05	354
1113.34	296
1115.64	316
1117.93	294
1120.22	294
1122.52	276
1124.81	288
1127.1	256
1129.39	258
1131.68	284
1133.97	262
1136.26	264
1138.54	288
1140.83	306
1143.12	310
1145.4	362
1147.69	390
1149.97	466
1152.25	642
1154.54	874
1156.82	968
1159.1	858
1161.38	708
1163.66	580
1165.94	510
1168.22	496
1170.49	512
1172.77	552
1175.05	626
1177.32	748
1179.6	974
1181.87	1142
1184.14	1252
1186.42	1104
1188.69	1040
1190.96	1038
1193.23	1110
1195.5	1190
1197.77	1220
1200.03	1178
1202.3	1164
1204.57	1048
1206.83	972
1209.1	840
1211.36	720
1213.63	626
1215.89	556
1218.15	496
1220.41	480
1222.67	460
1224.93	434
1227.19	422
1229.45	426
1231.71	398
1233.97	378
1236.22	374
1238.48	372
1240.73	378
1242.99	334
1245.24	368
1247.5	364
1249.75	358
1252	352
1254.25	352
1256.5	344
1258.75	334
1261	338
1263.25	352
1265.49	358
1267.74	356
1269.99	344
1272.23	332
1274.48	342
1276.72	344
1278.96	324
1281.21	342
1283.45	342
1285.69	338
1287.93	364
1290.17	342
1292.41	362
1294.64	370
1296.88	354
1299.12	422
1301.36	418
1303.59	412
1305.82	410
1308.06	416
1310.29	422
1312.52	422
1314.76	418
1316.99	462
1319.22	446
1321.45	482
1323.68	520
1325.9	516
1328.13	530
1330.36	512
1332.58	522
1334.81	490
1337.04	508
1339.26	438
1341.48	422
1343.71	392
1345.93	402
1348.15	404
1350.37	360
1352.59	382
1354.81	354
1357.03	352
1359.24	362
1361.46	370
1363.68	372
1365.89	346
1368.11	386
1370.32	378
1372.54	378
1374.75	392
1376.96	366
1379.17	362
1381.38	342
1383.59	332
1385.8	298
1388.01	280
1390.22	292
1392.43	274
1394.63	270
1396.84	266
1399.05	262
1401.25	262
1403.45	274
1405.66	262
1407.86	274
1410.06	270
1412.26	258
1414.46	258
1416.66	254
1418.86	248
1421.06	246
1423.26	252
1425.46	248
1427.65	272
1429.85	266
1432.04	292
1434.24	328
1436.43	362
1438.62	394
1440.82	442
1443.01	460
1445.2	520
1447.39	584
1449.58	554
1451.77	582
1453.95	570
1456.14	512
1458.33	468
1460.52	378
1462.7	344
1464.89	316
1467.07	290
1469.25	280
1471.44	264
1473.62	286
1475.8	272
1477.98	264
1480.16	260
1482.34	258
1484.52	252
1486.7	276
1488.87	256
1491.05	290
1493.23	292
1495.4	296
1497.58	270
1499.75	262
1501.92	262
1504.1	256
1506.27	254
1508.44	256
1510.61	238
1512.78	250
1514.95	266
1517.12	274
1519.28	266
1521.45	270
1523.62	262
1525.78	250
1527.95	276
1530.11	262
1532.28	244
1534.44	270
1536.6	258
1538.76	280
1540.93	256
1543.09	270
1545.25	274
1547.41	268
1549.56	276
1551.72	278
1553.88	270
1556.03	242
1558.19	292
1560.35	292
1562.5	288
1564.65	306
1566.81	308
1568.96	312
1571.11	342
1573.26	372
1575.41	404
1577.56	440
1579.71	572
1581.86	794
1584.01	972
1586.15	912
1588.3	716
1590.45	596
1592.59	590
1594.74	716
1596.88	844
1599.02	1200
1601.17	1666
1603.31	1890
1605.45	1696
1607.59	1254
1609.73	928
1611.87	698
1614.01	532
1616.14	454
1618.28	400
1620.42	368
1622.55	368
1624.69	358
1626.82	330
1628.96	338
1631.09	308
1633.22	316
1635.36	322
1637.49	286
1639.62	316
1641.75	306
1643.88	334
1646	314
1648.13	356
1650.26	352
1652.39	326
1654.51	302
1656.64	292
1658.76	306
1660.89	280
1663.01	278
1665.13	302
1667.26	284
1669.38	270
1671.5	288
1673.62	292
1675.74	290
1677.86	280
1679.97	284
1682.09	284
1684.21	296
1686.33	286
1688.44	278
1690.56	272
1692.67	288
1694.78	270
1696.9	290
1699.01	292
1701.12	276
1703.23	270
1705.34	268
1707.45	258
1709.56	264
1711.67	266
1713.78	254
1715.88	254
1717.99	260
1720.1	250
1722.2	270
1724.31	268
1726.41	268
1728.51	272
1730.62	268
1732.72	274
1734.82	278
1736.92	270
1739.02	264
1741.12	252
1743.22	264
1745.32	280
1747.42	278
1749.51	264
1751.61	284
1753.7	282
1755.8	286
1757.89	284
1759.99	264
1762.08	282
1764.17	272
1766.26	282
1768.36	270
1770.45	274
1772.54	266
1774.62	294
1776.71	262
1778.8	270
1780.89	258
1782.98	272
1785.06	266
1787.15	284
1789.23	272
1791.32	266
1793.4	278
1795.48	264
1797.56	276
1799.65	300
1801.73	276
1803.81	288
1805.89	288
1807.97	290
1810.04	296
1812.12	286
1814.2	278
1816.28	284
1818.35	300
1820.43	294
1822.5	268
1824.58	262
1826.65	294
1828.72	298
1830.79	296
1832.86	268
1834.94	286
1837.01	290
1839.08	280
1841.15	278
1843.21	292
1845.28	264
1847.35	306
1849.41	270
1851.48	270
1853.55	270
1855.61	276
1857.67	272
1859.74	306
1861.8	302
1863.86	300
1865.92	280
1867.98	264
1870.05	294
1872.1	276
1874.16	280
1876.22	296
1878.28	272
1880.34	278
1882.39	266
1884.45	286
1886.5	266
1888.56	282
1890.61	286
1892.67	292
1894.72	284
1896.77	290
1898.82	300
1900.87	286
1902.92	284
1904.97	310
1907.02	304
1909.07	306
1911.12	312
1913.17	302
1915.21	294
1917.26	300
1919.3	280
1921.35	308
1923.39	292
1925.43	308
1927.48	298
1929.52	316
1931.56	306
1933.6	292
1935.64	296
1937.68	296
1939.72	288
1941.76	284
1943.8	310
1945.83	304
1947.87	282
1949.91	314
1951.94	290
1953.98	294
1956.01	310
1958.05	272
1960.08	304
1962.11	312
1964.14	302
1966.17	290
1968.2	292
1970.23	306
1972.26	302
1974.29	292
1976.32	292
1978.35	306
1980.37	302
1982.4	306
1984.43	300
1986.45	312
1988.48	310
1990.5	288
1992.52	304
1994.55	302
1996.57	300
1998.59	298
2000.61	282
2002.63	306
2004.65	308
2006.67	290
2008.69	290
2010.7	298
2012.72	312
2014.74	300
2016.75	310
2018.77	322
2020.78	316
2022.8	302
2024.81	320
2026.83	298
2028.84	308
2030.85	312
2032.86	314
2034.87	306
2036.88	300
2038.89	304
2040.9	322
2042.91	306
2044.91	310
2046.92	296
2048.93	316
2050.93	312
2052.94	304
2054.94	304
2056.95	324
2058.95	304
2060.95	314
2062.95	316
2064.96	308
2066.96	306
2068.96	332
2070.96	318
2072.96	328
2074.95	320
2076.95	308
2078.95	308
2080.95	306
2082.94	330
2084.94	332
2086.93	314
2088.93	326
2090.92	326
2092.91	324
2094.91	332
2096.9	316
2098.89	314
2100.88	314
2102.87	324
2104.86	278
2106.85	308
2108.84	330
2110.83	318
2112.81	336
2114.8	316
2116.78	312
2118.77	316
2120.75	318
2122.74	330
2124.72	302
2126.71	330
2128.69	316
2130.67	316
2132.65	324
2134.63	320
2136.61	318
2138.59	316
2140.57	334
2142.55	330
2144.53	310
2146.5	318
2148.48	326
2150.46	316
2152.43	330
2154.41	318
2156.38	334
2158.35	344
2160.33	302
2162.3	316
2164.27	310
2166.24	338
2168.21	328
2170.18	342
2172.15	320
2174.12	340
2176.09	322
2178.06	324
2180.03	314
2181.99	340
2183.96	328
2185.92	344
2187.89	350
2189.85	320
2191.82	334
2193.78	338
2195.74	340
2197.7	344
2199.67	344
2201.63	330
2203.59	340
2205.55	346
2207.51	328
2209.46	338
2211.42	338
2213.38	336
2215.34	334
2217.29	326
2219.25	332
2221.2	314
2223.16	334
2225.11	344
2227.06	342
2229.02	328
2230.97	336
2232.92	342
2234.87	334
2236.82	330
2238.77	350
2240.72	332
2242.67	332
2244.62	340
2246.57	340
2248.51	336
2250.46	338
2252.4	318
2254.35	336
2256.29	330
2258.24	338
2260.18	340
2262.13	322
2264.07	334
2266.01	342
2267.95	344
2269.89	342
2271.83	348
2273.77	332
2275.71	348
2277.65	360
2279.58	336
2281.52	348
2283.46	344
2285.4	338
2287.33	332
2289.27	356
2291.2	334
2293.13	324
2295.07	348
2297	350
2298.93	342
2300.86	340
2302.79	350
2304.72	346
2306.65	342
2308.58	338
2310.51	336
2312.44	342
2314.37	354
2316.29	356
2318.22	336
2320.15	344
2322.07	358
2324	350
2325.92	332
2327.84	350
2329.77	334
2331.69	346
2333.61	332
2335.53	342
2337.45	336
2339.37	360
2341.29	336
2343.21	364
2345.13	348
2347.05	336
2348.97	342
2350.88	344
2352.8	342
2354.71	346
2356.63	334
2358.54	346
2360.46	348
2362.37	342
2364.28	350
2366.2	344
2368.11	340
2370.02	350
2371.93	338
2373.84	358
2375.75	348
2377.66	336
2379.57	338
2381.47	334
2383.38	366
2385.29	342
2387.2	336
2389.1	330
2391.01	348
2392.91	350
2394.81	346
2396.72	338
2398.62	346
2400.52	346
2402.42	340
2404.33	362
2406.23	346
2408.13	348
2410.03	364
2411.92	346
2413.82	334
2415.72	344
2417.62	360
2419.51	356
2421.41	354
2423.31	360
2425.2	352
2427.1	360
2428.99	344
2430.88	354
2432.78	358
2434.67	378
2436.56	352
2438.45	352
2440.34	356
2442.23	362
2444.12	336
2446.01	368
2447.9	366
2449.79	374