File: Mixture_Classification/Jesse_Dataset_v2/Pure Raman/Polystyrene/633nm/ps-ppo-7jan25-1,0000-map3_Y09_X03.txt
182.393	1042
184.993	998
187.593	980
190.193	902
192.79	950
195.387	906
197.983	888
200.578	926
203.174	938
205.766	952
208.36	972
210.951	1008
213.542	1018
216.131	1038
218.721	1096
221.309	1070
223.897	1062
226.483	1036
229.069	986
231.654	920
234.238	850
236.821	728
239.404	670
241.984	582
244.566	506
247.145	464
249.723	424
252.302	370
254.878	376
257.455	340
260.03	364
262.604	346
265.178	326
267.75	310
270.322	330
272.893	334
275.463	302
278.032	284
280.601	278
283.168	278
285.734	286
288.301	274
290.866	258
293.429	240
295.992	238
298.556	238
301.117	218
303.677	206
306.236	206
308.795	234
311.354	224
313.911	236
316.467	232
319.022	228
321.577	198
324.13	222
326.684	220
329.236	222
331.787	218
334.337	226
336.887	214
339.435	220
341.983	226
344.529	216
347.075	234
349.621	210
352.165	202
354.708	212
357.251	202
359.793	200
362.334	206
364.874	208
367.413	222
369.951	210
372.489	212
375.026	216
377.562	230
380.097	218
382.631	242
385.164	252
387.697	246
390.229	254
392.76	264
395.29	262
397.819	274
400.346	298
402.873	292
405.4	322
407.926	334
410.451	348
412.976	310
415.499	300
418.02	274
420.542	258
423.063	268
425.583	242
428.101	216
430.619	226
433.137	216
435.654	208
438.169	208
440.684	200
443.198	200
445.712	200
448.223	206
450.735	184
453.246	188
455.755	180
458.264	172
460.771	162
463.279	174
465.786	168
468.291	164
470.796	164
473.301	172
475.803	162
478.306	170
480.807	174
483.308	172
485.807	166
488.307	162
490.804	164
493.302	164
495.798	170
498.294	160
500.788	178
503.283	178
505.775	178
508.269	176
510.759	172
513.251	178
515.74	182
518.23	170
520.718	182
523.204	188
525.692	190
528.177	212
530.663	190
533.147	226
535.629	238
538.113	226
540.594	248
543.074	256
545.555	240
548.034	250
550.512	238
552.989	242
555.467	234
557.942	246
560.417	250
562.892	240
565.365	230
567.838	218
570.309	238
572.78	222
575.251	234
577.72	242
580.189	224
582.656	198
585.123	186
587.589	198
590.055	198
592.52	186
594.983	200
597.446	212
599.908	202
602.369	210
604.829	220
607.289	272
609.747	284
612.205	258
614.663	298
617.119	394
619.574	676
622.029	1088
624.483	938
626.936	520
629.389	300
631.84	280
634.291	232
636.741	198
639.19	204
641.639	178
644.086	164
646.533	164
648.979	154
651.424	154
653.869	160
656.313	160
658.754	142
661.196	166
663.638	154
666.078	142
668.518	152
670.957	158
673.394	164
675.831	166
678.268	146
680.703	166
683.137	164
685.571	158
688.005	140
690.437	154
692.868	152
695.299	162
697.729	166
700.159	206
702.586	194
705.014	202
707.441	196
709.866	194
712.292	198
714.716	198
717.14	192
719.563	204
721.984	214
724.406	286
726.825	300
729.246	288
731.665	270
734.082	260
736.5	274
738.916	312
741.332	356
743.746	382
746.161	348
748.574	372
750.987	382
753.398	412
755.81	436
758.219	444
760.629	432
763.037	458
765.445	438
767.852	440
770.258	430
772.664	434
775.068	398
777.472	388
779.876	412
782.278	442
784.679	462
787.08	522
789.48	590
791.879	622
794.278	644
796.675	666
799.072	670
801.467	612
803.864	524
806.258	482
808.651	404
811.044	392
813.437	336
815.828	336
818.218	298
820.608	286
822.997	250
825.385	248
827.773	246
830.16	254
832.546	254
834.931	272
837.315	296
839.699	344
842.081	340
844.463	354
846.844	362
849.226	326
851.606	286
853.985	292
856.363	280
858.741	288
861.117	278
863.493	284
865.868	272
868.243	264
870.616	276
872.989	270
875.36	270
877.731	266
880.102	280
882.472	272
884.841	250
887.209	256
889.577	264
891.944	276
894.31	264
896.674	290
899.039	282
901.403	294
903.766	312
906.128	340
908.49	348
910.849	334
913.209	316
915.569	290
917.927	262
920.284	252
922.641	236
924.997	244
927.353	228
929.707	242
932.061	244
934.414	216
936.765	240
939.117	238
941.469	250
943.818	236
946.167	230
948.515	252
950.863	248
953.211	254
955.556	254
957.902	258
960.246	266
962.59	286
964.933	296
967.276	312
969.617	304
971.958	300
974.298	310
976.638	338
978.976	372
981.314	428
983.651	504
985.988	578
988.323	758
990.659	1132
992.992	1714
995.325	1874
997.658	2338
999.99	4238
1002.32	6580
1004.65	6062
1006.98	3352
1009.31	1554
1011.64	842
1013.97	548
1016.29	466
1018.62	434
1020.94	502
1023.27	612
1025.59	824
1027.91	1168
1030.24	1646
1032.56	1980
1034.88	1848
1037.2	1400
1039.52	924
1041.84	648
1044.15	548
1046.47	470
1048.79	424
1051.1	394
1053.42	372
1055.73	386
1058.04	382
1060.36	388
1062.67	384
1064.98	402
1067.29	412
1069.6	432
1071.91	426
1074.22	426
1076.52	414
1078.83	408
1081.14	440
1083.44	404
1085.75	402
1088.05	374
1090.35	408
1092.65	390
1094.95	404
1097.26	404
1099.56	396
1101.86	400
1104.15	396
1106.45	360
1108.75	342
1111.05	310
1113.34	302
1115.64	322
1117.93	306
1120.22	260
1122.52	278
1124.81	272
1127.1	252
1129.39	248
1131.68	264
1133.97	268
1136.26	266
1138.54	278
1140.83	288
1143.12	336
1145.4	352
1147.69	388
1149.97	480
1152.25	654
1154.54	870
1156.82	968
1159.1	866
1161.38	698
1163.66	550
1165.94	496
1168.22	488
1170.49	486
1172.77	528
1175.05	612
1177.32	770
1179.6	956
1181.87	1134
1184.14	1188
1186.42	1102
1188.69	992
1190.96	1036
1193.23	1114
1195.5	1158
1197.77	1196
1200.03	1180
1202.3	1114
1204.57	1084
1206.83	944
1209.1	784
1211.36	692
1213.63	602
1215.89	522
1218.15	496
1220.41	464
1222.67	442
1224.93	464
1227.19	434
1229.45	422
1231.71	372
1233.97	382
1236.22	356
1238.48	346
1240.73	338
1242.99	338
1245.24	350
1247.5	346
1249.75	358
1252	346
1254.25	318
1256.5	348
1258.75	326
1261	348
1263.25	328
1265.49	322
1267.74	320
1269.99	340
1272.23	320
1274.48	328
1276.72	318
1278.96	330
1281.21	328
1283.45	344
1285.69	328
1287.93	344
1290.17	350
1292.41	364
1294.64	378
1296.88	362
1299.12	366
1301.36	394
1303.59	410
1305.82	408
1308.06	402
1310.29	424
1312.52	410
1314.76	420
1316.99	434
1319.22	466
1321.45	476
1323.68	496
1325.9	512
1328.13	526
1330.36	516
1332.58	496
1334.81	498
1337.04	470
1339.26	432
1341.48	412
1343.71	398
1345.93	386
1348.15	378
1350.37	378
1352.59	350
1354.81	336
1357.03	356
1359.24	348
1361.46	362
1363.68	354
1365.89	370
1368.11	352
1370.32	362
1372.54	352
1374.75	368
1376.96	332
1379.17	350
1381.38	312
1383.59	316
1385.8	314
1388.01	280
1390.22	250
1392.43	252
1394.63	250
1396.84	232
1399.05	260
1401.25	246
1403.45	266
1405.66	254
1407.86	264
1410.06	258
1412.26	260
1414.46	246
1416.66	236
1418.86	256
1421.06	226
1423.26	234
1425.46	258
1427.65	248
1429.85	264
1432.04	284
1434.24	310
1436.43	324
1438.62	376
1440.82	410
1443.01	464
1445.2	514
1447.39	566
1449.58	564
1451.77	608
1453.95	586
1456.14	526
1458.33	436
1460.52	358
1462.7	322
1464.89	292
1467.07	276
1469.25	276
1471.44	268
1473.62	256
1475.8	250
1477.98	248
1480.16	252
1482.34	256
1484.52	258
1486.7	246
1488.87	254
1491.05	274
1493.23	290
1495.4	284
1497.58	288
1499.75	266
1501.92	270
1504.1	254
1506.27	250
1508.44	258
1510.61	238
1512.78	244
1514.95	258
1517.12	240
1519.28	240
1521.45	242
1523.62	262
1525.78	246
1527.95	252
1530.11	270
1532.28	254
1534.44	252
1536.6	230
1538.76	276
1540.93	258
1543.09	252
1545.25	268
1547.41	244
1549.56	266
1551.72	254
1553.88	276
1556.03	286
1558.19	270
1560.35	282
1562.5	278
1564.65	284
1566.81	318
1568.96	324
1571.11	352
1573.26	362
1575.41	404
1577.56	470
1579.71	570
1581.86	824
1584.01	924
1586.15	908
1588.3	706
1590.45	592
1592.59	562
1594.74	674
1596.88	844
1599.02	1224
1601.17	1628
1603.31	1882
1605.45	1692
1607.59	1300
1609.73	902
1611.87	652
1614.01	536
1616.14	478
1618.28	408
1620.42	400
1622.55	362
1624.69	342
1626.82	336
1628.96	306
1631.09	318
1633.22	316
1635.36	308
1637.49	312
1639.62	324
1641.75	312
1643.88	312
1646	310
1648.13	340
1650.26	336
1652.39	324
1654.51	304
1656.64	288
1658.76	282
1660.89	282
1663.01	280
1665.13	272
1667.26	272
1669.38	266
1671.5	280
1673.62	264
1675.74	274
1677.86	270
1679.97	288
1682.09	288
1684.21	278
1686.33	284
1688.44	268
1690.56	256
1692.67	274
1694.78	288
1696.9	282
1699.01	266
1701.12	240
1703.23	272
1705.34	260
1707.45	258
1709.56	272
1711.67	276
1713.78	252
1715.88	270
1717.99	270
1720.1	272
1722.2	254
1724.31	276
1726.41	274
1728.51	270
1730.62	268
1732.72	266
1734.82	268
1736.92	274
1739.02	270
1741.12	274
1743.22	264
1745.32	274
1747.42	258
1749.51	254
1751.61	276
1753.7	272
1755.8	256
1757.89	266
1759.99	260
1762.08	262
1764.17	256
1766.26	270
1768.36	268
1770.45	282
1772.54	270
1774.62	276
1776.71	264
1778.8	270
1780.89	246
1782.98	262
1785.06	254
1787.15	274
1789.23	276
1791.32	292
1793.4	282
1795.48	280
1797.56	274
1799.65	284
1801.73	272
1803.81	272
1805.89	282
1807.97	264
1810.04	298
1812.12	264
1814.2	286
1816.28	286
1818.35	270
1820.43	282
1822.5	288
1824.58	284
1826.65	268
1828.72	290
1830.79	270
1832.86	268
1834.94	268
1837.01	278
1839.08	270
1841.15	270
1843.21	268
1845.28	280
1847.35	296
1849.41	266
1851.48	270
1853.55	270
1855.61	274
1857.67	270
1859.74	268
1861.8	282
1863.86	276
1865.92	286
1867.98	282
1870.05	286
1872.1	268
1874.16	278
1876.22	288
1878.28	282
1880.34	274
1882.39	274
1884.45	284
1886.5	276
1888.56	280
1890.61	268
1892.67	290
1894.72	276
1896.77	280
1898.82	266
1900.87	278
1902.92	298
1904.97	292
1907.02	270
1909.07	282
1911.12	278
1913.17	284
1915.21	300
1917.26	282
1919.3	286
1921.35	266
1923.39	288
1925.43	288
1927.48	298
1929.52	300
1931.56	270
1933.6	296
1935.64	316
1937.68	280
1939.72	292
1941.76	294
1943.8	292
1945.83	296
1947.87	310
1949.91	286
1951.94	282
1953.98	284
1956.01	278
1958.05	296
1960.08	288
1962.11	298
1964.14	306
1966.17	292
1968.2	286
1970.23	304
1972.26	282
1974.29	296
1976.32	262
1978.35	288
1980.37	286
1982.4	276
1984.43	282
1986.45	298
1988.48	290
1990.5	290
1992.52	288
1994.55	282
1996.57	310
1998.59	296
2000.61	300
2002.63	296
2004.65	310
2006.67	296
2008.69	310
2010.7	298
2012.72	292
2014.74	290
2016.75	300
2018.77	302
2020.78	296
2022.8	288
2024.81	286
2026.83	296
2028.84	300
2030.85	296
2032.86	312
2034.87	286
2036.88	306
2038.89	314
2040.9	320
2042.91	294
2044.91	318
2046.92	304
2048.93	294
2050.93	306
2052.94	298
2054.94	294
2056.95	322
2058.95	302
2060.95	304
2062.95	300
2064.96	300
2066.96	306
2068.96	302
2070.96	316
2072.96	298
2074.95	312
2076.95	304
2078.95	304
2080.95	300
2082.94	298
2084.94	318
2086.93	308
2088.93	290
2090.92	304
2092.91	286
2094.91	304
2096.9	304
2098.89	290
2100.88	286
2102.87	302
2104.86	300
2106.85	312
2108.84	288
2110.83	306
2112.81	308
2114.8	300
2116.78	292
2118.77	318
2120.75	318
2122.74	306
2124.72	314
2126.71	312
2128.69	322
2130.67	300
2132.65	310
2134.63	306
2136.61	316
2138.59	302
2140.57	308
2142.55	308
2144.53	318
2146.5	322
2148.48	322
2150.46	310
2152.43	302
2154.41	320
2156.38	300
2158.35	302
2160.33	304
2162.3	312
2164.27	318
2166.24	316
2168.21	304
2170.18	318
2172.15	306
2174.12	304
2176.09	314
2178.06	322
2180.03	318
2181.99	314
2183.96	324
2185.92	318
2187.89	336
2189.85	340
2191.82	328
2193.78	304
2195.74	314
2197.7	328
2199.67	308
2201.63	326
2203.59	330
2205.55	308
2207.51	324
2209.46	296
2211.42	322
2213.38	312
2215.34	310
2217.29	308
2219.25	308
2221.2	328
2223.16	326
2225.11	302
2227.06	308
2229.02	320
2230.97	312
2232.92	324
2234.87	330
2236.82	304
2238.77	304
2240.72	300
2242.67	310
2244.62	328
2246.57	326
2248.51	322
2250.46	318
2252.4	318
2254.35	318
2256.29	316
2258.24	316
2260.18	298
2262.13	324
2264.07	318
2266.01	312
2267.95	308
2269.89	312
2271.83	320
2273.77	312
2275.71	316
2277.65	316
2279.58	318
2281.52	306
2283.46	324
2285.4	316
2287.33	328
2289.27	330
2291.2	318
2293.13	326
2295.07	320
2297	324
2298.93	324
2300.86	320
2302.79	328
2304.72	318
2306.65	324
2308.58	336
2310.51	340
2312.44	332
2314.37	324
2316.29	336
2318.22	314
2320.15	322
2322.07	330
2324	338
2325.92	316
2327.84	312
2329.77	320
2331.69	338
2333.61	346
2335.53	338
2337.45	318
2339.37	330
2341.29	328
2343.21	328
2345.13	328
2347.05	342
2348.97	320
2350.88	340
2352.8	338
2354.71	326
2356.63	328
2358.54	338
2360.46	346
2362.37	328
2364.28	324
2366.2	334
2368.11	332
2370.02	334
2371.93	326
2373.84	336
2375.75	328
2377.66	324
2379.57	344
2381.47	342
2383.38	348
2385.29	328
2387.2	330
2389.1	332
2391.01	334
2392.91	320
2394.81	342
2396.72	322
2398.62	332
2400.52	336
2402.42	342
2404.33	306
2406.23	336
2408.13	340
2410.03	340
2411.92	332
2413.82	352
2415.72	352
2417.62	338
2419.51	328
2421.41	332
2423.31	342
2425.2	360
2427.1	338
2428.99	346
2430.88	352
2432.78	344
2434.67	336
2436.56	344
2438.45	342
2440.34	364
2442.23	332
2444.12	338
2446.01	366
2447.9	348
2449.79	350