File: Mixture_Classification/Jesse_Dataset_v2/Pure Raman/Polystyrene/633nm/ps-ppo-7jan25-1,0000-map3_Y10_X05.txt
182.393	1016
184.993	1020
187.593	976
190.193	970
192.79	916
195.387	878
197.983	902
200.578	938
203.174	930
205.766	988
208.36	974
210.951	1018
213.542	1058
216.131	1076
218.721	1100
221.309	1104
223.897	1072
226.483	1042
229.069	1034
231.654	904
234.238	826
236.821	768
239.404	660
241.984	596
244.566	540
247.145	454
249.723	414
252.302	412
254.878	384
257.455	378
260.03	368
262.604	372
265.178	346
267.75	338
270.322	322
272.893	342
275.463	332
278.032	292
280.601	306
283.168	278
285.734	294
288.301	298
290.866	270
293.429	266
295.992	264
298.556	248
301.117	258
303.677	232
306.236	224
308.795	230
311.354	238
313.911	232
316.467	250
319.022	242
321.577	250
324.13	234
326.684	242
329.236	238
331.787	234
334.337	220
336.887	230
339.435	244
341.983	240
344.529	242
347.075	224
349.621	238
352.165	212
354.708	232
357.251	226
359.793	212
362.334	214
364.874	224
367.413	238
369.951	226
372.489	236
375.026	224
377.562	240
380.097	260
382.631	260
385.164	262
387.697	254
390.229	288
392.76	284
395.29	270
397.819	282
400.346	296
402.873	320
405.4	334
407.926	350
410.451	356
412.976	338
415.499	320
418.02	292
420.542	274
423.063	254
425.583	264
428.101	248
430.619	234
433.137	234
435.654	236
438.169	230
440.684	226
443.198	204
445.712	212
448.223	218
450.735	202
453.246	214
455.755	196
458.264	200
460.771	190
463.279	194
465.786	180
468.291	178
470.796	180
473.301	194
475.803	194
478.306	188
480.807	164
483.308	166
485.807	180
488.307	188
490.804	170
493.302	164
495.798	188
498.294	178
500.788	198
503.283	204
505.775	200
508.269	200
510.759	188
513.251	198
515.74	198
518.23	192
520.718	206
523.204	202
525.692	202
528.177	212
530.663	228
533.147	240
535.629	240
538.113	238
540.594	242
543.074	270
545.555	266
548.034	238
550.512	262
552.989	258
555.467	236
557.942	258
560.417	256
562.892	234
565.365	258
567.838	248
570.309	250
572.78	254
575.251	258
577.72	250
580.189	256
582.656	234
585.123	224
587.589	202
590.055	224
592.52	208
594.983	218
597.446	214
599.908	218
602.369	226
604.829	238
607.289	258
609.747	266
612.205	276
614.663	314
617.119	406
619.574	722
622.029	1102
624.483	960
626.936	528
629.389	338
631.84	250
634.291	246
636.741	222
639.19	190
641.639	198
644.086	204
646.533	178
648.979	162
651.424	176
653.869	162
656.313	176
658.754	166
661.196	166
663.638	172
666.078	162
668.518	150
670.957	160
673.394	168
675.831	162
678.268	168
680.703	156
683.137	148
685.571	158
688.005	152
690.437	170
692.868	176
695.299	176
697.729	184
700.159	200
702.586	208
705.014	208
707.441	204
709.866	196
712.292	198
714.716	218
717.14	198
719.563	218
721.984	260
724.406	294
726.825	316
729.246	292
731.665	254
734.082	268
736.5	286
738.916	310
741.332	358
743.746	376
746.161	380
748.574	376
750.987	406
753.398	402
755.81	438
758.219	456
760.629	502
763.037	460
765.445	454
767.852	460
770.258	432
772.664	424
775.068	404
777.472	422
779.876	422
782.278	438
784.679	510
787.08	534
789.48	600
791.879	652
794.278	680
796.675	706
799.072	682
801.467	612
803.864	524
806.258	480
808.651	406
811.044	386
813.437	370
815.828	334
818.218	296
820.608	298
822.997	246
825.385	274
827.773	236
830.16	258
832.546	266
834.931	280
837.315	320
839.699	342
842.081	374
844.463	380
846.844	352
849.226	336
851.606	320
853.985	288
856.363	298
858.741	292
861.117	284
863.493	294
865.868	284
868.243	304
870.616	286
872.989	288
875.36	278
877.731	292
880.102	264
882.472	264
884.841	276
887.209	280
889.577	246
891.944	276
894.31	272
896.674	286
899.039	282
901.403	310
903.766	334
906.128	348
908.49	336
910.849	324
913.209	306
915.569	286
917.927	270
920.284	244
922.641	240
924.997	252
927.353	234
929.707	244
932.061	252
934.414	232
936.765	234
939.117	240
941.469	254
943.818	252
946.167	270
948.515	256
950.863	270
953.211	284
955.556	262
957.902	258
960.246	276
962.59	272
964.933	316
967.276	318
969.617	326
971.958	310
974.298	320
976.638	346
978.976	398
981.314	442
983.651	504
985.988	606
988.323	772
990.659	1140
992.992	1716
995.325	1864
997.658	2308
999.99	4216
1002.32	6538
1004.65	6092
1006.98	3390
1009.31	1534
1011.64	834
1013.97	576
1016.29	480
1018.62	472
1020.94	506
1023.27	620
1025.59	818
1027.91	1190
1030.24	1628
1032.56	1974
1034.88	1884
1037.2	1380
1039.52	954
1041.84	682
1044.15	548
1046.47	460
1048.79	438
1051.1	388
1053.42	400
1055.73	400
1058.04	376
1060.36	382
1062.67	398
1064.98	392
1067.29	408
1069.6	436
1071.91	422
1074.22	438
1076.52	428
1078.83	414
1081.14	416
1083.44	394
1085.75	412
1088.05	396
1090.35	408
1092.65	412
1094.95	422
1097.26	418
1099.56	436
1101.86	432
1104.15	376
1106.45	370
1108.75	354
1111.05	346
1113.34	326
1115.64	334
1117.93	308
1120.22	316
1122.52	282
1124.81	294
1127.1	252
1129.39	274
1131.68	248
1133.97	246
1136.26	274
1138.54	288
1140.83	316
1143.12	332
1145.4	344
1147.69	410
1149.97	474
1152.25	666
1154.54	880
1156.82	934
1159.1	888
1161.38	678
1163.66	586
1165.94	510
1168.22	488
1170.49	474
1172.77	534
1175.05	630
1177.32	766
1179.6	1006
1181.87	1180
1184.14	1186
1186.42	1106
1188.69	1020
1190.96	1066
1193.23	1148
1195.5	1208
1197.77	1206
1200.03	1194
1202.3	1160
1204.57	1080
1206.83	964
1209.1	806
1211.36	714
1213.63	608
1215.89	550
1218.15	486
1220.41	466
1222.67	460
1224.93	454
1227.19	428
1229.45	418
1231.71	396
1233.97	400
1236.22	348
1238.48	360
1240.73	374
1242.99	358
1245.24	364
1247.5	358
1249.75	366
1252	356
1254.25	368
1256.5	334
1258.75	336
1261	344
1263.25	334
1265.49	352
1267.74	316
1269.99	342
1272.23	346
1274.48	334
1276.72	338
1278.96	344
1281.21	338
1283.45	344
1285.69	356
1287.93	350
1290.17	350
1292.41	360
1294.64	374
1296.88	376
1299.12	398
1301.36	384
1303.59	420
1305.82	400
1308.06	408
1310.29	408
1312.52	412
1314.76	434
1316.99	448
1319.22	478
1321.45	472
1323.68	510
1325.9	546
1328.13	512
1330.36	526
1332.58	520
1334.81	504
1337.04	500
1339.26	450
1341.48	430
1343.71	396
1345.93	384
1348.15	386
1350.37	384
1352.59	370
1354.81	372
1357.03	338
1359.24	370
1361.46	370
1363.68	376
1365.89	370
1368.11	368
1370.32	386
1372.54	372
1374.75	362
1376.96	354
1379.17	360
1381.38	340
1383.59	312
1385.8	314
1388.01	280
1390.22	286
1392.43	272
1394.63	266
1396.84	274
1399.05	266
1401.25	274
1403.45	266
1405.66	258
1407.86	260
1410.06	250
1412.26	274
1414.46	246
1416.66	242
1418.86	270
1421.06	258
1423.26	258
1425.46	262
1427.65	262
1429.85	290
1432.04	298
1434.24	324
1436.43	364
1438.62	372
1440.82	438
1443.01	494
1445.2	530
1447.39	602
1449.58	582
1451.77	584
1453.95	576
1456.14	542
1458.33	446
1460.52	364
1462.7	342
1464.89	324
1467.07	290
1469.25	278
1471.44	268
1473.62	286
1475.8	294
1477.98	278
1480.16	270
1482.34	260
1484.52	282
1486.7	282
1488.87	258
1491.05	288
1493.23	270
1495.4	306
1497.58	290
1499.75	272
1501.92	272
1504.1	256
1506.27	262
1508.44	260
1510.61	254
1512.78	262
1514.95	258
1517.12	264
1519.28	240
1521.45	286
1523.62	274
1525.78	250
1527.95	268
1530.11	268
1532.28	254
1534.44	250
1536.6	286
1538.76	286
1540.93	268
1543.09	280
1545.25	282
1547.41	264
1549.56	274
1551.72	270
1553.88	294
1556.03	272
1558.19	272
1560.35	282
1562.5	310
1564.65	302
1566.81	328
1568.96	348
1571.11	342
1573.26	376
1575.41	400
1577.56	452
1579.71	582
1581.86	836
1584.01	990
1586.15	896
1588.3	720
1590.45	584
1592.59	594
1594.74	692
1596.88	900
1599.02	1232
1601.17	1640
1603.31	1856
1605.45	1722
1607.59	1300
1609.73	938
1611.87	668
1614.01	546
1616.14	462
1618.28	434
1620.42	390
1622.55	388
1624.69	366
1626.82	332
1628.96	344
1631.09	300
1633.22	312
1635.36	322
1637.49	310
1639.62	318
1641.75	336
1643.88	314
1646	360
1648.13	332
1650.26	348
1652.39	336
1654.51	318
1656.64	300
1658.76	276
1660.89	304
1663.01	268
1665.13	292
1667.26	282
1669.38	298
1671.5	284
1673.62	286
1675.74	292
1677.86	290
1679.97	280
1682.09	296
1684.21	288
1686.33	302
1688.44	292
1690.56	290
1692.67	284
1694.78	280
1696.9	284
1699.01	276
1701.12	292
1703.23	280
1705.34	274
1707.45	274
1709.56	282
1711.67	272
1713.78	286
1715.88	288
1717.99	278
1720.1	288
1722.2	284
1724.31	274
1726.41	268
1728.51	288
1730.62	274
1732.72	280
1734.82	296
1736.92	296
1739.02	274
1741.12	290
1743.22	262
1745.32	292
1747.42	272
1749.51	290
1751.61	282
1753.7	286
1755.8	292
1757.89	276
1759.99	260
1762.08	268
1764.17	266
1766.26	286
1768.36	278
1770.45	286
1772.54	280
1774.62	276
1776.71	270
1778.8	282
1780.89	264
1782.98	284
1785.06	276
1787.15	298
1789.23	272
1791.32	280
1793.4	288
1795.48	288
1797.56	282
1799.65	292
1801.73	260
1803.81	292
1805.89	288
1807.97	280
1810.04	280
1812.12	292
1814.2	292
1816.28	288
1818.35	274
1820.43	280
1822.5	284
1824.58	290
1826.65	296
1828.72	294
1830.79	286
1832.86	282
1834.94	290
1837.01	304
1839.08	284
1841.15	290
1843.21	272
1845.28	294
1847.35	278
1849.41	296
1851.48	296
1853.55	288
1855.61	290
1857.67	274
1859.74	292
1861.8	298
1863.86	298
1865.92	282
1867.98	282
1870.05	270
1872.1	294
1874.16	306
1876.22	288
1878.28	292
1880.34	276
1882.39	300
1884.45	312
1886.5	298
1888.56	294
1890.61	290
1892.67	288
1894.72	298
1896.77	294
1898.82	298
1900.87	296
1902.92	300
1904.97	302
1907.02	300
1909.07	290
1911.12	316
1913.17	300
1915.21	294
1917.26	300
1919.3	298
1921.35	294
1923.39	306
1925.43	318
1927.48	296
1929.52	284
1931.56	326
1933.6	302
1935.64	312
1937.68	296
1939.72	294
1941.76	284
1943.8	306
1945.83	314
1947.87	296
1949.91	306
1951.94	292
1953.98	312
1956.01	300
1958.05	304
1960.08	298
1962.11	312
1964.14	320
1966.17	312
1968.2	308
1970.23	310
1972.26	290
1974.29	314
1976.32	304
1978.35	302
1980.37	306
1982.4	292
1984.43	310
1986.45	292
1988.48	318
1990.5	296
1992.52	292
1994.55	302
1996.57	294
1998.59	314
2000.61	314
2002.63	310
2004.65	288
2006.67	310
2008.69	274
2010.7	310
2012.72	316
2014.74	312
2016.75	294
2018.77	300
2020.78	298
2022.8	308
2024.81	316
2026.83	316
2028.84	302
2030.85	322
2032.86	308
2034.87	318
2036.88	310
2038.89	308
2040.9	302
2042.91	308
2044.91	314
2046.92	310
2048.93	322
2050.93	324
2052.94	316
2054.94	312
2056.95	302
2058.95	312
2060.95	312
2062.95	322
2064.96	314
2066.96	322
2068.96	308
2070.96	308
2072.96	336
2074.95	308
2076.95	306
2078.95	326
2080.95	324
2082.94	294
2084.94	308
2086.93	316
2088.93	304
2090.92	328
2092.91	324
2094.91	316
2096.9	322
2098.89	316
2100.88	304
2102.87	312
2104.86	298
2106.85	328
2108.84	318
2110.83	318
2112.81	332
2114.8	324
2116.78	322
2118.77	330
2120.75	326
2122.74	314
2124.72	338
2126.71	322
2128.69	312
2130.67	320
2132.65	312
2134.63	324
2136.61	320
2138.59	316
2140.57	322
2142.55	322
2144.53	326
2146.5	310
2148.48	324
2150.46	320
2152.43	320
2154.41	330
2156.38	312
2158.35	314
2160.33	312
2162.3	322
2164.27	314
2166.24	332
2168.21	316
2170.18	320
2172.15	330
2174.12	328
2176.09	328
2178.06	312
2180.03	314
2181.99	326
2183.96	332
2185.92	318
2187.89	318
2189.85	318
2191.82	330
2193.78	324
2195.74	326
2197.7	346
2199.67	330
2201.63	330
2203.59	310
2205.55	340
2207.51	334
2209.46	318
2211.42	326
2213.38	334
2215.34	318
2217.29	328
2219.25	342
2221.2	320
2223.16	328
2225.11	326
2227.06	314
2229.02	324
2230.97	334
2232.92	318
2234.87	320
2236.82	308
2238.77	328
2240.72	300
2242.67	330
2244.62	328
2246.57	334
2248.51	320
2250.46	322
2252.4	312
2254.35	340
2256.29	320
2258.24	322
2260.18	332
2262.13	338
2264.07	338
2266.01	322
2267.95	336
2269.89	334
2271.83	326
2273.77	330
2275.71	324
2277.65	338
2279.58	314
2281.52	326
2283.46	344
2285.4	336
2287.33	352
2289.27	336
2291.2	328
2293.13	314
2295.07	326
2297	330
2298.93	326
2300.86	340
2302.79	326
2304.72	334
2306.65	330
2308.58	338
2310.51	340
2312.44	334
2314.37	332
2316.29	328
2318.22	332
2320.15	334
2322.07	346
2324	332
2325.92	338
2327.84	346
2329.77	330
2331.69	330
2333.61	336
2335.53	340
2337.45	340
2339.37	334
2341.29	340
2343.21	340
2345.13	344
2347.05	344
2348.97	344
2350.88	338
2352.8	348
2354.71	342
2356.63	334
2358.54	332
2360.46	340
2362.37	324
2364.28	336
2366.2	312
2368.11	348
2370.02	350
2371.93	322
2373.84	336
2375.75	332
2377.66	344
2379.57	332
2381.47	328
2383.38	342
2385.29	346
2387.2	338
2389.1	322
2391.01	340
2392.91	346
2394.81	334
2396.72	358
2398.62	338
2400.52	350
2402.42	344
2404.33	342
2406.23	330
2408.13	338
2410.03	334
2411.92	348
2413.82	342
2415.72	328
2417.62	324
2419.51	340
2421.41	354
2423.31	342
2425.2	352
2427.1	340
2428.99	358
2430.88	338
2432.78	342
2434.67	352
2436.56	336
2438.45	334
2440.34	362
2442.23	348
2444.12	336
2446.01	360
2447.9	336
2449.79	354