File: Mixture_Classification/Jesse_Dataset_v2/Pure Raman/Polypropylene oxide/633nm/ps-ppo-7jan25-0,0000-map2_Y10_X09.txt
182.393	666
184.993	660
187.593	612
190.193	598
192.79	572
195.387	568
197.983	524
200.578	496
203.174	486
205.766	500
208.36	482
210.951	466
213.542	426
216.131	428
218.721	460
221.309	486
223.897	546
226.483	690
229.069	906
231.654	1104
234.238	1180
236.821	1194
239.404	1088
241.984	994
244.566	868
247.145	720
249.723	616
252.302	534
254.878	460
257.455	392
260.03	342
262.604	336
265.178	328
267.75	294
270.322	258
272.893	262
275.463	280
278.032	292
280.601	288
283.168	336
285.734	356
288.301	422
290.866	464
293.429	598
295.992	574
298.556	602
301.117	526
303.677	482
306.236	448
308.795	406
311.354	376
313.911	358
316.467	376
319.022	356
321.577	346
324.13	348
326.684	370
329.236	382
331.787	376
334.337	396
336.887	400
339.435	372
341.983	380
344.529	348
347.075	332
349.621	338
352.165	336
354.708	374
357.251	356
359.793	324
362.334	316
364.874	314
367.413	332
369.951	322
372.489	330
375.026	326
377.562	322
380.097	288
382.631	272
385.164	260
387.697	234
390.229	270
392.76	228
395.29	224
397.819	234
400.346	248
402.873	236
405.4	242
407.926	270
410.451	314
412.976	362
415.499	340
418.02	324
420.542	302
423.063	288
425.583	254
428.101	224
430.619	224
433.137	214
435.654	198
438.169	194
440.684	182
443.198	174
445.712	170
448.223	178
450.735	164
453.246	182
455.755	190
458.264	168
460.771	182
463.279	186
465.786	200
468.291	224
470.796	274
473.301	302
475.803	358
478.306	362
480.807	444
483.308	474
485.807	488
488.307	430
490.804	364
493.302	306
495.798	272
498.294	254
500.788	212
503.283	214
505.775	238
508.269	254
510.759	318
513.251	380
515.74	346
518.23	328
520.718	294
523.204	288
525.692	320
528.177	382
530.663	436
533.147	558
535.629	644
538.113	760
540.594	764
543.074	668
545.555	540
548.034	448
550.512	396
552.989	392
555.467	406
557.942	508
560.417	630
562.892	920
565.365	1542
567.838	2466
570.309	3506
572.78	3542
575.251	2532
577.72	1512
580.189	932
582.656	716
585.123	620
587.589	588
590.055	534
592.52	470
594.983	512
597.446	434
599.908	374
602.369	312
604.829	274
607.289	220
609.747	224
612.205	232
614.663	212
617.119	216
619.574	240
622.029	230
624.483	248
626.936	268
629.389	274
631.84	296
634.291	312
636.741	314
639.19	302
641.639	286
644.086	248
646.533	260
648.979	228
651.424	222
653.869	202
656.313	208
658.754	176
661.196	186
663.638	198
666.078	176
668.518	160
670.957	164
673.394	162
675.831	164
678.268	158
680.703	166
683.137	170
685.571	178
688.005	174
690.437	174
692.868	176
695.299	182
697.729	166
700.159	182
702.586	182
705.014	176
707.441	206
709.866	206
712.292	236
714.716	240
717.14	230
719.563	224
721.984	206
724.406	224
726.825	212
729.246	192
731.665	218
734.082	198
736.5	190
738.916	228
741.332	254
743.746	278
746.161	296
748.574	312
750.987	294
753.398	302
755.81	270
758.219	250
760.629	218
763.037	200
765.445	186
767.852	188
770.258	190
772.664	208
775.068	208
777.472	226
779.876	218
782.278	222
784.679	200
787.08	206
789.48	192
791.879	188
794.278	206
796.675	186
799.072	208
801.467	200
803.864	184
806.258	184
808.651	232
811.044	216
813.437	204
815.828	214
818.218	210
820.608	236
822.997	284
825.385	324
827.773	474
830.16	760
832.546	1106
834.931	1094
837.315	676
839.699	390
842.081	300
844.463	260
846.844	262
849.226	254
851.606	244
853.985	228
856.363	258
858.741	240
861.117	222
863.493	216
865.868	210
868.243	218
870.616	192
872.989	196
875.36	184
877.731	198
880.102	180
882.472	190
884.841	196
887.209	186
889.577	192
891.944	174
894.31	194
896.674	192
899.039	166
901.403	192
903.766	180
906.128	198
908.49	170
910.849	200
913.209	188
915.569	172
917.927	172
920.284	200
922.641	174
924.997	188
927.353	190
929.707	208
932.061	182
934.414	206
936.765	204
939.117	222
941.469	228
943.818	252
946.167	288
948.515	314
950.863	414
953.211	520
955.556	664
957.902	790
960.246	944
962.59	846
964.933	736
967.276	618
969.617	528
971.958	444
974.298	364
976.638	276
978.976	252
981.314	264
983.651	222
985.988	228
988.323	212
990.659	216
992.992	230
995.325	212
997.658	216
999.99	200
1002.32	214
1004.65	206
1006.98	200
1009.31	188
1011.64	198
1013.97	204
1016.29	226
1018.62	234
1020.94	210
1023.27	244
1025.59	252
1027.91	268
1030.24	290
1032.56	262
1034.88	284
1037.2	278
1039.52	280
1041.84	240
1044.15	274
1046.47	238
1048.79	218
1051.1	202
1053.42	204
1055.73	224
1058.04	202
1060.36	214
1062.67	220
1064.98	204
1067.29	198
1069.6	204
1071.91	204
1074.22	200
1076.52	206
1078.83	216
1081.14	188
1083.44	204
1085.75	198
1088.05	208
1090.35	206
1092.65	202
1094.95	216
1097.26	222
1099.56	238
1101.86	238
1104.15	284
1106.45	366
1108.75	546
1111.05	758
1113.34	926
1115.64	722
1117.93	508
1120.22	392
1122.52	322
1124.81	294
1127.1	270
1129.39	256
1131.68	272
1133.97	232
1136.26	250
1138.54	236
1140.83	254
1143.12	258
1145.4	230
1147.69	228
1149.97	208
1152.25	232
1154.54	218
1156.82	244
1159.1	278
1161.38	272
1163.66	286
1165.94	270
1168.22	242
1170.49	254
1172.77	254
1175.05	270
1177.32	292
1179.6	342
1181.87	418
1184.14	518
1186.42	610
1188.69	590
1190.96	508
1193.23	452
1195.5	418
1197.77	400
1200.03	404
1202.3	468
1204.57	446
1206.83	440
1209.1	370
1211.36	300
1213.63	250
1215.89	264
1218.15	254
1220.41	242
1222.67	250
1224.93	278
1227.19	314
1229.45	340
1231.71	352
1233.97	312
1236.22	274
1238.48	246
1240.73	236
1242.99	248
1245.24	230
1247.5	230
1249.75	220
1252	218
1254.25	230
1256.5	238
1258.75	246
1261	248
1263.25	248
1265.49	250
1267.74	230
1269.99	252
1272.23	254
1274.48	280
1276.72	276
1278.96	288
1281.21	318
1283.45	356
1285.69	372
1287.93	374
1290.17	436
1292.41	484
1294.64	594
1296.88	730
1299.12	1078
1301.36	1482
1303.59	1980
1305.82	2144
1308.06	1786
1310.29	1300
1312.52	928
1314.76	726
1316.99	620
1319.22	542
1321.45	478
1323.68	470
1325.9	462
1328.13	448
1330.36	438
1332.58	436
1334.81	362
1337.04	318
1339.26	332
1341.48	336
1343.71	354
1345.93	342
1348.15	378
1350.37	372
1352.59	390
1354.81	374
1357.03	320
1359.24	336
1361.46	304
1363.68	308
1365.89	322
1368.11	356
1370.32	422
1372.54	510
1374.75	732
1376.96	866
1379.17	1072
1381.38	998
1383.59	856
1385.8	686
1388.01	510
1390.22	408
1392.43	340
1394.63	300
1396.84	270
1399.05	274
1401.25	278
1403.45	266
1405.66	254
1407.86	278
1410.06	290
1412.26	300
1414.46	300
1416.66	308
1418.86	328
1421.06	374
1423.26	404
1425.46	392
1427.65	410
1429.85	446
1432.04	442
1434.24	444
1436.43	462
1438.62	504
1440.82	484
1443.01	496
1445.2	466
1447.39	456
1449.58	406
1451.77	416
1453.95	394
1456.14	374
1458.33	388
1460.52	390
1462.7	370
1464.89	364
1467.07	360
1469.25	352
1471.44	370
1473.62	360
1475.8	358
1477.98	368
1480.16	362
1482.34	332
1484.52	316
1486.7	326
1488.87	300
1491.05	308
1493.23	272
1495.4	284
1497.58	270
1499.75	284
1501.92	276
1504.1	270
1506.27	300
1508.44	270
1510.61	278
1512.78	276
1514.95	276
1517.12	278
1519.28	264
1521.45	260
1523.62	276
1525.78	284
1527.95	278
1530.11	272
1532.28	272
1534.44	248
1536.6	278
1538.76	258
1540.93	272
1543.09	310
1545.25	288
1547.41	272
1549.56	264
1551.72	284
1553.88	284
1556.03	312
1558.19	314
1560.35	292
1562.5	298
1564.65	318
1566.81	298
1568.96	318
1571.11	340
1573.26	360
1575.41	364
1577.56	404
1579.71	426
1581.86	462
1584.01	510
1586.15	552
1588.3	634
1590.45	752
1592.59	866
1594.74	1004
1596.88	1162
1599.02	1302
1601.17	1430
1603.31	1396
1605.45	1396
1607.59	1252
1609.73	1118
1611.87	936
1614.01	864
1616.14	756
1618.28	624
1620.42	538
1622.55	408
1624.69	402
1626.82	350
1628.96	328
1631.09	316
1633.22	286
1635.36	282
1637.49	290
1639.62	262
1641.75	254
1643.88	266
1646	256
1648.13	258
1650.26	250
1652.39	244
1654.51	248
1656.64	248
1658.76	244
1660.89	240
1663.01	224
1665.13	224
1667.26	242
1669.38	238
1671.5	242
1673.62	240
1675.74	230
1677.86	238
1679.97	242
1682.09	246
1684.21	240
1686.33	232
1688.44	250
1690.56	260
1692.67	262
1694.78	270
1696.9	248
1699.01	238
1701.12	240
1703.23	258
1705.34	252
1707.45	230
1709.56	238
1711.67	240
1713.78	238
1715.88	224
1717.99	246
1720.1	228
1722.2	226
1724.31	218
1726.41	232
1728.51	240
1730.62	220
1732.72	236
1734.82	224
1736.92	208
1739.02	220
1741.12	226
1743.22	216
1745.32	226
1747.42	216
1749.51	214
1751.61	224
1753.7	232
1755.8	228
1757.89	234
1759.99	232
1762.08	212
1764.17	212
1766.26	214
1768.36	224
1770.45	214
1772.54	220
1774.62	220
1776.71	230
1778.8	218
1780.89	228
1782.98	208
1785.06	214
1787.15	226
1789.23	222
1791.32	210
1793.4	234
1795.48	220
1797.56	224
1799.65	222
1801.73	222
1803.81	214
1805.89	206
1807.97	212
1810.04	220
1812.12	208
1814.2	204
1816.28	210
1818.35	212
1820.43	208
1822.5	226
1824.58	214
1826.65	204
1828.72	214
1830.79	226
1832.86	226
1834.94	218
1837.01	212
1839.08	220
1841.15	200
1843.21	198
1845.28	200
1847.35	210
1849.41	206
1851.48	216
1853.55	208
1855.61	214
1857.67	226
1859.74	224
1861.8	216
1863.86	212
1865.92	210
1867.98	192
1870.05	208
1872.1	220
1874.16	216
1876.22	216
1878.28	216
1880.34	214
1882.39	188
1884.45	220
1886.5	238
1888.56	216
1890.61	220
1892.67	240
1894.72	228
1896.77	212
1898.82	236
1900.87	220
1902.92	228
1904.97	212
1907.02	216
1909.07	226
1911.12	214
1913.17	218
1915.21	210
1917.26	206
1919.3	228
1921.35	222
1923.39	214
1925.43	220
1927.48	230
1929.52	216
1931.56	228
1933.6	220
1935.64	214
1937.68	222
1939.72	222
1941.76	204
1943.8	220
1945.83	222
1947.87	210
1949.91	204
1951.94	210
1953.98	224
1956.01	200
1958.05	204
1960.08	210
1962.11	206
1964.14	212
1966.17	212
1968.2	212
1970.23	210
1972.26	214
1974.29	220
1976.32	212
1978.35	216
1980.37	214
1982.4	212
1984.43	216
1986.45	208
1988.48	224
1990.5	218
1992.52	208
1994.55	232
1996.57	220
1998.59	222
2000.61	218
2002.63	218
2004.65	224
2006.67	212
2008.69	206
2010.7	220
2012.72	244
2014.74	212
2016.75	238
2018.77	222
2020.78	204
2022.8	214
2024.81	204
2026.83	220
2028.84	214
2030.85	222
2032.86	218
2034.87	208
2036.88	216
2038.89	206
2040.9	202
2042.91	218
2044.91	240
2046.92	216
2048.93	208
2050.93	224
2052.94	218
2054.94	204
2056.95	216
2058.95	212
2060.95	230
2062.95	222
2064.96	220
2066.96	214
2068.96	220
2070.96	204
2072.96	232
2074.95	206
2076.95	210
2078.95	210
2080.95	208
2082.94	214
2084.94	208
2086.93	216
2088.93	220
2090.92	218
2092.91	206
2094.91	204
2096.9	214
2098.89	234
2100.88	208
2102.87	218
2104.86	224
2106.85	210
2108.84	202
2110.83	200
2112.81	228
2114.8	216
2116.78	202
2118.77	210
2120.75	218
2122.74	218
2124.72	216
2126.71	220
2128.69	228
2130.67	210
2132.65	210
2134.63	228
2136.61	214
2138.59	208
2140.57	214
2142.55	210
2144.53	220
2146.5	212
2148.48	216
2150.46	226
2152.43	218
2154.41	206
2156.38	212
2158.35	220
2160.33	218
2162.3	216
2164.27	214
2166.24	220
2168.21	204
2170.18	206
2172.15	206
2174.12	204
2176.09	216
2178.06	216
2180.03	204
2181.99	196
2183.96	212
2185.92	208
2187.89	206
2189.85	218
2191.82	230
2193.78	210
2195.74	198
2197.7	198
2199.67	198
2201.63	206
2203.59	206
2205.55	218
2207.51	198
2209.46	212
2211.42	210
2213.38	196
2215.34	212
2217.29	208
2219.25	202
2221.2	202
2223.16	206
2225.11	226
2227.06	216
2229.02	200
2230.97	216
2232.92	198
2234.87	226
2236.82	210
2238.77	212
2240.72	222
2242.67	214
2244.62	206
2246.57	206
2248.51	190
2250.46	216
2252.4	220
2254.35	222
2256.29	202
2258.24	208
2260.18	196
2262.13	218
2264.07	216
2266.01	210
2267.95	214
2269.89	208
2271.83	222
2273.77	210
2275.71	212
2277.65	212
2279.58	206
2281.52	206
2283.46	200
2285.4	216
2287.33	212
2289.27	196
2291.2	222
2293.13	208
2295.07	210
2297	222
2298.93	222
2300.86	214
2302.79	214
2304.72	210
2306.65	228
2308.58	220
2310.51	212
2312.44	206
2314.37	216
2316.29	208
2318.22	224
2320.15	226
2322.07	214
2324	240
2325.92	210
2327.84	210
2329.77	222
2331.69	220
2333.61	224
2335.53	224
2337.45	222
2339.37	216
2341.29	216
2343.21	208
2345.13	206
2347.05	198
2348.97	218
2350.88	198
2352.8	232
2354.71	212
2356.63	216
2358.54	204
2360.46	212
2362.37	206
2364.28	206
2366.2	202
2368.11	194
2370.02	204
2371.93	216
2373.84	218
2375.75	208
2377.66	214
2379.57	210
2381.47	212
2383.38	204
2385.29	220
2387.2	218
2389.1	206
2391.01	224
2392.91	228
2394.81	232
2396.72	226
2398.62	210
2400.52	214
2402.42	208
2404.33	228
2406.23	222
2408.13	228
2410.03	222
2411.92	224
2413.82	208
2415.72	226
2417.62	218
2419.51	198
2421.41	200
2423.31	206
2425.2	210
2427.1	192
2428.99	216
2430.88	208
2432.78	230
2434.67	200
2436.56	218
2438.45	220
2440.34	212
2442.23	210
2444.12	214
2446.01	224
2447.9	210
2449.79	204