File: Mixture_Classification/Jesse_Dataset_v2/Pure Raman/Polypropylene oxide/633nm/ps-ppo-7jan25-0,0000-map2_Y01_X10.txt
182.393	744
184.993	706
187.593	664
190.193	660
192.79	646
195.387	628
197.983	572
200.578	566
203.174	558
205.766	516
208.36	500
210.951	516
213.542	470
216.131	474
218.721	510
221.309	554
223.897	660
226.483	774
229.069	972
231.654	1234
234.238	1348
236.821	1308
239.404	1170
241.984	1030
244.566	902
247.145	816
249.723	684
252.302	574
254.878	496
257.455	432
260.03	366
262.604	348
265.178	364
267.75	336
270.322	306
272.893	314
275.463	304
278.032	318
280.601	334
283.168	354
285.734	408
288.301	482
290.866	578
293.429	638
295.992	652
298.556	636
301.117	598
303.677	526
306.236	514
308.795	442
311.354	438
313.911	414
316.467	400
319.022	406
321.577	388
324.13	394
326.684	416
329.236	422
331.787	396
334.337	424
336.887	436
339.435	436
341.983	402
344.529	412
347.075	354
349.621	392
352.165	394
354.708	380
357.251	388
359.793	398
362.334	354
364.874	364
367.413	360
369.951	352
372.489	376
375.026	370
377.562	354
380.097	322
382.631	278
385.164	288
387.697	282
390.229	268
392.76	264
395.29	262
397.819	250
400.346	276
402.873	280
405.4	294
407.926	314
410.451	358
412.976	374
415.499	390
418.02	384
420.542	328
423.063	304
425.583	286
428.101	270
430.619	242
433.137	218
435.654	222
438.169	216
440.684	196
443.198	180
445.712	192
448.223	192
450.735	198
453.246	196
455.755	216
458.264	198
460.771	182
463.279	226
465.786	242
468.291	262
470.796	312
473.301	330
475.803	374
478.306	428
480.807	468
483.308	530
485.807	542
488.307	492
490.804	386
493.302	320
495.798	304
498.294	268
500.788	244
503.283	252
505.775	264
508.269	288
510.759	342
513.251	466
515.74	396
518.23	338
520.718	318
523.204	328
525.692	354
528.177	408
530.663	480
533.147	578
535.629	720
538.113	852
540.594	786
543.074	746
545.555	598
548.034	492
550.512	424
552.989	412
555.467	460
557.942	570
560.417	726
562.892	1072
565.365	1692
567.838	2776
570.309	3792
572.78	3798
575.251	2666
577.72	1582
580.189	974
582.656	736
585.123	670
587.589	634
590.055	582
592.52	558
594.983	528
597.446	488
599.908	430
602.369	366
604.829	318
607.289	270
609.747	258
612.205	244
614.663	242
617.119	264
619.574	264
622.029	286
624.483	268
626.936	300
629.389	334
631.84	338
634.291	364
636.741	358
639.19	326
641.639	306
644.086	302
646.533	278
648.979	260
651.424	256
653.869	232
656.313	242
658.754	208
661.196	226
663.638	194
666.078	188
668.518	200
670.957	200
673.394	194
675.831	190
678.268	188
680.703	188
683.137	182
685.571	198
688.005	188
690.437	200
692.868	202
695.299	194
697.729	192
700.159	202
702.586	186
705.014	216
707.441	226
709.866	228
712.292	252
714.716	280
717.14	258
719.563	252
721.984	240
724.406	222
726.825	230
729.246	240
731.665	232
734.082	238
736.5	240
738.916	242
741.332	264
743.746	290
746.161	346
748.574	364
750.987	354
753.398	344
755.81	306
758.219	276
760.629	244
763.037	244
765.445	214
767.852	212
770.258	210
772.664	224
775.068	230
777.472	234
779.876	250
782.278	232
784.679	248
787.08	226
789.48	222
791.879	214
794.278	210
796.675	214
799.072	222
801.467	224
803.864	244
806.258	252
808.651	230
811.044	248
813.437	252
815.828	254
818.218	244
820.608	252
822.997	304
825.385	388
827.773	510
830.16	840
832.546	1218
834.931	1160
837.315	696
839.699	436
842.081	356
844.463	294
846.844	314
849.226	286
851.606	292
853.985	294
856.363	288
858.741	272
861.117	236
863.493	232
865.868	250
868.243	222
870.616	216
872.989	212
875.36	222
877.731	222
880.102	208
882.472	218
884.841	198
887.209	208
889.577	230
891.944	192
894.31	226
896.674	196
899.039	194
901.403	228
903.766	204
906.128	216
908.49	190
910.849	196
913.209	206
915.569	200
917.927	206
920.284	216
922.641	202
924.997	214
927.353	216
929.707	212
932.061	230
934.414	222
936.765	246
939.117	240
941.469	254
943.818	274
946.167	310
948.515	388
950.863	466
953.211	564
955.556	766
957.902	860
960.246	970
962.59	936
964.933	828
967.276	682
969.617	598
971.958	488
974.298	414
976.638	342
978.976	288
981.314	266
983.651	270
985.988	246
988.323	232
990.659	256
992.992	254
995.325	248
997.658	238
999.99	222
1002.32	240
1004.65	230
1006.98	240
1009.31	228
1011.64	238
1013.97	232
1016.29	250
1018.62	262
1020.94	248
1023.27	294
1025.59	270
1027.91	290
1030.24	302
1032.56	326
1034.88	316
1037.2	318
1039.52	300
1041.84	290
1044.15	270
1046.47	286
1048.79	254
1051.1	254
1053.42	234
1055.73	244
1058.04	248
1060.36	244
1062.67	228
1064.98	246
1067.29	226
1069.6	248
1071.91	242
1074.22	250
1076.52	226
1078.83	228
1081.14	236
1083.44	204
1085.75	242
1088.05	232
1090.35	246
1092.65	236
1094.95	248
1097.26	250
1099.56	262
1101.86	278
1104.15	336
1106.45	428
1108.75	616
1111.05	888
1113.34	986
1115.64	768
1117.93	552
1120.22	408
1122.52	354
1124.81	322
1127.1	300
1129.39	290
1131.68	262
1133.97	258
1136.26	278
1138.54	276
1140.83	280
1143.12	282
1145.4	288
1147.69	258
1149.97	254
1152.25	254
1154.54	262
1156.82	284
1159.1	300
1161.38	314
1163.66	314
1165.94	300
1168.22	292
1170.49	298
1172.77	290
1175.05	314
1177.32	350
1179.6	408
1181.87	458
1184.14	614
1186.42	662
1188.69	648
1190.96	576
1193.23	462
1195.5	448
1197.77	486
1200.03	482
1202.3	502
1204.57	502
1206.83	478
1209.1	398
1211.36	340
1213.63	302
1215.89	278
1218.15	278
1220.41	306
1222.67	298
1224.93	316
1227.19	326
1229.45	360
1231.71	386
1233.97	312
1236.22	326
1238.48	278
1240.73	254
1242.99	276
1245.24	256
1247.5	260
1249.75	262
1252	256
1254.25	252
1256.5	264
1258.75	262
1261	276
1263.25	268
1265.49	276
1267.74	302
1269.99	288
1272.23	286
1274.48	290
1276.72	314
1278.96	352
1281.21	366
1283.45	406
1285.69	418
1287.93	474
1290.17	464
1292.41	546
1294.64	626
1296.88	868
1299.12	1158
1301.36	1642
1303.59	2088
1305.82	2282
1308.06	1970
1310.29	1364
1312.52	978
1314.76	760
1316.99	660
1319.22	594
1321.45	540
1323.68	536
1325.9	514
1328.13	518
1330.36	488
1332.58	440
1334.81	404
1337.04	396
1339.26	408
1341.48	378
1343.71	396
1345.93	392
1348.15	432
1350.37	430
1352.59	434
1354.81	402
1357.03	392
1359.24	372
1361.46	348
1363.68	354
1365.89	348
1368.11	408
1370.32	462
1372.54	594
1374.75	788
1376.96	1010
1379.17	1162
1381.38	1068
1383.59	964
1385.8	776
1388.01	572
1390.22	444
1392.43	378
1394.63	346
1396.84	298
1399.05	300
1401.25	308
1403.45	306
1405.66	304
1407.86	304
1410.06	306
1412.26	332
1414.46	344
1416.66	372
1418.86	390
1421.06	402
1423.26	438
1425.46	430
1427.65	492
1429.85	494
1432.04	480
1434.24	516
1436.43	520
1438.62	526
1440.82	544
1443.01	528
1445.2	506
1447.39	500
1449.58	462
1451.77	462
1453.95	426
1456.14	424
1458.33	424
1460.52	410
1462.7	414
1464.89	380
1467.07	418
1469.25	400
1471.44	408
1473.62	412
1475.8	402
1477.98	406
1480.16	368
1482.34	384
1484.52	370
1486.7	328
1488.87	366
1491.05	332
1493.23	346
1495.4	334
1497.58	324
1499.75	318
1501.92	302
1504.1	300
1506.27	308
1508.44	318
1510.61	320
1512.78	308
1514.95	302
1517.12	304
1519.28	294
1521.45	322
1523.62	312
1525.78	308
1527.95	310
1530.11	328
1532.28	282
1534.44	314
1536.6	324
1538.76	326
1540.93	314
1543.09	296
1545.25	304
1547.41	318
1549.56	308
1551.72	298
1553.88	296
1556.03	324
1558.19	320
1560.35	324
1562.5	340
1564.65	342
1566.81	342
1568.96	346
1571.11	374
1573.26	396
1575.41	388
1577.56	426
1579.71	454
1581.86	492
1584.01	556
1586.15	622
1588.3	684
1590.45	834
1592.59	944
1594.74	1032
1596.88	1296
1599.02	1418
1601.17	1550
1603.31	1554
1605.45	1444
1607.59	1322
1609.73	1230
1611.87	1048
1614.01	904
1616.14	790
1618.28	692
1620.42	584
1622.55	498
1624.69	416
1626.82	406
1628.96	368
1631.09	360
1633.22	346
1635.36	318
1637.49	306
1639.62	308
1641.75	292
1643.88	286
1646	254
1648.13	268
1650.26	280
1652.39	278
1654.51	266
1656.64	272
1658.76	274
1660.89	276
1663.01	242
1665.13	250
1667.26	266
1669.38	274
1671.5	258
1673.62	262
1675.74	252
1677.86	254
1679.97	266
1682.09	256
1684.21	242
1686.33	262
1688.44	312
1690.56	288
1692.67	288
1694.78	306
1696.9	286
1699.01	288
1701.12	268
1703.23	278
1705.34	286
1707.45	276
1709.56	272
1711.67	260
1713.78	264
1715.88	268
1717.99	282
1720.1	250
1722.2	268
1724.31	254
1726.41	248
1728.51	254
1730.62	252
1732.72	252
1734.82	264
1736.92	240
1739.02	236
1741.12	242
1743.22	238
1745.32	248
1747.42	248
1749.51	244
1751.61	262
1753.7	242
1755.8	234
1757.89	262
1759.99	260
1762.08	238
1764.17	242
1766.26	256
1768.36	220
1770.45	242
1772.54	240
1774.62	242
1776.71	258
1778.8	246
1780.89	236
1782.98	238
1785.06	238
1787.15	242
1789.23	246
1791.32	248
1793.4	252
1795.48	244
1797.56	242
1799.65	248
1801.73	248
1803.81	224
1805.89	220
1807.97	240
1810.04	228
1812.12	228
1814.2	238
1816.28	238
1818.35	224
1820.43	260
1822.5	238
1824.58	228
1826.65	248
1828.72	240
1830.79	236
1832.86	232
1834.94	244
1837.01	236
1839.08	222
1841.15	236
1843.21	230
1845.28	242
1847.35	234
1849.41	246
1851.48	244
1853.55	226
1855.61	242
1857.67	238
1859.74	234
1861.8	222
1863.86	222
1865.92	234
1867.98	246
1870.05	234
1872.1	232
1874.16	242
1876.22	238
1878.28	244
1880.34	236
1882.39	228
1884.45	242
1886.5	248
1888.56	256
1890.61	252
1892.67	240
1894.72	250
1896.77	238
1898.82	236
1900.87	242
1902.92	236
1904.97	242
1907.02	238
1909.07	226
1911.12	234
1913.17	226
1915.21	244
1917.26	240
1919.3	240
1921.35	236
1923.39	222
1925.43	246
1927.48	228
1929.52	234
1931.56	214
1933.6	232
1935.64	240
1937.68	232
1939.72	228
1941.76	248
1943.8	216
1945.83	230
1947.87	242
1949.91	250
1951.94	222
1953.98	232
1956.01	240
1958.05	238
1960.08	220
1962.11	226
1964.14	232
1966.17	254
1968.2	220
1970.23	238
1972.26	240
1974.29	206
1976.32	228
1978.35	242
1980.37	226
1982.4	244
1984.43	238
1986.45	238
1988.48	244
1990.5	240
1992.52	238
1994.55	238
1996.57	236
1998.59	216
2000.61	254
2002.63	228
2004.65	230
2006.67	236
2008.69	240
2010.7	234
2012.72	242
2014.74	222
2016.75	232
2018.77	250
2020.78	232
2022.8	220
2024.81	230
2026.83	238
2028.84	232
2030.85	228
2032.86	230
2034.87	240
2036.88	234
2038.89	232
2040.9	244
2042.91	242
2044.91	232
2046.92	224
2048.93	244
2050.93	226
2052.94	230
2054.94	234
2056.95	222
2058.95	216
2060.95	238
2062.95	228
2064.96	244
2066.96	246
2068.96	242
2070.96	240
2072.96	226
2074.95	234
2076.95	218
2078.95	232
2080.95	234
2082.94	240
2084.94	222
2086.93	234
2088.93	242
2090.92	236
2092.91	226
2094.91	230
2096.9	226
2098.89	224
2100.88	234
2102.87	222
2104.86	228
2106.85	240
2108.84	242
2110.83	238
2112.81	246
2114.8	222
2116.78	228
2118.77	216
2120.75	224
2122.74	232
2124.72	222
2126.71	226
2128.69	222
2130.67	216
2132.65	250
2134.63	228
2136.61	232
2138.59	224
2140.57	228
2142.55	244
2144.53	246
2146.5	228
2148.48	234
2150.46	234
2152.43	212
2154.41	240
2156.38	222
2158.35	218
2160.33	222
2162.3	238
2164.27	226
2166.24	250
2168.21	244
2170.18	252
2172.15	226
2174.12	232
2176.09	222
2178.06	218
2180.03	246
2181.99	236
2183.96	220
2185.92	232
2187.89	230
2189.85	230
2191.82	234
2193.78	224
2195.74	214
2197.7	238
2199.67	244
2201.63	212
2203.59	228
2205.55	222
2207.51	218
2209.46	244
2211.42	224
2213.38	218
2215.34	216
2217.29	236
2219.25	232
2221.2	224
2223.16	224
2225.11	218
2227.06	232
2229.02	230
2230.97	234
2232.92	226
2234.87	228
2236.82	220
2238.77	234
2240.72	238
2242.67	214
2244.62	224
2246.57	252
2248.51	238
2250.46	238
2252.4	232
2254.35	230
2256.29	216
2258.24	240
2260.18	220
2262.13	234
2264.07	236
2266.01	236
2267.95	240
2269.89	208
2271.83	234
2273.77	216
2275.71	210
2277.65	220
2279.58	236
2281.52	236
2283.46	214
2285.4	228
2287.33	226
2289.27	222
2291.2	246
2293.13	228
2295.07	226
2297	222
2298.93	236
2300.86	222
2302.79	232
2304.72	240
2306.65	246
2308.58	234
2310.51	236
2312.44	228
2314.37	228
2316.29	244
2318.22	236
2320.15	238
2322.07	258
2324	240
2325.92	224
2327.84	224
2329.77	234
2331.69	216
2333.61	230
2335.53	224
2337.45	222
2339.37	224
2341.29	234
2343.21	228
2345.13	244
2347.05	224
2348.97	238
2350.88	222
2352.8	236
2354.71	234
2356.63	230
2358.54	236
2360.46	212
2362.37	226
2364.28	238
2366.2	232
2368.11	236
2370.02	242
2371.93	230
2373.84	230
2375.75	226
2377.66	224
2379.57	218
2381.47	226
2383.38	244
2385.29	236
2387.2	232
2389.1	244
2391.01	226
2392.91	220
2394.81	240
2396.72	228
2398.62	250
2400.52	252
2402.42	226
2404.33	236
2406.23	238
2408.13	228
2410.03	226
2411.92	232
2413.82	230
2415.72	230
2417.62	238
2419.51	226
2421.41	216
2423.31	222
2425.2	226
2427.1	228
2428.99	214
2430.88	216
2432.78	214
2434.67	214
2436.56	204
2438.45	222
2440.34	238
2442.23	226
2444.12	238
2446.01	234
2447.9	226
2449.79	228