File: Mixture_Classification/Jesse_Dataset_v2/Pure Raman/Polypropylene oxide/633nm/ps-ppo-7jan25-0,0000-map2_Y01_X04.txt
182.393	686
184.993	662
187.593	654
190.193	642
192.79	622
195.387	578
197.983	578
200.578	542
203.174	508
205.766	522
208.36	502
210.951	490
213.542	462
216.131	446
218.721	482
221.309	536
223.897	620
226.483	752
229.069	948
231.654	1148
234.238	1270
236.821	1258
239.404	1150
241.984	1042
244.566	872
247.145	788
249.723	670
252.302	556
254.878	488
257.455	414
260.03	382
262.604	330
265.178	300
267.75	290
270.322	274
272.893	274
275.463	298
278.032	290
280.601	326
283.168	344
285.734	402
288.301	458
290.866	552
293.429	624
295.992	632
298.556	602
301.117	578
303.677	504
306.236	480
308.795	414
311.354	434
313.911	392
316.467	390
319.022	390
321.577	368
324.13	354
326.684	372
329.236	394
331.787	416
334.337	408
336.887	408
339.435	392
341.983	362
344.529	354
347.075	366
349.621	354
352.165	350
354.708	362
357.251	358
359.793	354
362.334	348
364.874	312
367.413	350
369.951	340
372.489	332
375.026	340
377.562	318
380.097	286
382.631	298
385.164	248
387.697	250
390.229	246
392.76	240
395.29	240
397.819	234
400.346	262
402.873	242
405.4	270
407.926	272
410.451	302
412.976	362
415.499	376
418.02	334
420.542	304
423.063	268
425.583	250
428.101	232
430.619	234
433.137	214
435.654	206
438.169	194
440.684	176
443.198	172
445.712	160
448.223	158
450.735	172
453.246	162
455.755	188
458.264	174
460.771	196
463.279	192
465.786	224
468.291	246
470.796	284
473.301	296
475.803	360
478.306	414
480.807	462
483.308	476
485.807	524
488.307	488
490.804	346
493.302	302
495.798	282
498.294	242
500.788	208
503.283	220
505.775	238
508.269	260
510.759	320
513.251	398
515.74	368
518.23	306
520.718	286
523.204	302
525.692	340
528.177	434
530.663	486
533.147	578
535.629	738
538.113	802
540.594	778
543.074	702
545.555	600
548.034	432
550.512	388
552.989	396
555.467	450
557.942	508
560.417	684
562.892	1034
565.365	1678
567.838	2758
570.309	3788
572.78	3724
575.251	2650
577.72	1574
580.189	956
582.656	688
585.123	660
587.589	614
590.055	532
592.52	504
594.983	488
597.446	462
599.908	388
602.369	320
604.829	274
607.289	246
609.747	228
612.205	234
614.663	224
617.119	236
619.574	208
622.029	242
624.483	256
626.936	266
629.389	296
631.84	298
634.291	324
636.741	320
639.19	298
641.639	296
644.086	274
646.533	242
648.979	226
651.424	224
653.869	228
656.313	204
658.754	204
661.196	200
663.638	178
666.078	178
668.518	166
670.957	158
673.394	168
675.831	174
678.268	176
680.703	168
683.137	164
685.571	174
688.005	162
690.437	174
692.868	162
695.299	178
697.729	162
700.159	174
702.586	174
705.014	180
707.441	194
709.866	228
712.292	236
714.716	252
717.14	224
719.563	236
721.984	216
724.406	204
726.825	198
729.246	208
731.665	198
734.082	216
736.5	218
738.916	222
741.332	246
743.746	288
746.161	310
748.574	344
750.987	312
753.398	286
755.81	280
758.219	240
760.629	224
763.037	196
765.445	204
767.852	196
770.258	188
772.664	214
775.068	218
777.472	206
779.876	220
782.278	208
784.679	224
787.08	210
789.48	206
791.879	206
794.278	184
796.675	196
799.072	190
801.467	182
803.864	198
806.258	202
808.651	222
811.044	206
813.437	200
815.828	210
818.218	228
820.608	240
822.997	264
825.385	342
827.773	490
830.16	814
832.546	1206
834.931	1090
837.315	680
839.699	402
842.081	318
844.463	262
846.844	278
849.226	282
851.606	270
853.985	260
856.363	250
858.741	244
861.117	236
863.493	234
865.868	218
868.243	202
870.616	202
872.989	196
875.36	204
877.731	176
880.102	200
882.472	200
884.841	178
887.209	190
889.577	194
891.944	164
894.31	178
896.674	174
899.039	160
901.403	180
903.766	184
906.128	176
908.49	176
910.849	164
913.209	174
915.569	190
917.927	180
920.284	178
922.641	202
924.997	178
927.353	216
929.707	194
932.061	202
934.414	190
936.765	208
939.117	218
941.469	242
943.818	264
946.167	294
948.515	344
950.863	438
953.211	558
955.556	684
957.902	864
960.246	948
962.59	926
964.933	806
967.276	690
969.617	542
971.958	450
974.298	364
976.638	316
978.976	254
981.314	274
983.651	222
985.988	238
988.323	226
990.659	252
992.992	224
995.325	226
997.658	218
999.99	210
1002.32	194
1004.65	202
1006.98	214
1009.31	214
1011.64	190
1013.97	208
1016.29	214
1018.62	224
1020.94	262
1023.27	268
1025.59	236
1027.91	272
1030.24	272
1032.56	286
1034.88	286
1037.2	282
1039.52	276
1041.84	244
1044.15	238
1046.47	250
1048.79	232
1051.1	214
1053.42	200
1055.73	208
1058.04	206
1060.36	220
1062.67	196
1064.98	208
1067.29	200
1069.6	210
1071.91	202
1074.22	202
1076.52	206
1078.83	206
1081.14	200
1083.44	224
1085.75	218
1088.05	222
1090.35	200
1092.65	228
1094.95	212
1097.26	232
1099.56	220
1101.86	250
1104.15	286
1106.45	386
1108.75	592
1111.05	840
1113.34	934
1115.64	728
1117.93	496
1120.22	388
1122.52	314
1124.81	286
1127.1	282
1129.39	262
1131.68	258
1133.97	266
1136.26	250
1138.54	258
1140.83	274
1143.12	246
1145.4	238
1147.69	234
1149.97	222
1152.25	214
1154.54	242
1156.82	244
1159.1	276
1161.38	278
1163.66	308
1165.94	268
1168.22	264
1170.49	250
1172.77	272
1175.05	272
1177.32	322
1179.6	340
1181.87	468
1184.14	578
1186.42	666
1188.69	630
1190.96	506
1193.23	438
1195.5	398
1197.77	440
1200.03	490
1202.3	456
1204.57	462
1206.83	424
1209.1	376
1211.36	300
1213.63	280
1215.89	276
1218.15	252
1220.41	262
1222.67	266
1224.93	290
1227.19	302
1229.45	360
1231.71	352
1233.97	312
1236.22	286
1238.48	242
1240.73	250
1242.99	262
1245.24	244
1247.5	222
1249.75	226
1252	228
1254.25	228
1256.5	230
1258.75	246
1261	240
1263.25	252
1265.49	250
1267.74	252
1269.99	244
1272.23	260
1274.48	290
1276.72	296
1278.96	326
1281.21	344
1283.45	346
1285.69	354
1287.93	420
1290.17	450
1292.41	530
1294.64	624
1296.88	788
1299.12	1108
1301.36	1614
1303.59	1964
1305.82	2202
1308.06	1838
1310.29	1364
1312.52	922
1314.76	744
1316.99	648
1319.22	564
1321.45	476
1323.68	504
1325.9	486
1328.13	452
1330.36	470
1332.58	402
1334.81	382
1337.04	350
1339.26	322
1341.48	326
1343.71	352
1345.93	376
1348.15	378
1350.37	396
1352.59	388
1354.81	364
1357.03	340
1359.24	344
1361.46	326
1363.68	308
1365.89	332
1368.11	360
1370.32	412
1372.54	520
1374.75	746
1376.96	960
1379.17	1038
1381.38	1020
1383.59	906
1385.8	680
1388.01	544
1390.22	406
1392.43	344
1394.63	314
1396.84	286
1399.05	278
1401.25	276
1403.45	278
1405.66	282
1407.86	258
1410.06	290
1412.26	298
1414.46	312
1416.66	324
1418.86	354
1421.06	382
1423.26	406
1425.46	428
1427.65	418
1429.85	446
1432.04	440
1434.24	458
1436.43	482
1438.62	510
1440.82	524
1443.01	516
1445.2	464
1447.39	450
1449.58	414
1451.77	398
1453.95	422
1456.14	390
1458.33	406
1460.52	396
1462.7	380
1464.89	384
1467.07	364
1469.25	402
1471.44	374
1473.62	386
1475.8	362
1477.98	360
1480.16	366
1482.34	352
1484.52	328
1486.7	308
1488.87	302
1491.05	310
1493.23	308
1495.4	292
1497.58	284
1499.75	304
1501.92	298
1504.1	280
1506.27	294
1508.44	278
1510.61	290
1512.78	268
1514.95	286
1517.12	270
1519.28	276
1521.45	268
1523.62	282
1525.78	276
1527.95	276
1530.11	272
1532.28	268
1534.44	278
1536.6	302
1538.76	298
1540.93	278
1543.09	276
1545.25	296
1547.41	286
1549.56	262
1551.72	270
1553.88	284
1556.03	292
1558.19	318
1560.35	304
1562.5	306
1564.65	316
1566.81	302
1568.96	322
1571.11	328
1573.26	350
1575.41	382
1577.56	408
1579.71	428
1581.86	476
1584.01	520
1586.15	578
1588.3	644
1590.45	790
1592.59	942
1594.74	1092
1596.88	1202
1599.02	1388
1601.17	1504
1603.31	1502
1605.45	1416
1607.59	1320
1609.73	1128
1611.87	992
1614.01	892
1616.14	752
1618.28	622
1620.42	538
1622.55	470
1624.69	410
1626.82	382
1628.96	334
1631.09	312
1633.22	314
1635.36	298
1637.49	282
1639.62	266
1641.75	264
1643.88	286
1646	280
1648.13	242
1650.26	258
1652.39	246
1654.51	264
1656.64	256
1658.76	250
1660.89	238
1663.01	244
1665.13	232
1667.26	214
1669.38	224
1671.5	226
1673.62	260
1675.74	254
1677.86	230
1679.97	254
1682.09	236
1684.21	244
1686.33	238
1688.44	238
1690.56	252
1692.67	238
1694.78	270
1696.9	252
1699.01	260
1701.12	238
1703.23	250
1705.34	250
1707.45	240
1709.56	260
1711.67	260
1713.78	244
1715.88	224
1717.99	238
1720.1	210
1722.2	232
1724.31	224
1726.41	234
1728.51	228
1730.62	222
1732.72	238
1734.82	220
1736.92	216
1739.02	216
1741.12	222
1743.22	230
1745.32	226
1747.42	232
1749.51	230
1751.61	214
1753.7	226
1755.8	196
1757.89	222
1759.99	222
1762.08	222
1764.17	224
1766.26	214
1768.36	222
1770.45	216
1772.54	232
1774.62	210
1776.71	208
1778.8	216
1780.89	226
1782.98	224
1785.06	212
1787.15	212
1789.23	236
1791.32	210
1793.4	206
1795.48	218
1797.56	204
1799.65	246
1801.73	228
1803.81	222
1805.89	208
1807.97	216
1810.04	214
1812.12	208
1814.2	224
1816.28	214
1818.35	210
1820.43	212
1822.5	222
1824.58	218
1826.65	218
1828.72	226
1830.79	216
1832.86	220
1834.94	220
1837.01	206
1839.08	208
1841.15	220
1843.21	210
1845.28	220
1847.35	224
1849.41	210
1851.48	224
1853.55	210
1855.61	218
1857.67	222
1859.74	222
1861.8	214
1863.86	214
1865.92	230
1867.98	220
1870.05	220
1872.1	222
1874.16	212
1876.22	220
1878.28	204
1880.34	228
1882.39	214
1884.45	200
1886.5	236
1888.56	208
1890.61	230
1892.67	212
1894.72	212
1896.77	216
1898.82	234
1900.87	228
1902.92	222
1904.97	216
1907.02	222
1909.07	224
1911.12	226
1913.17	216
1915.21	212
1917.26	230
1919.3	216
1921.35	232
1923.39	226
1925.43	214
1927.48	224
1929.52	214
1931.56	218
1933.6	228
1935.64	226
1937.68	216
1939.72	206
1941.76	220
1943.8	222
1945.83	244
1947.87	222
1949.91	216
1951.94	200
1953.98	222
1956.01	222
1958.05	212
1960.08	222
1962.11	228
1964.14	210
1966.17	214
1968.2	210
1970.23	236
1972.26	234
1974.29	228
1976.32	216
1978.35	216
1980.37	208
1982.4	216
1984.43	222
1986.45	216
1988.48	208
1990.5	214
1992.52	210
1994.55	216
1996.57	214
1998.59	210
2000.61	216
2002.63	228
2004.65	232
2006.67	218
2008.69	206
2010.7	224
2012.72	216
2014.74	238
2016.75	224
2018.77	206
2020.78	218
2022.8	228
2024.81	216
2026.83	212
2028.84	218
2030.85	206
2032.86	228
2034.87	224
2036.88	228
2038.89	222
2040.9	224
2042.91	218
2044.91	214
2046.92	212
2048.93	234
2050.93	234
2052.94	212
2054.94	216
2056.95	236
2058.95	216
2060.95	230
2062.95	232
2064.96	224
2066.96	222
2068.96	228
2070.96	226
2072.96	222
2074.95	218
2076.95	206
2078.95	236
2080.95	218
2082.94	206
2084.94	214
2086.93	206
2088.93	218
2090.92	220
2092.91	212
2094.91	224
2096.9	210
2098.89	218
2100.88	238
2102.87	204
2104.86	212
2106.85	212
2108.84	234
2110.83	224
2112.81	214
2114.8	228
2116.78	226
2118.77	212
2120.75	228
2122.74	222
2124.72	226
2126.71	212
2128.69	214
2130.67	228
2132.65	218
2134.63	224
2136.61	210
2138.59	240
2140.57	216
2142.55	216
2144.53	222
2146.5	216
2148.48	234
2150.46	208
2152.43	216
2154.41	220
2156.38	208
2158.35	220
2160.33	218
2162.3	222
2164.27	222
2166.24	196
2168.21	222
2170.18	228
2172.15	218
2174.12	212
2176.09	206
2178.06	214
2180.03	226
2181.99	206
2183.96	214
2185.92	222
2187.89	212
2189.85	214
2191.82	212
2193.78	210
2195.74	214
2197.7	216
2199.67	212
2201.63	226
2203.59	224
2205.55	212
2207.51	210
2209.46	220
2211.42	222
2213.38	212
2215.34	216
2217.29	206
2219.25	220
2221.2	196
2223.16	202
2225.11	216
2227.06	222
2229.02	216
2230.97	206
2232.92	210
2234.87	212
2236.82	232
2238.77	210
2240.72	238
2242.67	230
2244.62	204
2246.57	228
2248.51	212
2250.46	218
2252.4	218
2254.35	218
2256.29	226
2258.24	236
2260.18	214
2262.13	220
2264.07	222
2266.01	226
2267.95	200
2269.89	238
2271.83	224
2273.77	220
2275.71	224
2277.65	226
2279.58	216
2281.52	220
2283.46	218
2285.4	218
2287.33	212
2289.27	212
2291.2	222
2293.13	212
2295.07	216
2297	210
2298.93	232
2300.86	210
2302.79	206
2304.72	228
2306.65	238
2308.58	244
2310.51	222
2312.44	226
2314.37	228
2316.29	220
2318.22	224
2320.15	230
2322.07	218
2324	224
2325.92	220
2327.84	218
2329.77	238
2331.69	222
2333.61	216
2335.53	216
2337.45	228
2339.37	206
2341.29	228
2343.21	220
2345.13	216
2347.05	226
2348.97	220
2350.88	212
2352.8	220
2354.71	200
2356.63	226
2358.54	226
2360.46	208
2362.37	218
2364.28	222
2366.2	208
2368.11	210
2370.02	218
2371.93	214
2373.84	208
2375.75	238
2377.66	208
2379.57	218
2381.47	212
2383.38	220
2385.29	238
2387.2	208
2389.1	222
2391.01	224
2392.91	226
2394.81	218
2396.72	226
2398.62	234
2400.52	240
2402.42	226
2404.33	218
2406.23	230
2408.13	230
2410.03	238
2411.92	234
2413.82	236
2415.72	206
2417.62	230
2419.51	210
2421.41	208
2423.31	206
2425.2	206
2427.1	218
2428.99	214
2430.88	220
2432.78	224
2434.67	216
2436.56	224
2438.45	216
2440.34	208
2442.23	214
2444.12	206
2446.01	224
2447.9	222
2449.79	224