File: Mixture_Classification/Jesse_Dataset_v2/Pure Raman/Polypropylene oxide/633nm/ps-ppo-7jan25-0,0000-map2_Y01_X02.txt
182.393	690
184.993	706
187.593	642
190.193	616
192.79	602
195.387	602
197.983	568
200.578	532
203.174	556
205.766	514
208.36	486
210.951	478
213.542	456
216.131	468
218.721	480
221.309	534
223.897	624
226.483	758
229.069	996
231.654	1152
234.238	1312
236.821	1302
239.404	1176
241.984	1026
244.566	910
247.145	746
249.723	662
252.302	584
254.878	458
257.455	408
260.03	348
262.604	348
265.178	298
267.75	304
270.322	290
272.893	306
275.463	296
278.032	292
280.601	308
283.168	348
285.734	382
288.301	476
290.866	582
293.429	608
295.992	618
298.556	602
301.117	562
303.677	522
306.236	448
308.795	450
311.354	410
313.911	382
316.467	382
319.022	372
321.577	366
324.13	380
326.684	398
329.236	406
331.787	426
334.337	414
336.887	410
339.435	384
341.983	364
344.529	390
347.075	366
349.621	334
352.165	368
354.708	358
357.251	380
359.793	366
362.334	338
364.874	322
367.413	344
369.951	324
372.489	336
375.026	364
377.562	320
380.097	304
382.631	286
385.164	268
387.697	254
390.229	260
392.76	244
395.29	260
397.819	252
400.346	248
402.873	260
405.4	244
407.926	280
410.451	332
412.976	382
415.499	392
418.02	358
420.542	320
423.063	292
425.583	246
428.101	228
430.619	214
433.137	220
435.654	198
438.169	196
440.684	186
443.198	198
445.712	184
448.223	178
450.735	182
453.246	162
455.755	182
458.264	178
460.771	194
463.279	214
465.786	220
468.291	234
470.796	288
473.301	322
475.803	366
478.306	422
480.807	452
483.308	502
485.807	520
488.307	472
490.804	380
493.302	332
495.798	274
498.294	242
500.788	224
503.283	226
505.775	242
508.269	250
510.759	342
513.251	396
515.74	386
518.23	302
520.718	306
523.204	308
525.692	334
528.177	396
530.663	484
533.147	618
535.629	746
538.113	820
540.594	754
543.074	704
545.555	602
548.034	478
550.512	400
552.989	394
555.467	440
557.942	534
560.417	712
562.892	1048
565.365	1740
567.838	2800
570.309	3776
572.78	3768
575.251	2674
577.72	1582
580.189	932
582.656	736
585.123	660
587.589	622
590.055	548
592.52	532
594.983	504
597.446	480
599.908	418
602.369	310
604.829	264
607.289	250
609.747	224
612.205	216
614.663	224
617.119	212
619.574	230
622.029	238
624.483	264
626.936	270
629.389	300
631.84	318
634.291	324
636.741	336
639.19	318
641.639	288
644.086	282
646.533	248
648.979	248
651.424	230
653.869	228
656.313	216
658.754	194
661.196	204
663.638	186
666.078	180
668.518	184
670.957	170
673.394	172
675.831	176
678.268	176
680.703	170
683.137	178
685.571	182
688.005	176
690.437	176
692.868	186
695.299	174
697.729	180
700.159	178
702.586	164
705.014	198
707.441	220
709.866	214
712.292	240
714.716	244
717.14	252
719.563	242
721.984	200
724.406	218
726.825	208
729.246	204
731.665	210
734.082	220
736.5	220
738.916	250
741.332	246
743.746	286
746.161	296
748.574	348
750.987	302
753.398	298
755.81	314
758.219	246
760.629	218
763.037	204
765.445	214
767.852	196
770.258	190
772.664	208
775.068	222
777.472	226
779.876	230
782.278	224
784.679	214
787.08	216
789.48	218
791.879	182
794.278	194
796.675	204
799.072	184
801.467	208
803.864	200
806.258	214
808.651	220
811.044	236
813.437	214
815.828	216
818.218	232
820.608	254
822.997	284
825.385	360
827.773	510
830.16	830
832.546	1242
834.931	1136
837.315	670
839.699	408
842.081	316
844.463	276
846.844	282
849.226	268
851.606	258
853.985	266
856.363	250
858.741	232
861.117	234
863.493	234
865.868	202
868.243	196
870.616	218
872.989	176
875.36	196
877.731	196
880.102	196
882.472	194
884.841	192
887.209	192
889.577	188
891.944	182
894.31	192
896.674	200
899.039	178
901.403	188
903.766	186
906.128	192
908.49	196
910.849	182
913.209	190
915.569	182
917.927	186
920.284	186
922.641	192
924.997	188
927.353	202
929.707	188
932.061	204
934.414	202
936.765	236
939.117	208
941.469	232
943.818	256
946.167	300
948.515	336
950.863	444
953.211	570
955.556	712
957.902	844
960.246	976
962.59	892
964.933	782
967.276	640
969.617	528
971.958	466
974.298	356
976.638	310
978.976	290
981.314	242
983.651	242
985.988	226
988.323	214
990.659	242
992.992	226
995.325	214
997.658	214
999.99	208
1002.32	212
1004.65	206
1006.98	206
1009.31	202
1011.64	206
1013.97	232
1016.29	226
1018.62	228
1020.94	246
1023.27	240
1025.59	270
1027.91	264
1030.24	264
1032.56	304
1034.88	314
1037.2	274
1039.52	278
1041.84	262
1044.15	266
1046.47	232
1048.79	242
1051.1	234
1053.42	214
1055.73	212
1058.04	200
1060.36	230
1062.67	220
1064.98	202
1067.29	218
1069.6	204
1071.91	214
1074.22	198
1076.52	204
1078.83	218
1081.14	228
1083.44	216
1085.75	214
1088.05	212
1090.35	218
1092.65	218
1094.95	232
1097.26	216
1099.56	246
1101.86	260
1104.15	278
1106.45	378
1108.75	596
1111.05	880
1113.34	914
1115.64	740
1117.93	500
1120.22	386
1122.52	322
1124.81	290
1127.1	282
1129.39	282
1131.68	254
1133.97	252
1136.26	276
1138.54	254
1140.83	256
1143.12	270
1145.4	250
1147.69	228
1149.97	240
1152.25	246
1154.54	234
1156.82	254
1159.1	256
1161.38	290
1163.66	282
1165.94	276
1168.22	254
1170.49	260
1172.77	264
1175.05	286
1177.32	308
1179.6	374
1181.87	476
1184.14	544
1186.42	660
1188.69	614
1190.96	516
1193.23	448
1195.5	430
1197.77	430
1200.03	440
1202.3	480
1204.57	472
1206.83	432
1209.1	352
1211.36	312
1213.63	282
1215.89	270
1218.15	248
1220.41	248
1222.67	240
1224.93	312
1227.19	330
1229.45	364
1231.71	364
1233.97	320
1236.22	262
1238.48	262
1240.73	258
1242.99	236
1245.24	244
1247.5	214
1249.75	242
1252	240
1254.25	234
1256.5	240
1258.75	248
1261	244
1263.25	254
1265.49	258
1267.74	256
1269.99	276
1272.23	252
1274.48	282
1276.72	288
1278.96	312
1281.21	348
1283.45	344
1285.69	400
1287.93	406
1290.17	460
1292.41	514
1294.64	598
1296.88	818
1299.12	1084
1301.36	1630
1303.59	2092
1305.82	2242
1308.06	1822
1310.29	1326
1312.52	930
1314.76	756
1316.99	656
1319.22	558
1321.45	504
1323.68	492
1325.9	496
1328.13	504
1330.36	458
1332.58	424
1334.81	404
1337.04	356
1339.26	338
1341.48	364
1343.71	332
1345.93	366
1348.15	396
1350.37	376
1352.59	406
1354.81	342
1357.03	328
1359.24	322
1361.46	320
1363.68	304
1365.89	312
1368.11	348
1370.32	400
1372.54	532
1374.75	780
1376.96	1018
1379.17	1068
1381.38	1062
1383.59	876
1385.8	738
1388.01	536
1390.22	410
1392.43	374
1394.63	286
1396.84	304
1399.05	296
1401.25	302
1403.45	270
1405.66	256
1407.86	278
1410.06	310
1412.26	298
1414.46	322
1416.66	308
1418.86	334
1421.06	370
1423.26	382
1425.46	420
1427.65	428
1429.85	430
1432.04	454
1434.24	468
1436.43	532
1438.62	526
1440.82	520
1443.01	526
1445.2	506
1447.39	476
1449.58	442
1451.77	396
1453.95	394
1456.14	394
1458.33	398
1460.52	394
1462.7	376
1464.89	374
1467.07	360
1469.25	372
1471.44	364
1473.62	382
1475.8	372
1477.98	360
1480.16	370
1482.34	320
1484.52	344
1486.7	320
1488.87	298
1491.05	302
1493.23	314
1495.4	274
1497.58	272
1499.75	270
1501.92	294
1504.1	292
1506.27	288
1508.44	286
1510.61	280
1512.78	302
1514.95	272
1517.12	276
1519.28	290
1521.45	258
1523.62	286
1525.78	268
1527.95	282
1530.11	294
1532.28	304
1534.44	280
1536.6	288
1538.76	282
1540.93	278
1543.09	286
1545.25	298
1547.41	284
1549.56	302
1551.72	304
1553.88	300
1556.03	308
1558.19	294
1560.35	308
1562.5	298
1564.65	318
1566.81	308
1568.96	298
1571.11	330
1573.26	366
1575.41	378
1577.56	382
1579.71	440
1581.86	462
1584.01	494
1586.15	598
1588.3	644
1590.45	784
1592.59	920
1594.74	1102
1596.88	1228
1599.02	1398
1601.17	1476
1603.31	1496
1605.45	1412
1607.59	1304
1609.73	1154
1611.87	1018
1614.01	914
1616.14	768
1618.28	636
1620.42	530
1622.55	444
1624.69	436
1626.82	368
1628.96	360
1631.09	312
1633.22	296
1635.36	320
1637.49	290
1639.62	274
1641.75	278
1643.88	246
1646	252
1648.13	270
1650.26	248
1652.39	260
1654.51	248
1656.64	268
1658.76	232
1660.89	234
1663.01	248
1665.13	246
1667.26	260
1669.38	248
1671.5	232
1673.62	240
1675.74	232
1677.86	248
1679.97	234
1682.09	246
1684.21	230
1686.33	256
1688.44	250
1690.56	266
1692.67	280
1694.78	250
1696.9	254
1699.01	256
1701.12	238
1703.23	246
1705.34	244
1707.45	238
1709.56	250
1711.67	256
1713.78	252
1715.88	246
1717.99	230
1720.1	236
1722.2	216
1724.31	218
1726.41	230
1728.51	236
1730.62	214
1732.72	208
1734.82	228
1736.92	230
1739.02	226
1741.12	228
1743.22	224
1745.32	216
1747.42	206
1749.51	206
1751.61	212
1753.7	216
1755.8	222
1757.89	222
1759.99	208
1762.08	200
1764.17	224
1766.26	222
1768.36	220
1770.45	226
1772.54	208
1774.62	220
1776.71	224
1778.8	210
1780.89	214
1782.98	212
1785.06	220
1787.15	210
1789.23	220
1791.32	222
1793.4	220
1795.48	242
1797.56	214
1799.65	212
1801.73	210
1803.81	226
1805.89	216
1807.97	218
1810.04	218
1812.12	224
1814.2	204
1816.28	208
1818.35	218
1820.43	226
1822.5	214
1824.58	206
1826.65	218
1828.72	218
1830.79	218
1832.86	224
1834.94	204
1837.01	212
1839.08	202
1841.15	204
1843.21	222
1845.28	222
1847.35	216
1849.41	226
1851.48	220
1853.55	208
1855.61	214
1857.67	212
1859.74	214
1861.8	208
1863.86	212
1865.92	222
1867.98	206
1870.05	208
1872.1	216
1874.16	214
1876.22	214
1878.28	204
1880.34	214
1882.39	218
1884.45	220
1886.5	214
1888.56	212
1890.61	208
1892.67	228
1894.72	234
1896.77	208
1898.82	206
1900.87	196
1902.92	220
1904.97	220
1907.02	210
1909.07	192
1911.12	236
1913.17	208
1915.21	210
1917.26	236
1919.3	224
1921.35	220
1923.39	208
1925.43	226
1927.48	208
1929.52	240
1931.56	214
1933.6	216
1935.64	226
1937.68	212
1939.72	224
1941.76	218
1943.8	216
1945.83	210
1947.87	212
1949.91	222
1951.94	208
1953.98	230
1956.01	204
1958.05	214
1960.08	226
1962.11	218
1964.14	210
1966.17	234
1968.2	190
1970.23	216
1972.26	194
1974.29	198
1976.32	218
1978.35	214
1980.37	216
1982.4	222
1984.43	216
1986.45	214
1988.48	206
1990.5	222
1992.52	220
1994.55	234
1996.57	212
1998.59	206
2000.61	228
2002.63	214
2004.65	196
2006.67	206
2008.69	218
2010.7	214
2012.72	216
2014.74	234
2016.75	224
2018.77	220
2020.78	214
2022.8	220
2024.81	212
2026.83	216
2028.84	218
2030.85	200
2032.86	206
2034.87	228
2036.88	218
2038.89	208
2040.9	222
2042.91	226
2044.91	220
2046.92	208
2048.93	210
2050.93	198
2052.94	210
2054.94	232
2056.95	226
2058.95	210
2060.95	214
2062.95	238
2064.96	208
2066.96	236
2068.96	216
2070.96	220
2072.96	194
2074.95	218
2076.95	230
2078.95	224
2080.95	216
2082.94	204
2084.94	232
2086.93	198
2088.93	214
2090.92	210
2092.91	182
2094.91	218
2096.9	204
2098.89	208
2100.88	214
2102.87	222
2104.86	202
2106.85	210
2108.84	236
2110.83	210
2112.81	214
2114.8	204
2116.78	226
2118.77	220
2120.75	206
2122.74	216
2124.72	216
2126.71	216
2128.69	196
2130.67	216
2132.65	216
2134.63	218
2136.61	206
2138.59	210
2140.57	204
2142.55	228
2144.53	206
2146.5	210
2148.48	204
2150.46	212
2152.43	224
2154.41	202
2156.38	226
2158.35	204
2160.33	208
2162.3	204
2164.27	218
2166.24	222
2168.21	206
2170.18	220
2172.15	222
2174.12	226
2176.09	226
2178.06	226
2180.03	218
2181.99	218
2183.96	210
2185.92	200
2187.89	216
2189.85	216
2191.82	206
2193.78	200
2195.74	212
2197.7	220
2199.67	194
2201.63	212
2203.59	204
2205.55	204
2207.51	210
2209.46	228
2211.42	222
2213.38	212
2215.34	210
2217.29	206
2219.25	190
2221.2	202
2223.16	202
2225.11	202
2227.06	196
2229.02	212
2230.97	212
2232.92	220
2234.87	212
2236.82	202
2238.77	216
2240.72	214
2242.67	218
2244.62	232
2246.57	222
2248.51	206
2250.46	190
2252.4	224
2254.35	218
2256.29	226
2258.24	226
2260.18	220
2262.13	226
2264.07	214
2266.01	220
2267.95	224
2269.89	216
2271.83	218
2273.77	228
2275.71	214
2277.65	212
2279.58	198
2281.52	216
2283.46	196
2285.4	218
2287.33	220
2289.27	220
2291.2	224
2293.13	206
2295.07	200
2297	216
2298.93	204
2300.86	214
2302.79	206
2304.72	234
2306.65	208
2308.58	210
2310.51	218
2312.44	226
2314.37	228
2316.29	210
2318.22	234
2320.15	234
2322.07	238
2324	234
2325.92	214
2327.84	218
2329.77	208
2331.69	222
2333.61	210
2335.53	216
2337.45	216
2339.37	224
2341.29	224
2343.21	230
2345.13	224
2347.05	200
2348.97	212
2350.88	222
2352.8	208
2354.71	196
2356.63	208
2358.54	216
2360.46	218
2362.37	220
2364.28	226
2366.2	206
2368.11	198
2370.02	216
2371.93	220
2373.84	224
2375.75	216
2377.66	226
2379.57	212
2381.47	214
2383.38	212
2385.29	212
2387.2	214
2389.1	218
2391.01	220
2392.91	236
2394.81	206
2396.72	206
2398.62	202
2400.52	230
2402.42	218
2404.33	214
2406.23	228
2408.13	218
2410.03	234
2411.92	226
2413.82	232
2415.72	224
2417.62	216
2419.51	220
2421.41	220
2423.31	216
2425.2	222
2427.1	196
2428.99	218
2430.88	220
2432.78	206
2434.67	204
2436.56	208
2438.45	224
2440.34	210
2442.23	208
2444.12	206
2446.01	212
2447.9	196
2449.79	202