File: Mixture_Classification/Jesse_Dataset_v2/Pure Raman/Polypropylene oxide/633nm/ps-ppo-7jan25-0,0000-map2_Y06_X07.txt
182.393	682
184.993	628
187.593	614
190.193	614
192.79	570
195.387	538
197.983	526
200.578	512
203.174	518
205.766	510
208.36	492
210.951	470
213.542	420
216.131	440
218.721	452
221.309	494
223.897	580
226.483	720
229.069	938
231.654	1122
234.238	1234
236.821	1198
239.404	1160
241.984	996
244.566	866
247.145	740
249.723	610
252.302	534
254.878	482
257.455	384
260.03	350
262.604	314
265.178	288
267.75	286
270.322	290
272.893	266
275.463	258
278.032	274
280.601	290
283.168	320
285.734	364
288.301	454
290.866	520
293.429	566
295.992	610
298.556	602
301.117	550
303.677	472
306.236	444
308.795	424
311.354	406
313.911	364
316.467	360
319.022	338
321.577	340
324.13	368
326.684	376
329.236	378
331.787	402
334.337	400
336.887	382
339.435	356
341.983	348
344.529	312
347.075	356
349.621	338
352.165	362
354.708	338
357.251	360
359.793	322
362.334	324
364.874	310
367.413	320
369.951	320
372.489	336
375.026	324
377.562	294
380.097	260
382.631	264
385.164	242
387.697	216
390.229	226
392.76	216
395.29	228
397.819	218
400.346	232
402.873	228
405.4	258
407.926	254
410.451	304
412.976	344
415.499	342
418.02	350
420.542	306
423.063	258
425.583	264
428.101	204
430.619	190
433.137	200
435.654	190
438.169	180
440.684	166
443.198	176
445.712	178
448.223	160
450.735	164
453.246	136
455.755	142
458.264	152
460.771	162
463.279	184
465.786	204
468.291	222
470.796	240
473.301	284
475.803	300
478.306	396
480.807	436
483.308	492
485.807	484
488.307	426
490.804	344
493.302	288
495.798	270
498.294	230
500.788	208
503.283	192
505.775	228
508.269	252
510.759	308
513.251	378
515.74	350
518.23	308
520.718	276
523.204	274
525.692	314
528.177	380
530.663	452
533.147	570
535.629	674
538.113	748
540.594	742
543.074	640
545.555	562
548.034	424
550.512	362
552.989	380
555.467	418
557.942	488
560.417	638
562.892	986
565.365	1584
567.838	2632
570.309	3638
572.78	3608
575.251	2618
577.72	1522
580.189	912
582.656	688
585.123	618
587.589	580
590.055	520
592.52	478
594.983	472
597.446	446
599.908	368
602.369	318
604.829	248
607.289	220
609.747	212
612.205	204
614.663	194
617.119	206
619.574	212
622.029	222
624.483	232
626.936	228
629.389	282
631.84	284
634.291	304
636.741	318
639.19	290
641.639	272
644.086	246
646.533	240
648.979	232
651.424	220
653.869	186
656.313	188
658.754	184
661.196	186
663.638	182
666.078	162
668.518	164
670.957	156
673.394	150
675.831	156
678.268	158
680.703	168
683.137	150
685.571	158
688.005	152
690.437	162
692.868	162
695.299	138
697.729	158
700.159	162
702.586	154
705.014	160
707.441	178
709.866	182
712.292	214
714.716	266
717.14	216
719.563	208
721.984	192
724.406	198
726.825	194
729.246	176
731.665	190
734.082	212
736.5	196
738.916	204
741.332	216
743.746	250
746.161	304
748.574	316
750.987	292
753.398	260
755.81	278
758.219	244
760.629	212
763.037	192
765.445	182
767.852	186
770.258	188
772.664	186
775.068	190
777.472	198
779.876	204
782.278	196
784.679	204
787.08	186
789.48	190
791.879	174
794.278	174
796.675	190
799.072	180
801.467	166
803.864	186
806.258	192
808.651	186
811.044	192
813.437	204
815.828	182
818.218	206
820.608	214
822.997	258
825.385	316
827.773	464
830.16	774
832.546	1144
834.931	1092
837.315	662
839.699	370
842.081	270
844.463	254
846.844	244
849.226	256
851.606	248
853.985	216
856.363	220
858.741	204
861.117	196
863.493	196
865.868	194
868.243	178
870.616	190
872.989	170
875.36	170
877.731	176
880.102	168
882.472	188
884.841	168
887.209	148
889.577	166
891.944	148
894.31	162
896.674	156
899.039	152
901.403	162
903.766	156
906.128	160
908.49	168
910.849	164
913.209	138
915.569	170
917.927	170
920.284	164
922.641	164
924.997	158
927.353	168
929.707	180
932.061	196
934.414	172
936.765	194
939.117	202
941.469	224
943.818	228
946.167	268
948.515	296
950.863	418
953.211	504
955.556	648
957.902	832
960.246	892
962.59	902
964.933	744
967.276	606
969.617	520
971.958	426
974.298	352
976.638	284
978.976	256
981.314	232
983.651	222
985.988	216
988.323	200
990.659	192
992.992	216
995.325	190
997.658	180
999.99	184
1002.32	174
1004.65	186
1006.98	186
1009.31	190
1011.64	208
1013.97	178
1016.29	184
1018.62	204
1020.94	234
1023.27	234
1025.59	236
1027.91	254
1030.24	248
1032.56	274
1034.88	250
1037.2	244
1039.52	276
1041.84	238
1044.15	238
1046.47	222
1048.79	206
1051.1	216
1053.42	192
1055.73	204
1058.04	200
1060.36	182
1062.67	186
1064.98	192
1067.29	190
1069.6	192
1071.91	172
1074.22	188
1076.52	200
1078.83	178
1081.14	198
1083.44	190
1085.75	184
1088.05	200
1090.35	204
1092.65	192
1094.95	188
1097.26	206
1099.56	218
1101.86	234
1104.15	264
1106.45	340
1108.75	554
1111.05	786
1113.34	852
1115.64	690
1117.93	492
1120.22	364
1122.52	276
1124.81	280
1127.1	260
1129.39	244
1131.68	240
1133.97	222
1136.26	218
1138.54	220
1140.83	226
1143.12	246
1145.4	212
1147.69	216
1149.97	202
1152.25	188
1154.54	228
1156.82	224
1159.1	244
1161.38	268
1163.66	274
1165.94	264
1168.22	220
1170.49	222
1172.77	220
1175.05	258
1177.32	292
1179.6	326
1181.87	404
1184.14	542
1186.42	592
1188.69	606
1190.96	484
1193.23	432
1195.5	390
1197.77	406
1200.03	432
1202.3	436
1204.57	450
1206.83	426
1209.1	336
1211.36	294
1213.63	270
1215.89	250
1218.15	226
1220.41	218
1222.67	248
1224.93	270
1227.19	308
1229.45	314
1231.71	338
1233.97	302
1236.22	262
1238.48	226
1240.73	216
1242.99	226
1245.24	198
1247.5	210
1249.75	224
1252	208
1254.25	202
1256.5	210
1258.75	224
1261	224
1263.25	226
1265.49	218
1267.74	230
1269.99	244
1272.23	248
1274.48	242
1276.72	266
1278.96	282
1281.21	318
1283.45	340
1285.69	372
1287.93	386
1290.17	422
1292.41	468
1294.64	582
1296.88	742
1299.12	1056
1301.36	1542
1303.59	2008
1305.82	2178
1308.06	1844
1310.29	1292
1312.52	946
1314.76	702
1316.99	632
1319.22	498
1321.45	474
1323.68	454
1325.9	436
1328.13	422
1330.36	428
1332.58	360
1334.81	348
1337.04	328
1339.26	326
1341.48	308
1343.71	346
1345.93	368
1348.15	352
1350.37	372
1352.59	360
1354.81	352
1357.03	334
1359.24	310
1361.46	292
1363.68	308
1365.89	298
1368.11	346
1370.32	374
1372.54	518
1374.75	742
1376.96	940
1379.17	1050
1381.38	1000
1383.59	878
1385.8	702
1388.01	508
1390.22	366
1392.43	336
1394.63	280
1396.84	262
1399.05	254
1401.25	260
1403.45	258
1405.66	264
1407.86	248
1410.06	274
1412.26	292
1414.46	290
1416.66	296
1418.86	332
1421.06	352
1423.26	370
1425.46	380
1427.65	404
1429.85	402
1432.04	408
1434.24	468
1436.43	476
1438.62	516
1440.82	502
1443.01	456
1445.2	460
1447.39	398
1449.58	378
1451.77	390
1453.95	390
1456.14	370
1458.33	370
1460.52	362
1462.7	362
1464.89	358
1467.07	356
1469.25	346
1471.44	338
1473.62	340
1475.8	350
1477.98	342
1480.16	360
1482.34	312
1484.52	302
1486.7	288
1488.87	290
1491.05	266
1493.23	278
1495.4	284
1497.58	274
1499.75	268
1501.92	254
1504.1	268
1506.27	266
1508.44	264
1510.61	250
1512.78	288
1514.95	240
1517.12	250
1519.28	242
1521.45	260
1523.62	252
1525.78	272
1527.95	252
1530.11	268
1532.28	266
1534.44	250
1536.6	262
1538.76	260
1540.93	246
1543.09	258
1545.25	286
1547.41	242
1549.56	262
1551.72	268
1553.88	268
1556.03	284
1558.19	270
1560.35	280
1562.5	280
1564.65	284
1566.81	306
1568.96	288
1571.11	316
1573.26	338
1575.41	362
1577.56	364
1579.71	386
1581.86	446
1584.01	476
1586.15	540
1588.3	642
1590.45	728
1592.59	872
1594.74	964
1596.88	1172
1599.02	1318
1601.17	1394
1603.31	1500
1605.45	1364
1607.59	1258
1609.73	1122
1611.87	960
1614.01	862
1616.14	720
1618.28	628
1620.42	518
1622.55	426
1624.69	408
1626.82	346
1628.96	296
1631.09	302
1633.22	280
1635.36	274
1637.49	252
1639.62	260
1641.75	250
1643.88	238
1646	246
1648.13	230
1650.26	224
1652.39	248
1654.51	226
1656.64	218
1658.76	232
1660.89	238
1663.01	218
1665.13	200
1667.26	220
1669.38	216
1671.5	212
1673.62	212
1675.74	216
1677.86	226
1679.97	214
1682.09	208
1684.21	220
1686.33	224
1688.44	228
1690.56	242
1692.67	222
1694.78	222
1696.9	234
1699.01	226
1701.12	210
1703.23	216
1705.34	238
1707.45	208
1709.56	222
1711.67	214
1713.78	222
1715.88	212
1717.99	208
1720.1	228
1722.2	210
1724.31	216
1726.41	224
1728.51	226
1730.62	208
1732.72	204
1734.82	200
1736.92	192
1739.02	188
1741.12	188
1743.22	192
1745.32	196
1747.42	190
1749.51	198
1751.61	202
1753.7	206
1755.8	214
1757.89	190
1759.99	202
1762.08	198
1764.17	202
1766.26	192
1768.36	210
1770.45	198
1772.54	196
1774.62	220
1776.71	198
1778.8	198
1780.89	194
1782.98	202
1785.06	206
1787.15	212
1789.23	186
1791.32	198
1793.4	176
1795.48	194
1797.56	200
1799.65	176
1801.73	192
1803.81	208
1805.89	214
1807.97	188
1810.04	210
1812.12	188
1814.2	188
1816.28	210
1818.35	194
1820.43	196
1822.5	204
1824.58	200
1826.65	200
1828.72	200
1830.79	168
1832.86	202
1834.94	178
1837.01	190
1839.08	184
1841.15	196
1843.21	180
1845.28	198
1847.35	190
1849.41	200
1851.48	188
1853.55	188
1855.61	196
1857.67	196
1859.74	188
1861.8	194
1863.86	208
1865.92	190
1867.98	196
1870.05	192
1872.1	180
1874.16	190
1876.22	170
1878.28	190
1880.34	202
1882.39	196
1884.45	216
1886.5	198
1888.56	202
1890.61	196
1892.67	192
1894.72	210
1896.77	186
1898.82	198
1900.87	206
1902.92	184
1904.97	210
1907.02	192
1909.07	204
1911.12	188
1913.17	182
1915.21	190
1917.26	204
1919.3	206
1921.35	172
1923.39	220
1925.43	194
1927.48	186
1929.52	204
1931.56	200
1933.6	190
1935.64	204
1937.68	202
1939.72	206
1941.76	190
1943.8	208
1945.83	184
1947.87	202
1949.91	182
1951.94	188
1953.98	198
1956.01	190
1958.05	206
1960.08	190
1962.11	200
1964.14	196
1966.17	190
1968.2	192
1970.23	190
1972.26	200
1974.29	198
1976.32	200
1978.35	208
1980.37	208
1982.4	192
1984.43	202
1986.45	202
1988.48	192
1990.5	206
1992.52	194
1994.55	212
1996.57	206
1998.59	200
2000.61	202
2002.63	186
2004.65	204
2006.67	200
2008.69	200
2010.7	190
2012.72	174
2014.74	198
2016.75	184
2018.77	180
2020.78	190
2022.8	194
2024.81	208
2026.83	188
2028.84	206
2030.85	204
2032.86	190
2034.87	216
2036.88	200
2038.89	190
2040.9	208
2042.91	190
2044.91	212
2046.92	192
2048.93	200
2050.93	196
2052.94	206
2054.94	204
2056.95	194
2058.95	194
2060.95	190
2062.95	200
2064.96	192
2066.96	202
2068.96	204
2070.96	200
2072.96	188
2074.95	190
2076.95	198
2078.95	188
2080.95	196
2082.94	200
2084.94	202
2086.93	196
2088.93	202
2090.92	202
2092.91	192
2094.91	180
2096.9	196
2098.89	206
2100.88	200
2102.87	196
2104.86	188
2106.85	192
2108.84	190
2110.83	206
2112.81	190
2114.8	208
2116.78	190
2118.77	202
2120.75	184
2122.74	198
2124.72	184
2126.71	190
2128.69	204
2130.67	196
2132.65	192
2134.63	190
2136.61	202
2138.59	202
2140.57	198
2142.55	182
2144.53	194
2146.5	202
2148.48	200
2150.46	186
2152.43	202
2154.41	212
2156.38	204
2158.35	190
2160.33	210
2162.3	184
2164.27	188
2166.24	184
2168.21	200
2170.18	188
2172.15	208
2174.12	202
2176.09	208
2178.06	216
2180.03	212
2181.99	222
2183.96	186
2185.92	178
2187.89	192
2189.85	188
2191.82	214
2193.78	202
2195.74	188
2197.7	202
2199.67	190
2201.63	202
2203.59	184
2205.55	178
2207.51	200
2209.46	198
2211.42	180
2213.38	210
2215.34	192
2217.29	186
2219.25	208
2221.2	196
2223.16	192
2225.11	186
2227.06	204
2229.02	188
2230.97	200
2232.92	194
2234.87	186
2236.82	194
2238.77	174
2240.72	192
2242.67	186
2244.62	212
2246.57	190
2248.51	202
2250.46	198
2252.4	194
2254.35	190
2256.29	210
2258.24	200
2260.18	202
2262.13	206
2264.07	200
2266.01	192
2267.95	182
2269.89	200
2271.83	196
2273.77	218
2275.71	202
2277.65	204
2279.58	200
2281.52	200
2283.46	196
2285.4	200
2287.33	196
2289.27	180
2291.2	202
2293.13	200
2295.07	184
2297	196
2298.93	196
2300.86	204
2302.79	212
2304.72	204
2306.65	190
2308.58	196
2310.51	222
2312.44	202
2314.37	202
2316.29	206
2318.22	218
2320.15	206
2322.07	190
2324	206
2325.92	212
2327.84	200
2329.77	204
2331.69	206
2333.61	206
2335.53	202
2337.45	196
2339.37	212
2341.29	194
2343.21	206
2345.13	214
2347.05	188
2348.97	182
2350.88	196
2352.8	204
2354.71	192
2356.63	204
2358.54	198
2360.46	204
2362.37	216
2364.28	196
2366.2	176
2368.11	200
2370.02	212
2371.93	198
2373.84	206
2375.75	212
2377.66	204
2379.57	198
2381.47	196
2383.38	196
2385.29	206
2387.2	190
2389.1	202
2391.01	208
2392.91	210
2394.81	216
2396.72	200
2398.62	214
2400.52	212
2402.42	210
2404.33	200
2406.23	220
2408.13	212
2410.03	188
2411.92	208
2413.82	202
2415.72	210
2417.62	188
2419.51	192
2421.41	196
2423.31	206
2425.2	218
2427.1	196
2428.99	188
2430.88	182
2432.78	194
2434.67	200
2436.56	208
2438.45	194
2440.34	184
2442.23	198
2444.12	186
2446.01	210
2447.9	204
2449.79	204