File: Mixture_Classification/Jesse_Dataset_v2/Pure Raman/Polypropylene oxide/633nm/ps-ppo-7jan25-0,0000-map2_Y05_X09.txt
182.393	704
184.993	654
187.593	644
190.193	638
192.79	566
195.387	550
197.983	538
200.578	514
203.174	494
205.766	478
208.36	502
210.951	478
213.542	462
216.131	460
218.721	438
221.309	534
223.897	592
226.483	760
229.069	992
231.654	1132
234.238	1248
236.821	1258
239.404	1136
241.984	1034
244.566	866
247.145	738
249.723	644
252.302	536
254.878	470
257.455	398
260.03	336
262.604	328
265.178	302
267.75	318
270.322	300
272.893	276
275.463	272
278.032	278
280.601	310
283.168	332
285.734	388
288.301	426
290.866	550
293.429	578
295.992	616
298.556	584
301.117	578
303.677	496
306.236	480
308.795	422
311.354	404
313.911	356
316.467	394
319.022	352
321.577	340
324.13	366
326.684	380
329.236	408
331.787	402
334.337	404
336.887	386
339.435	388
341.983	392
344.529	372
347.075	342
349.621	322
352.165	362
354.708	370
357.251	384
359.793	352
362.334	322
364.874	310
367.413	322
369.951	346
372.489	346
375.026	316
377.562	304
380.097	290
382.631	286
385.164	272
387.697	266
390.229	260
392.76	232
395.29	222
397.819	216
400.346	240
402.873	256
405.4	260
407.926	268
410.451	286
412.976	350
415.499	360
418.02	354
420.542	310
423.063	266
425.583	258
428.101	224
430.619	222
433.137	230
435.654	186
438.169	198
440.684	184
443.198	168
445.712	166
448.223	172
450.735	172
453.246	172
455.755	172
458.264	170
460.771	188
463.279	182
465.786	216
468.291	232
470.796	258
473.301	302
475.803	350
478.306	388
480.807	420
483.308	492
485.807	498
488.307	458
490.804	350
493.302	312
495.798	258
498.294	212
500.788	222
503.283	218
505.775	208
508.269	254
510.759	298
513.251	404
515.74	374
518.23	324
520.718	304
523.204	314
525.692	332
528.177	374
530.663	478
533.147	584
535.629	680
538.113	794
540.594	770
543.074	700
545.555	556
548.034	476
550.512	396
552.989	386
555.467	428
557.942	498
560.417	656
562.892	984
565.365	1610
567.838	2628
570.309	3690
572.78	3636
575.251	2680
577.72	1534
580.189	910
582.656	710
585.123	624
587.589	584
590.055	528
592.52	522
594.983	492
597.446	446
599.908	358
602.369	312
604.829	264
607.289	238
609.747	236
612.205	230
614.663	206
617.119	216
619.574	222
622.029	234
624.483	246
626.936	286
629.389	270
631.84	314
634.291	316
636.741	324
639.19	304
641.639	308
644.086	262
646.533	240
648.979	234
651.424	222
653.869	208
656.313	214
658.754	178
661.196	188
663.638	184
666.078	168
668.518	180
670.957	166
673.394	162
675.831	164
678.268	170
680.703	166
683.137	176
685.571	184
688.005	162
690.437	172
692.868	174
695.299	156
697.729	156
700.159	172
702.586	188
705.014	186
707.441	200
709.866	208
712.292	226
714.716	226
717.14	216
719.563	230
721.984	224
724.406	192
726.825	212
729.246	192
731.665	202
734.082	198
736.5	216
738.916	226
741.332	238
743.746	256
746.161	324
748.574	366
750.987	330
753.398	296
755.81	274
758.219	256
760.629	216
763.037	210
765.445	182
767.852	206
770.258	210
772.664	200
775.068	218
777.472	210
779.876	214
782.278	212
784.679	208
787.08	204
789.48	198
791.879	192
794.278	206
796.675	204
799.072	186
801.467	190
803.864	196
806.258	212
808.651	214
811.044	214
813.437	204
815.828	208
818.218	212
820.608	230
822.997	258
825.385	320
827.773	474
830.16	784
832.546	1150
834.931	1116
837.315	644
839.699	372
842.081	310
844.463	278
846.844	254
849.226	286
851.606	236
853.985	250
856.363	250
858.741	250
861.117	222
863.493	228
865.868	202
868.243	208
870.616	206
872.989	184
875.36	196
877.731	204
880.102	196
882.472	200
884.841	184
887.209	184
889.577	180
891.944	166
894.31	178
896.674	174
899.039	162
901.403	182
903.766	164
906.128	184
908.49	176
910.849	168
913.209	184
915.569	172
917.927	184
920.284	192
922.641	186
924.997	186
927.353	170
929.707	190
932.061	192
934.414	198
936.765	236
939.117	210
941.469	244
943.818	248
946.167	298
948.515	328
950.863	426
953.211	518
955.556	642
957.902	820
960.246	946
962.59	868
964.933	766
967.276	654
969.617	504
971.958	438
974.298	368
976.638	312
978.976	258
981.314	230
983.651	238
985.988	228
988.323	206
990.659	244
992.992	232
995.325	210
997.658	188
999.99	208
1002.32	202
1004.65	192
1006.98	190
1009.31	194
1011.64	206
1013.97	216
1016.29	216
1018.62	222
1020.94	250
1023.27	242
1025.59	250
1027.91	264
1030.24	274
1032.56	280
1034.88	308
1037.2	288
1039.52	278
1041.84	236
1044.15	244
1046.47	240
1048.79	228
1051.1	218
1053.42	204
1055.73	216
1058.04	210
1060.36	218
1062.67	208
1064.98	206
1067.29	208
1069.6	214
1071.91	206
1074.22	206
1076.52	178
1078.83	210
1081.14	186
1083.44	204
1085.75	206
1088.05	214
1090.35	198
1092.65	210
1094.95	210
1097.26	226
1099.56	228
1101.86	232
1104.15	298
1106.45	372
1108.75	584
1111.05	860
1113.34	952
1115.64	696
1117.93	496
1120.22	380
1122.52	308
1124.81	294
1127.1	286
1129.39	254
1131.68	254
1133.97	232
1136.26	244
1138.54	246
1140.83	264
1143.12	254
1145.4	234
1147.69	232
1149.97	234
1152.25	200
1154.54	230
1156.82	236
1159.1	264
1161.38	284
1163.66	270
1165.94	270
1168.22	258
1170.49	246
1172.77	270
1175.05	262
1177.32	318
1179.6	364
1181.87	432
1184.14	572
1186.42	626
1188.69	620
1190.96	534
1193.23	438
1195.5	418
1197.77	436
1200.03	452
1202.3	466
1204.57	488
1206.83	422
1209.1	372
1211.36	300
1213.63	264
1215.89	272
1218.15	234
1220.41	234
1222.67	256
1224.93	284
1227.19	320
1229.45	358
1231.71	320
1233.97	296
1236.22	290
1238.48	268
1240.73	224
1242.99	258
1245.24	246
1247.5	242
1249.75	232
1252	232
1254.25	230
1256.5	226
1258.75	228
1261	242
1263.25	264
1265.49	228
1267.74	230
1269.99	234
1272.23	256
1274.48	278
1276.72	290
1278.96	294
1281.21	324
1283.45	352
1285.69	372
1287.93	428
1290.17	440
1292.41	494
1294.64	620
1296.88	782
1299.12	1072
1301.36	1550
1303.59	2080
1305.82	2194
1308.06	1836
1310.29	1300
1312.52	930
1314.76	764
1316.99	630
1319.22	558
1321.45	502
1323.68	464
1325.9	450
1328.13	464
1330.36	418
1332.58	380
1334.81	360
1337.04	366
1339.26	314
1341.48	350
1343.71	356
1345.93	364
1348.15	376
1350.37	386
1352.59	362
1354.81	368
1357.03	324
1359.24	322
1361.46	316
1363.68	290
1365.89	308
1368.11	372
1370.32	398
1372.54	550
1374.75	778
1376.96	960
1379.17	1048
1381.38	1052
1383.59	892
1385.8	710
1388.01	512
1390.22	394
1392.43	322
1394.63	306
1396.84	280
1399.05	282
1401.25	274
1403.45	276
1405.66	278
1407.86	284
1410.06	272
1412.26	298
1414.46	316
1416.66	326
1418.86	364
1421.06	378
1423.26	418
1425.46	414
1427.65	404
1429.85	410
1432.04	448
1434.24	484
1436.43	486
1438.62	518
1440.82	522
1443.01	522
1445.2	476
1447.39	458
1449.58	424
1451.77	388
1453.95	382
1456.14	390
1458.33	402
1460.52	364
1462.7	366
1464.89	372
1467.07	386
1469.25	378
1471.44	360
1473.62	362
1475.8	354
1477.98	356
1480.16	356
1482.34	346
1484.52	328
1486.7	312
1488.87	304
1491.05	308
1493.23	294
1495.4	306
1497.58	286
1499.75	292
1501.92	282
1504.1	292
1506.27	276
1508.44	264
1510.61	268
1512.78	298
1514.95	268
1517.12	282
1519.28	276
1521.45	276
1523.62	262
1525.78	262
1527.95	270
1530.11	270
1532.28	264
1534.44	286
1536.6	266
1538.76	254
1540.93	264
1543.09	272
1545.25	294
1547.41	264
1549.56	276
1551.72	310
1553.88	306
1556.03	294
1558.19	292
1560.35	300
1562.5	296
1564.65	304
1566.81	302
1568.96	300
1571.11	318
1573.26	364
1575.41	352
1577.56	402
1579.71	428
1581.86	480
1584.01	542
1586.15	548
1588.3	672
1590.45	756
1592.59	900
1594.74	1018
1596.88	1230
1599.02	1368
1601.17	1444
1603.31	1488
1605.45	1398
1607.59	1308
1609.73	1164
1611.87	978
1614.01	876
1616.14	732
1618.28	600
1620.42	514
1622.55	464
1624.69	362
1626.82	342
1628.96	332
1631.09	320
1633.22	284
1635.36	278
1637.49	272
1639.62	274
1641.75	244
1643.88	266
1646	250
1648.13	242
1650.26	260
1652.39	244
1654.51	230
1656.64	264
1658.76	212
1660.89	242
1663.01	244
1665.13	256
1667.26	234
1669.38	232
1671.5	228
1673.62	226
1675.74	226
1677.86	222
1679.97	238
1682.09	230
1684.21	218
1686.33	242
1688.44	250
1690.56	270
1692.67	266
1694.78	256
1696.9	240
1699.01	250
1701.12	250
1703.23	248
1705.34	254
1707.45	238
1709.56	250
1711.67	244
1713.78	248
1715.88	258
1717.99	238
1720.1	224
1722.2	236
1724.31	214
1726.41	214
1728.51	230
1730.62	234
1732.72	218
1734.82	218
1736.92	218
1739.02	224
1741.12	218
1743.22	226
1745.32	216
1747.42	218
1749.51	216
1751.61	236
1753.7	214
1755.8	240
1757.89	208
1759.99	204
1762.08	220
1764.17	208
1766.26	226
1768.36	218
1770.45	226
1772.54	222
1774.62	224
1776.71	200
1778.8	234
1780.89	216
1782.98	208
1785.06	222
1787.15	210
1789.23	230
1791.32	214
1793.4	230
1795.48	208
1797.56	216
1799.65	214
1801.73	208
1803.81	218
1805.89	222
1807.97	214
1810.04	218
1812.12	220
1814.2	212
1816.28	224
1818.35	220
1820.43	228
1822.5	230
1824.58	222
1826.65	202
1828.72	214
1830.79	208
1832.86	226
1834.94	208
1837.01	216
1839.08	210
1841.15	220
1843.21	208
1845.28	216
1847.35	216
1849.41	224
1851.48	198
1853.55	228
1855.61	216
1857.67	216
1859.74	208
1861.8	200
1863.86	224
1865.92	216
1867.98	210
1870.05	210
1872.1	220
1874.16	214
1876.22	214
1878.28	214
1880.34	224
1882.39	200
1884.45	212
1886.5	216
1888.56	222
1890.61	218
1892.67	194
1894.72	212
1896.77	216
1898.82	226
1900.87	224
1902.92	222
1904.97	224
1907.02	234
1909.07	230
1911.12	220
1913.17	226
1915.21	224
1917.26	212
1919.3	236
1921.35	216
1923.39	220
1925.43	224
1927.48	218
1929.52	214
1931.56	218
1933.6	212
1935.64	226
1937.68	224
1939.72	214
1941.76	224
1943.8	220
1945.83	224
1947.87	214
1949.91	206
1951.94	214
1953.98	220
1956.01	208
1958.05	202
1960.08	218
1962.11	210
1964.14	204
1966.17	228
1968.2	202
1970.23	218
1972.26	206
1974.29	208
1976.32	220
1978.35	214
1980.37	218
1982.4	230
1984.43	208
1986.45	210
1988.48	214
1990.5	230
1992.52	224
1994.55	210
1996.57	214
1998.59	232
2000.61	214
2002.63	202
2004.65	208
2006.67	226
2008.69	232
2010.7	214
2012.72	208
2014.74	204
2016.75	218
2018.77	210
2020.78	208
2022.8	210
2024.81	206
2026.83	230
2028.84	226
2030.85	230
2032.86	230
2034.87	198
2036.88	218
2038.89	234
2040.9	210
2042.91	206
2044.91	212
2046.92	222
2048.93	222
2050.93	214
2052.94	210
2054.94	232
2056.95	222
2058.95	212
2060.95	218
2062.95	214
2064.96	220
2066.96	202
2068.96	212
2070.96	206
2072.96	212
2074.95	218
2076.95	216
2078.95	222
2080.95	218
2082.94	238
2084.94	212
2086.93	212
2088.93	206
2090.92	220
2092.91	224
2094.91	216
2096.9	214
2098.89	206
2100.88	228
2102.87	210
2104.86	208
2106.85	210
2108.84	220
2110.83	224
2112.81	226
2114.8	224
2116.78	220
2118.77	214
2120.75	210
2122.74	218
2124.72	230
2126.71	220
2128.69	228
2130.67	202
2132.65	226
2134.63	226
2136.61	218
2138.59	228
2140.57	204
2142.55	196
2144.53	202
2146.5	204
2148.48	212
2150.46	224
2152.43	224
2154.41	208
2156.38	208
2158.35	224
2160.33	202
2162.3	204
2164.27	208
2166.24	220
2168.21	212
2170.18	222
2172.15	232
2174.12	236
2176.09	202
2178.06	236
2180.03	218
2181.99	198
2183.96	204
2185.92	216
2187.89	216
2189.85	222
2191.82	236
2193.78	222
2195.74	208
2197.7	216
2199.67	212
2201.63	202
2203.59	216
2205.55	234
2207.51	210
2209.46	208
2211.42	218
2213.38	206
2215.34	206
2217.29	202
2219.25	216
2221.2	216
2223.16	214
2225.11	218
2227.06	212
2229.02	214
2230.97	222
2232.92	214
2234.87	214
2236.82	204
2238.77	210
2240.72	204
2242.67	222
2244.62	212
2246.57	212
2248.51	214
2250.46	196
2252.4	208
2254.35	216
2256.29	220
2258.24	230
2260.18	224
2262.13	214
2264.07	216
2266.01	212
2267.95	200
2269.89	200
2271.83	222
2273.77	238
2275.71	210
2277.65	218
2279.58	214
2281.52	226
2283.46	214
2285.4	210
2287.33	200
2289.27	226
2291.2	206
2293.13	218
2295.07	210
2297	204
2298.93	222
2300.86	222
2302.79	214
2304.72	224
2306.65	228
2308.58	208
2310.51	212
2312.44	226
2314.37	212
2316.29	228
2318.22	214
2320.15	218
2322.07	222
2324	208
2325.92	232
2327.84	236
2329.77	232
2331.69	196
2333.61	214
2335.53	224
2337.45	226
2339.37	218
2341.29	218
2343.21	206
2345.13	222
2347.05	224
2348.97	244
2350.88	200
2352.8	214
2354.71	214
2356.63	206
2358.54	222
2360.46	218
2362.37	222
2364.28	208
2366.2	202
2368.11	222
2370.02	218
2371.93	210
2373.84	236
2375.75	210
2377.66	224
2379.57	218
2381.47	234
2383.38	212
2385.29	220
2387.2	218
2389.1	234
2391.01	230
2392.91	220
2394.81	222
2396.72	214
2398.62	226
2400.52	246
2402.42	228
2404.33	222
2406.23	220
2408.13	216
2410.03	218
2411.92	220
2413.82	238
2415.72	210
2417.62	234
2419.51	210
2421.41	208
2423.31	206
2425.2	216
2427.1	238
2428.99	230
2430.88	214
2432.78	220
2434.67	224
2436.56	216
2438.45	216
2440.34	232
2442.23	216
2444.12	206
2446.01	210
2447.9	220
2449.79	208