File: Mixture_Classification/Jesse_Dataset_v2/Pure Raman/Polypropylene oxide/633nm/ps-ppo-7jan25-0,0000-map2_Y04_X03.txt
182.393	710
184.993	680
187.593	618
190.193	636
192.79	608
195.387	554
197.983	532
200.578	536
203.174	520
205.766	524
208.36	474
210.951	454
213.542	470
216.131	432
218.721	444
221.309	522
223.897	638
226.483	740
229.069	966
231.654	1142
234.238	1260
236.821	1222
239.404	1130
241.984	1006
244.566	876
247.145	778
249.723	640
252.302	528
254.878	466
257.455	404
260.03	392
262.604	320
265.178	302
267.75	298
270.322	306
272.893	286
275.463	276
278.032	284
280.601	306
283.168	314
285.734	364
288.301	434
290.866	534
293.429	592
295.992	584
298.556	602
301.117	586
303.677	504
306.236	460
308.795	430
311.354	410
313.911	394
316.467	396
319.022	340
321.577	360
324.13	380
326.684	398
329.236	384
331.787	390
334.337	412
336.887	410
339.435	410
341.983	368
344.529	366
347.075	346
349.621	350
352.165	376
354.708	342
357.251	360
359.793	352
362.334	332
364.874	318
367.413	312
369.951	316
372.489	326
375.026	332
377.562	306
380.097	312
382.631	248
385.164	248
387.697	246
390.229	220
392.76	236
395.29	220
397.819	232
400.346	238
402.873	230
405.4	248
407.926	262
410.451	330
412.976	370
415.499	344
418.02	358
420.542	310
423.063	278
425.583	246
428.101	232
430.619	220
433.137	210
435.654	196
438.169	180
440.684	186
443.198	172
445.712	180
448.223	174
450.735	186
453.246	188
455.755	170
458.264	176
460.771	186
463.279	202
465.786	206
468.291	234
470.796	268
473.301	282
475.803	332
478.306	364
480.807	464
483.308	498
485.807	528
488.307	436
490.804	372
493.302	302
495.798	282
498.294	236
500.788	230
503.283	210
505.775	230
508.269	236
510.759	328
513.251	402
515.74	380
518.23	324
520.718	296
523.204	300
525.692	336
528.177	384
530.663	498
533.147	586
535.629	690
538.113	796
540.594	766
543.074	674
545.555	572
548.034	446
550.512	400
552.989	410
555.467	442
557.942	522
560.417	684
562.892	1038
565.365	1622
567.838	2694
570.309	3740
572.78	3710
575.251	2678
577.72	1548
580.189	914
582.656	718
585.123	664
587.589	578
590.055	542
592.52	518
594.983	516
597.446	422
599.908	362
602.369	320
604.829	270
607.289	252
609.747	230
612.205	210
614.663	202
617.119	206
619.574	214
622.029	258
624.483	246
626.936	282
629.389	278
631.84	292
634.291	332
636.741	316
639.19	332
641.639	298
644.086	274
646.533	248
648.979	214
651.424	252
653.869	212
656.313	214
658.754	192
661.196	188
663.638	168
666.078	180
668.518	178
670.957	174
673.394	182
675.831	164
678.268	160
680.703	176
683.137	174
685.571	164
688.005	172
690.437	162
692.868	164
695.299	170
697.729	148
700.159	164
702.586	170
705.014	182
707.441	198
709.866	212
712.292	212
714.716	250
717.14	220
719.563	220
721.984	202
724.406	212
726.825	214
729.246	208
731.665	204
734.082	216
736.5	220
738.916	220
741.332	230
743.746	268
746.161	310
748.574	318
750.987	328
753.398	302
755.81	288
758.219	266
760.629	210
763.037	214
765.445	192
767.852	190
770.258	202
772.664	210
775.068	196
777.472	210
779.876	214
782.278	202
784.679	208
787.08	214
789.48	198
791.879	200
794.278	184
796.675	176
799.072	204
801.467	194
803.864	212
806.258	200
808.651	200
811.044	208
813.437	226
815.828	208
818.218	218
820.608	222
822.997	280
825.385	334
827.773	488
830.16	780
832.546	1184
834.931	1130
837.315	684
839.699	420
842.081	278
844.463	290
846.844	260
849.226	272
851.606	254
853.985	252
856.363	242
858.741	238
861.117	228
863.493	218
865.868	200
868.243	200
870.616	204
872.989	200
875.36	184
877.731	180
880.102	198
882.472	178
884.841	174
887.209	186
889.577	174
891.944	182
894.31	168
896.674	178
899.039	168
901.403	174
903.766	172
906.128	180
908.49	168
910.849	186
913.209	172
915.569	178
917.927	170
920.284	182
922.641	188
924.997	178
927.353	192
929.707	188
932.061	188
934.414	186
936.765	204
939.117	232
941.469	234
943.818	256
946.167	274
948.515	326
950.863	414
953.211	556
955.556	706
957.902	842
960.246	952
962.59	934
964.933	744
967.276	626
969.617	560
971.958	448
974.298	388
976.638	298
978.976	266
981.314	224
983.651	222
985.988	216
988.323	222
990.659	228
992.992	212
995.325	222
997.658	218
999.99	212
1002.32	196
1004.65	194
1006.98	198
1009.31	196
1011.64	208
1013.97	212
1016.29	228
1018.62	228
1020.94	214
1023.27	256
1025.59	260
1027.91	260
1030.24	256
1032.56	288
1034.88	270
1037.2	276
1039.52	266
1041.84	260
1044.15	248
1046.47	238
1048.79	226
1051.1	220
1053.42	200
1055.73	198
1058.04	188
1060.36	206
1062.67	204
1064.98	194
1067.29	220
1069.6	190
1071.91	202
1074.22	192
1076.52	198
1078.83	212
1081.14	212
1083.44	218
1085.75	206
1088.05	190
1090.35	220
1092.65	216
1094.95	214
1097.26	214
1099.56	236
1101.86	232
1104.15	280
1106.45	380
1108.75	568
1111.05	834
1113.34	916
1115.64	744
1117.93	518
1120.22	374
1122.52	328
1124.81	276
1127.1	258
1129.39	276
1131.68	256
1133.97	248
1136.26	264
1138.54	252
1140.83	250
1143.12	262
1145.4	250
1147.69	224
1149.97	222
1152.25	214
1154.54	216
1156.82	236
1159.1	250
1161.38	280
1163.66	278
1165.94	270
1168.22	260
1170.49	256
1172.77	270
1175.05	276
1177.32	308
1179.6	348
1181.87	450
1184.14	576
1186.42	634
1188.69	634
1190.96	498
1193.23	468
1195.5	408
1197.77	432
1200.03	470
1202.3	472
1204.57	462
1206.83	424
1209.1	368
1211.36	260
1213.63	270
1215.89	252
1218.15	240
1220.41	268
1222.67	244
1224.93	276
1227.19	328
1229.45	338
1231.71	338
1233.97	302
1236.22	276
1238.48	256
1240.73	256
1242.99	222
1245.24	212
1247.5	204
1249.75	226
1252	210
1254.25	220
1256.5	244
1258.75	218
1261	232
1263.25	254
1265.49	256
1267.74	238
1269.99	252
1272.23	260
1274.48	254
1276.72	276
1278.96	312
1281.21	340
1283.45	350
1285.69	362
1287.93	406
1290.17	426
1292.41	506
1294.64	638
1296.88	788
1299.12	1082
1301.36	1574
1303.59	2088
1305.82	2240
1308.06	1840
1310.29	1342
1312.52	940
1314.76	728
1316.99	628
1319.22	538
1321.45	500
1323.68	456
1325.9	482
1328.13	454
1330.36	434
1332.58	402
1334.81	384
1337.04	354
1339.26	332
1341.48	346
1343.71	332
1345.93	358
1348.15	370
1350.37	392
1352.59	394
1354.81	330
1357.03	340
1359.24	312
1361.46	294
1363.68	314
1365.89	322
1368.11	342
1370.32	402
1372.54	532
1374.75	740
1376.96	984
1379.17	1090
1381.38	1062
1383.59	850
1385.8	702
1388.01	512
1390.22	390
1392.43	322
1394.63	306
1396.84	300
1399.05	250
1401.25	256
1403.45	290
1405.66	260
1407.86	280
1410.06	288
1412.26	314
1414.46	302
1416.66	324
1418.86	324
1421.06	362
1423.26	376
1425.46	414
1427.65	428
1429.85	428
1432.04	440
1434.24	486
1436.43	480
1438.62	550
1440.82	524
1443.01	478
1445.2	494
1447.39	442
1449.58	416
1451.77	392
1453.95	364
1456.14	394
1458.33	402
1460.52	380
1462.7	358
1464.89	376
1467.07	382
1469.25	378
1471.44	346
1473.62	364
1475.8	372
1477.98	360
1480.16	350
1482.34	338
1484.52	338
1486.7	312
1488.87	312
1491.05	306
1493.23	296
1495.4	292
1497.58	302
1499.75	274
1501.92	264
1504.1	276
1506.27	280
1508.44	290
1510.61	274
1512.78	280
1514.95	278
1517.12	284
1519.28	270
1521.45	272
1523.62	264
1525.78	274
1527.95	276
1530.11	258
1532.28	284
1534.44	270
1536.6	262
1538.76	244
1540.93	258
1543.09	292
1545.25	282
1547.41	278
1549.56	288
1551.72	276
1553.88	278
1556.03	286
1558.19	288
1560.35	296
1562.5	284
1564.65	288
1566.81	306
1568.96	306
1571.11	308
1573.26	348
1575.41	348
1577.56	400
1579.71	414
1581.86	460
1584.01	522
1586.15	596
1588.3	666
1590.45	780
1592.59	844
1594.74	1032
1596.88	1208
1599.02	1364
1601.17	1478
1603.31	1462
1605.45	1434
1607.59	1264
1609.73	1142
1611.87	1018
1614.01	880
1616.14	752
1618.28	602
1620.42	546
1622.55	448
1624.69	402
1626.82	368
1628.96	342
1631.09	308
1633.22	326
1635.36	270
1637.49	276
1639.62	274
1641.75	270
1643.88	252
1646	272
1648.13	242
1650.26	256
1652.39	250
1654.51	258
1656.64	236
1658.76	242
1660.89	252
1663.01	228
1665.13	220
1667.26	234
1669.38	238
1671.5	228
1673.62	236
1675.74	214
1677.86	234
1679.97	236
1682.09	236
1684.21	226
1686.33	234
1688.44	262
1690.56	246
1692.67	254
1694.78	232
1696.9	260
1699.01	242
1701.12	260
1703.23	234
1705.34	240
1707.45	234
1709.56	230
1711.67	252
1713.78	224
1715.88	236
1717.99	234
1720.1	230
1722.2	226
1724.31	230
1726.41	216
1728.51	224
1730.62	222
1732.72	218
1734.82	222
1736.92	212
1739.02	208
1741.12	202
1743.22	222
1745.32	214
1747.42	210
1749.51	228
1751.61	214
1753.7	212
1755.8	216
1757.89	208
1759.99	210
1762.08	208
1764.17	214
1766.26	216
1768.36	234
1770.45	204
1772.54	238
1774.62	208
1776.71	198
1778.8	212
1780.89	234
1782.98	218
1785.06	202
1787.15	222
1789.23	204
1791.32	210
1793.4	222
1795.48	204
1797.56	212
1799.65	226
1801.73	208
1803.81	202
1805.89	224
1807.97	212
1810.04	202
1812.12	206
1814.2	202
1816.28	200
1818.35	202
1820.43	210
1822.5	216
1824.58	222
1826.65	208
1828.72	214
1830.79	210
1832.86	208
1834.94	212
1837.01	198
1839.08	204
1841.15	206
1843.21	212
1845.28	198
1847.35	188
1849.41	224
1851.48	220
1853.55	210
1855.61	210
1857.67	220
1859.74	206
1861.8	206
1863.86	218
1865.92	218
1867.98	210
1870.05	214
1872.1	210
1874.16	218
1876.22	202
1878.28	202
1880.34	212
1882.39	208
1884.45	196
1886.5	220
1888.56	200
1890.61	232
1892.67	208
1894.72	222
1896.77	232
1898.82	204
1900.87	210
1902.92	236
1904.97	210
1907.02	220
1909.07	198
1911.12	222
1913.17	218
1915.21	226
1917.26	222
1919.3	230
1921.35	218
1923.39	214
1925.43	214
1927.48	210
1929.52	212
1931.56	222
1933.6	214
1935.64	204
1937.68	206
1939.72	222
1941.76	204
1943.8	212
1945.83	194
1947.87	212
1949.91	206
1951.94	194
1953.98	222
1956.01	216
1958.05	218
1960.08	180
1962.11	212
1964.14	226
1966.17	206
1968.2	202
1970.23	206
1972.26	194
1974.29	206
1976.32	226
1978.35	210
1980.37	190
1982.4	206
1984.43	222
1986.45	210
1988.48	232
1990.5	202
1992.52	206
1994.55	206
1996.57	208
1998.59	202
2000.61	212
2002.63	212
2004.65	224
2006.67	198
2008.69	210
2010.7	218
2012.72	232
2014.74	194
2016.75	224
2018.77	224
2020.78	212
2022.8	194
2024.81	218
2026.83	210
2028.84	220
2030.85	212
2032.86	204
2034.87	216
2036.88	212
2038.89	214
2040.9	206
2042.91	222
2044.91	208
2046.92	210
2048.93	212
2050.93	206
2052.94	218
2054.94	208
2056.95	212
2058.95	200
2060.95	208
2062.95	214
2064.96	222
2066.96	200
2068.96	204
2070.96	214
2072.96	216
2074.95	216
2076.95	216
2078.95	208
2080.95	210
2082.94	214
2084.94	208
2086.93	196
2088.93	224
2090.92	204
2092.91	222
2094.91	214
2096.9	206
2098.89	206
2100.88	198
2102.87	216
2104.86	200
2106.85	228
2108.84	196
2110.83	204
2112.81	208
2114.8	206
2116.78	196
2118.77	218
2120.75	220
2122.74	232
2124.72	208
2126.71	202
2128.69	216
2130.67	198
2132.65	204
2134.63	208
2136.61	208
2138.59	222
2140.57	228
2142.55	214
2144.53	212
2146.5	208
2148.48	198
2150.46	198
2152.43	208
2154.41	224
2156.38	210
2158.35	192
2160.33	208
2162.3	222
2164.27	218
2166.24	212
2168.21	202
2170.18	202
2172.15	224
2174.12	198
2176.09	218
2178.06	206
2180.03	208
2181.99	224
2183.96	210
2185.92	220
2187.89	202
2189.85	202
2191.82	208
2193.78	216
2195.74	212
2197.7	184
2199.67	204
2201.63	206
2203.59	202
2205.55	208
2207.51	216
2209.46	224
2211.42	224
2213.38	212
2215.34	204
2217.29	206
2219.25	196
2221.2	210
2223.16	198
2225.11	208
2227.06	216
2229.02	226
2230.97	206
2232.92	206
2234.87	212
2236.82	216
2238.77	208
2240.72	208
2242.67	224
2244.62	208
2246.57	196
2248.51	230
2250.46	224
2252.4	186
2254.35	212
2256.29	218
2258.24	216
2260.18	212
2262.13	210
2264.07	198
2266.01	188
2267.95	196
2269.89	212
2271.83	218
2273.77	198
2275.71	206
2277.65	212
2279.58	210
2281.52	204
2283.46	226
2285.4	220
2287.33	212
2289.27	220
2291.2	216
2293.13	200
2295.07	218
2297	214
2298.93	224
2300.86	228
2302.79	214
2304.72	212
2306.65	222
2308.58	202
2310.51	222
2312.44	196
2314.37	230
2316.29	236
2318.22	226
2320.15	220
2322.07	234
2324	236
2325.92	226
2327.84	220
2329.77	224
2331.69	210
2333.61	234
2335.53	202
2337.45	210
2339.37	234
2341.29	216
2343.21	218
2345.13	210
2347.05	204
2348.97	194
2350.88	212
2352.8	236
2354.71	210
2356.63	222
2358.54	210
2360.46	208
2362.37	222
2364.28	210
2366.2	230
2368.11	218
2370.02	210
2371.93	208
2373.84	218
2375.75	216
2377.66	222
2379.57	208
2381.47	228
2383.38	218
2385.29	210
2387.2	214
2389.1	202
2391.01	218
2392.91	210
2394.81	204
2396.72	240
2398.62	210
2400.52	206
2402.42	238
2404.33	238
2406.23	236
2408.13	224
2410.03	234
2411.92	232
2413.82	218
2415.72	210
2417.62	208
2419.51	230
2421.41	210
2423.31	234
2425.2	184
2427.1	214
2428.99	212
2430.88	198
2432.78	202
2434.67	214
2436.56	218
2438.45	206
2440.34	210
2442.23	206
2444.12	202
2446.01	214
2447.9	204
2449.79	206