File: Mixture_Classification/Jesse_Dataset_v2/Pure Raman/Polypropylene oxide/633nm/ps-ppo-7jan25-0,0000-map2_Y02_X03.txt
182.393	702
184.993	694
187.593	684
190.193	630
192.79	612
195.387	546
197.983	534
200.578	532
203.174	536
205.766	496
208.36	500
210.951	464
213.542	448
216.131	444
218.721	492
221.309	510
223.897	610
226.483	748
229.069	962
231.654	1150
234.238	1234
236.821	1266
239.404	1170
241.984	1054
244.566	862
247.145	754
249.723	626
252.302	550
254.878	464
257.455	434
260.03	354
262.604	352
265.178	326
267.75	290
270.322	282
272.893	258
275.463	288
278.032	294
280.601	306
283.168	324
285.734	368
288.301	458
290.866	520
293.429	608
295.992	642
298.556	608
301.117	570
303.677	524
306.236	474
308.795	440
311.354	418
313.911	390
316.467	352
319.022	362
321.577	354
324.13	368
326.684	370
329.236	384
331.787	402
334.337	400
336.887	410
339.435	384
341.983	372
344.529	370
347.075	346
349.621	324
352.165	336
354.708	390
357.251	366
359.793	354
362.334	342
364.874	322
367.413	322
369.951	326
372.489	352
375.026	334
377.562	306
380.097	306
382.631	276
385.164	248
387.697	250
390.229	232
392.76	242
395.29	224
397.819	234
400.346	244
402.873	254
405.4	256
407.926	274
410.451	332
412.976	364
415.499	354
418.02	348
420.542	312
423.063	274
425.583	248
428.101	226
430.619	232
433.137	188
435.654	192
438.169	180
440.684	176
443.198	170
445.712	178
448.223	172
450.735	170
453.246	174
455.755	164
458.264	180
460.771	192
463.279	212
465.786	212
468.291	226
470.796	288
473.301	308
475.803	352
478.306	372
480.807	460
483.308	492
485.807	526
488.307	438
490.804	382
493.302	292
495.798	246
498.294	248
500.788	220
503.283	200
505.775	212
508.269	270
510.759	334
513.251	416
515.74	342
518.23	302
520.718	294
523.204	294
525.692	346
528.177	398
530.663	484
533.147	588
535.629	722
538.113	780
540.594	816
543.074	660
545.555	576
548.034	452
550.512	398
552.989	402
555.467	416
557.942	496
560.417	720
562.892	1048
565.365	1712
567.838	2760
570.309	3782
572.78	3798
575.251	2678
577.72	1562
580.189	938
582.656	674
585.123	630
587.589	608
590.055	536
592.52	506
594.983	506
597.446	454
599.908	400
602.369	320
604.829	256
607.289	232
609.747	240
612.205	210
614.663	222
617.119	214
619.574	196
622.029	238
624.483	262
626.936	280
629.389	280
631.84	314
634.291	314
636.741	344
639.19	302
641.639	308
644.086	256
646.533	254
648.979	226
651.424	202
653.869	182
656.313	208
658.754	198
661.196	174
663.638	182
666.078	194
668.518	156
670.957	170
673.394	160
675.831	148
678.268	154
680.703	160
683.137	174
685.571	176
688.005	184
690.437	164
692.868	146
695.299	158
697.729	164
700.159	172
702.586	176
705.014	172
707.441	206
709.866	206
712.292	224
714.716	242
717.14	230
719.563	214
721.984	208
724.406	206
726.825	208
729.246	212
731.665	188
734.082	198
736.5	224
738.916	222
741.332	252
743.746	262
746.161	308
748.574	324
750.987	292
753.398	292
755.81	276
758.219	246
760.629	222
763.037	194
765.445	194
767.852	194
770.258	182
772.664	186
775.068	204
777.472	232
779.876	220
782.278	206
784.679	206
787.08	210
789.48	180
791.879	194
794.278	182
796.675	194
799.072	190
801.467	202
803.864	202
806.258	204
808.651	210
811.044	200
813.437	210
815.828	202
818.218	210
820.608	216
822.997	274
825.385	332
827.773	482
830.16	802
832.546	1192
834.931	1130
837.315	664
839.699	406
842.081	292
844.463	268
846.844	262
849.226	264
851.606	242
853.985	246
856.363	252
858.741	228
861.117	226
863.493	218
865.868	188
868.243	212
870.616	190
872.989	190
875.36	194
877.731	186
880.102	180
882.472	208
884.841	186
887.209	178
889.577	168
891.944	178
894.31	184
896.674	178
899.039	178
901.403	170
903.766	170
906.128	184
908.49	170
910.849	190
913.209	174
915.569	168
917.927	162
920.284	174
922.641	168
924.997	180
927.353	196
929.707	212
932.061	190
934.414	204
936.765	208
939.117	232
941.469	230
943.818	246
946.167	264
948.515	338
950.863	436
953.211	534
955.556	684
957.902	896
960.246	944
962.59	882
964.933	806
967.276	604
969.617	534
971.958	442
974.298	358
976.638	300
978.976	248
981.314	240
983.651	236
985.988	214
988.323	194
990.659	248
992.992	228
995.325	208
997.658	214
999.99	210
1002.32	204
1004.65	188
1006.98	200
1009.31	196
1011.64	202
1013.97	214
1016.29	210
1018.62	222
1020.94	238
1023.27	248
1025.59	258
1027.91	264
1030.24	262
1032.56	286
1034.88	286
1037.2	272
1039.52	270
1041.84	270
1044.15	228
1046.47	242
1048.79	220
1051.1	204
1053.42	194
1055.73	206
1058.04	198
1060.36	204
1062.67	184
1064.98	184
1067.29	200
1069.6	188
1071.91	212
1074.22	204
1076.52	198
1078.83	198
1081.14	198
1083.44	196
1085.75	190
1088.05	210
1090.35	202
1092.65	208
1094.95	242
1097.26	224
1099.56	238
1101.86	258
1104.15	300
1106.45	376
1108.75	572
1111.05	870
1113.34	928
1115.64	746
1117.93	496
1120.22	372
1122.52	312
1124.81	288
1127.1	290
1129.39	240
1131.68	262
1133.97	250
1136.26	234
1138.54	234
1140.83	240
1143.12	258
1145.4	230
1147.69	218
1149.97	234
1152.25	224
1154.54	228
1156.82	264
1159.1	266
1161.38	264
1163.66	280
1165.94	250
1168.22	238
1170.49	238
1172.77	274
1175.05	266
1177.32	336
1179.6	388
1181.87	442
1184.14	562
1186.42	678
1188.69	598
1190.96	546
1193.23	456
1195.5	416
1197.77	434
1200.03	446
1202.3	482
1204.57	452
1206.83	420
1209.1	350
1211.36	300
1213.63	248
1215.89	264
1218.15	252
1220.41	256
1222.67	254
1224.93	300
1227.19	316
1229.45	356
1231.71	344
1233.97	308
1236.22	258
1238.48	244
1240.73	216
1242.99	226
1245.24	236
1247.5	238
1249.75	244
1252	212
1254.25	220
1256.5	228
1258.75	230
1261	234
1263.25	254
1265.49	250
1267.74	244
1269.99	254
1272.23	240
1274.48	266
1276.72	284
1278.96	312
1281.21	354
1283.45	352
1285.69	394
1287.93	422
1290.17	444
1292.41	500
1294.64	614
1296.88	792
1299.12	1114
1301.36	1596
1303.59	2092
1305.82	2280
1308.06	1852
1310.29	1322
1312.52	938
1314.76	758
1316.99	644
1319.22	536
1321.45	516
1323.68	486
1325.9	466
1328.13	464
1330.36	442
1332.58	396
1334.81	360
1337.04	320
1339.26	334
1341.48	318
1343.71	350
1345.93	374
1348.15	384
1350.37	374
1352.59	392
1354.81	362
1357.03	326
1359.24	316
1361.46	334
1363.68	320
1365.89	318
1368.11	352
1370.32	382
1372.54	556
1374.75	794
1376.96	1006
1379.17	1058
1381.38	1028
1383.59	872
1385.8	702
1388.01	538
1390.22	376
1392.43	312
1394.63	308
1396.84	306
1399.05	278
1401.25	290
1403.45	270
1405.66	258
1407.86	276
1410.06	300
1412.26	272
1414.46	290
1416.66	324
1418.86	360
1421.06	386
1423.26	386
1425.46	418
1427.65	418
1429.85	416
1432.04	466
1434.24	460
1436.43	498
1438.62	510
1440.82	532
1443.01	518
1445.2	462
1447.39	418
1449.58	432
1451.77	414
1453.95	390
1456.14	412
1458.33	376
1460.52	372
1462.7	382
1464.89	374
1467.07	364
1469.25	394
1471.44	362
1473.62	382
1475.8	370
1477.98	358
1480.16	352
1482.34	322
1484.52	316
1486.7	306
1488.87	324
1491.05	296
1493.23	300
1495.4	292
1497.58	286
1499.75	272
1501.92	288
1504.1	300
1506.27	278
1508.44	284
1510.61	280
1512.78	262
1514.95	272
1517.12	272
1519.28	266
1521.45	276
1523.62	282
1525.78	270
1527.95	270
1530.11	280
1532.28	280
1534.44	282
1536.6	266
1538.76	284
1540.93	262
1543.09	272
1545.25	282
1547.41	270
1549.56	282
1551.72	300
1553.88	312
1556.03	294
1558.19	268
1560.35	290
1562.5	308
1564.65	298
1566.81	298
1568.96	312
1571.11	344
1573.26	360
1575.41	376
1577.56	380
1579.71	420
1581.86	476
1584.01	510
1586.15	576
1588.3	662
1590.45	772
1592.59	936
1594.74	1090
1596.88	1242
1599.02	1400
1601.17	1480
1603.31	1516
1605.45	1422
1607.59	1290
1609.73	1188
1611.87	1012
1614.01	846
1616.14	736
1618.28	622
1620.42	534
1622.55	454
1624.69	414
1626.82	364
1628.96	338
1631.09	318
1633.22	266
1635.36	276
1637.49	280
1639.62	290
1641.75	266
1643.88	268
1646	244
1648.13	258
1650.26	248
1652.39	232
1654.51	228
1656.64	244
1658.76	242
1660.89	216
1663.01	244
1665.13	226
1667.26	244
1669.38	232
1671.5	228
1673.62	218
1675.74	216
1677.86	230
1679.97	224
1682.09	218
1684.21	232
1686.33	240
1688.44	222
1690.56	240
1692.67	246
1694.78	262
1696.9	236
1699.01	242
1701.12	236
1703.23	234
1705.34	238
1707.45	234
1709.56	240
1711.67	218
1713.78	218
1715.88	230
1717.99	228
1720.1	218
1722.2	244
1724.31	218
1726.41	224
1728.51	218
1730.62	222
1732.72	210
1734.82	196
1736.92	216
1739.02	214
1741.12	218
1743.22	216
1745.32	214
1747.42	208
1749.51	218
1751.61	218
1753.7	212
1755.8	222
1757.89	210
1759.99	218
1762.08	230
1764.17	196
1766.26	220
1768.36	218
1770.45	204
1772.54	208
1774.62	230
1776.71	218
1778.8	208
1780.89	204
1782.98	196
1785.06	228
1787.15	224
1789.23	226
1791.32	212
1793.4	190
1795.48	204
1797.56	196
1799.65	206
1801.73	216
1803.81	206
1805.89	204
1807.97	226
1810.04	218
1812.12	224
1814.2	208
1816.28	200
1818.35	206
1820.43	214
1822.5	210
1824.58	206
1826.65	190
1828.72	216
1830.79	210
1832.86	194
1834.94	198
1837.01	200
1839.08	204
1841.15	216
1843.21	212
1845.28	210
1847.35	216
1849.41	210
1851.48	204
1853.55	202
1855.61	214
1857.67	212
1859.74	206
1861.8	200
1863.86	212
1865.92	208
1867.98	218
1870.05	216
1872.1	204
1874.16	224
1876.22	206
1878.28	194
1880.34	214
1882.39	208
1884.45	206
1886.5	224
1888.56	198
1890.61	212
1892.67	214
1894.72	226
1896.77	202
1898.82	228
1900.87	200
1902.92	210
1904.97	224
1907.02	214
1909.07	214
1911.12	204
1913.17	202
1915.21	210
1917.26	206
1919.3	216
1921.35	224
1923.39	214
1925.43	220
1927.48	208
1929.52	210
1931.56	214
1933.6	214
1935.64	208
1937.68	196
1939.72	208
1941.76	216
1943.8	226
1945.83	196
1947.87	206
1949.91	212
1951.94	216
1953.98	200
1956.01	218
1958.05	210
1960.08	192
1962.11	196
1964.14	208
1966.17	202
1968.2	208
1970.23	200
1972.26	220
1974.29	212
1976.32	208
1978.35	204
1980.37	216
1982.4	206
1984.43	206
1986.45	206
1988.48	216
1990.5	214
1992.52	226
1994.55	214
1996.57	226
1998.59	208
2000.61	198
2002.63	200
2004.65	220
2006.67	222
2008.69	212
2010.7	218
2012.72	210
2014.74	206
2016.75	210
2018.77	212
2020.78	210
2022.8	218
2024.81	208
2026.83	204
2028.84	210
2030.85	216
2032.86	216
2034.87	220
2036.88	204
2038.89	222
2040.9	200
2042.91	206
2044.91	214
2046.92	200
2048.93	198
2050.93	224
2052.94	220
2054.94	210
2056.95	200
2058.95	222
2060.95	214
2062.95	196
2064.96	230
2066.96	208
2068.96	222
2070.96	198
2072.96	206
2074.95	218
2076.95	216
2078.95	218
2080.95	206
2082.94	196
2084.94	210
2086.93	220
2088.93	212
2090.92	216
2092.91	186
2094.91	220
2096.9	206
2098.89	212
2100.88	210
2102.87	208
2104.86	210
2106.85	218
2108.84	206
2110.83	206
2112.81	200
2114.8	204
2116.78	192
2118.77	210
2120.75	220
2122.74	210
2124.72	210
2126.71	226
2128.69	210
2130.67	202
2132.65	194
2134.63	228
2136.61	218
2138.59	206
2140.57	216
2142.55	214
2144.53	202
2146.5	202
2148.48	216
2150.46	196
2152.43	198
2154.41	218
2156.38	202
2158.35	216
2160.33	214
2162.3	202
2164.27	198
2166.24	214
2168.21	222
2170.18	208
2172.15	212
2174.12	222
2176.09	220
2178.06	200
2180.03	208
2181.99	216
2183.96	208
2185.92	212
2187.89	232
2189.85	214
2191.82	208
2193.78	210
2195.74	214
2197.7	194
2199.67	204
2201.63	208
2203.59	204
2205.55	208
2207.51	198
2209.46	226
2211.42	210
2213.38	214
2215.34	202
2217.29	218
2219.25	194
2221.2	210
2223.16	210
2225.11	206
2227.06	212
2229.02	192
2230.97	200
2232.92	200
2234.87	210
2236.82	220
2238.77	204
2240.72	214
2242.67	212
2244.62	226
2246.57	214
2248.51	194
2250.46	204
2252.4	192
2254.35	212
2256.29	224
2258.24	202
2260.18	222
2262.13	208
2264.07	218
2266.01	214
2267.95	220
2269.89	210
2271.83	212
2273.77	218
2275.71	218
2277.65	218
2279.58	212
2281.52	200
2283.46	216
2285.4	202
2287.33	190
2289.27	214
2291.2	228
2293.13	208
2295.07	218
2297	202
2298.93	204
2300.86	206
2302.79	218
2304.72	204
2306.65	212
2308.58	210
2310.51	210
2312.44	224
2314.37	218
2316.29	226
2318.22	218
2320.15	214
2322.07	220
2324	216
2325.92	214
2327.84	224
2329.77	210
2331.69	230
2333.61	228
2335.53	226
2337.45	228
2339.37	222
2341.29	194
2343.21	224
2345.13	202
2347.05	208
2348.97	234
2350.88	198
2352.8	202
2354.71	202
2356.63	218
2358.54	202
2360.46	228
2362.37	212
2364.28	190
2366.2	206
2368.11	208
2370.02	212
2371.93	210
2373.84	234
2375.75	214
2377.66	200
2379.57	216
2381.47	206
2383.38	200
2385.29	216
2387.2	202
2389.1	220
2391.01	208
2392.91	228
2394.81	218
2396.72	212
2398.62	218
2400.52	218
2402.42	214
2404.33	216
2406.23	232
2408.13	234
2410.03	214
2411.92	214
2413.82	212
2415.72	224
2417.62	214
2419.51	212
2421.41	202
2423.31	212
2425.2	222
2427.1	194
2428.99	200
2430.88	202
2432.78	226
2434.67	220
2436.56	200
2438.45	208
2440.34	202
2442.23	208
2444.12	214
2446.01	208
2447.9	196
2449.79	202