File: Mixture_Classification/Jesse_Dataset_v2/Pure Raman/Polypropylene oxide/633nm/ps-ppo-7jan25-0,0000-map2_Y08_X05.txt
182.393	692
184.993	652
187.593	604
190.193	602
192.79	604
195.387	566
197.983	550
200.578	542
203.174	492
205.766	516
208.36	456
210.951	478
213.542	442
216.131	428
218.721	482
221.309	488
223.897	594
226.483	746
229.069	892
231.654	1144
234.238	1274
236.821	1254
239.404	1110
241.984	988
244.566	856
247.145	714
249.723	624
252.302	528
254.878	458
257.455	406
260.03	364
262.604	316
265.178	312
267.75	292
270.322	304
272.893	264
275.463	258
278.032	288
280.601	292
283.168	340
285.734	380
288.301	440
290.866	534
293.429	586
295.992	602
298.556	604
301.117	556
303.677	508
306.236	478
308.795	440
311.354	368
313.911	384
316.467	378
319.022	362
321.577	352
324.13	368
326.684	372
329.236	378
331.787	408
334.337	402
336.887	398
339.435	396
341.983	366
344.529	342
347.075	350
349.621	324
352.165	360
354.708	342
357.251	358
359.793	332
362.334	322
364.874	326
367.413	312
369.951	324
372.489	342
375.026	320
377.562	300
380.097	284
382.631	264
385.164	252
387.697	248
390.229	280
392.76	236
395.29	228
397.819	234
400.346	246
402.873	250
405.4	242
407.926	266
410.451	312
412.976	352
415.499	364
418.02	330
420.542	322
423.063	272
425.583	260
428.101	244
430.619	228
433.137	232
435.654	194
438.169	164
440.684	176
443.198	164
445.712	176
448.223	186
450.735	176
453.246	176
455.755	160
458.264	182
460.771	190
463.279	196
465.786	212
468.291	238
470.796	270
473.301	322
475.803	348
478.306	384
480.807	430
483.308	504
485.807	506
488.307	470
490.804	374
493.302	304
495.798	266
498.294	246
500.788	220
503.283	208
505.775	222
508.269	234
510.759	318
513.251	414
515.74	366
518.23	306
520.718	270
523.204	304
525.692	314
528.177	368
530.663	458
533.147	524
535.629	700
538.113	782
540.594	746
543.074	670
545.555	562
548.034	466
550.512	396
552.989	366
555.467	384
557.942	504
560.417	672
562.892	976
565.365	1608
567.838	2530
570.309	3650
572.78	3684
575.251	2664
577.72	1560
580.189	960
582.656	700
585.123	616
587.589	580
590.055	578
592.52	526
594.983	516
597.446	450
599.908	388
602.369	334
604.829	274
607.289	244
609.747	222
612.205	216
614.663	216
617.119	238
619.574	242
622.029	242
624.483	244
626.936	264
629.389	280
631.84	310
634.291	310
636.741	314
639.19	288
641.639	300
644.086	260
646.533	246
648.979	236
651.424	222
653.869	204
656.313	204
658.754	186
661.196	182
663.638	170
666.078	172
668.518	164
670.957	152
673.394	166
675.831	180
678.268	166
680.703	168
683.137	156
685.571	170
688.005	174
690.437	174
692.868	162
695.299	158
697.729	172
700.159	172
702.586	188
705.014	182
707.441	200
709.866	226
712.292	230
714.716	244
717.14	242
719.563	232
721.984	198
724.406	196
726.825	218
729.246	206
731.665	210
734.082	196
736.5	214
738.916	232
741.332	244
743.746	268
746.161	298
748.574	336
750.987	326
753.398	294
755.81	272
758.219	250
760.629	216
763.037	210
765.445	200
767.852	204
770.258	198
772.664	184
775.068	200
777.472	218
779.876	208
782.278	224
784.679	204
787.08	204
789.48	204
791.879	196
794.278	194
796.675	194
799.072	188
801.467	188
803.864	182
806.258	198
808.651	194
811.044	204
813.437	208
815.828	218
818.218	210
820.608	244
822.997	262
825.385	352
827.773	456
830.16	768
832.546	1106
834.931	1120
837.315	696
839.699	400
842.081	306
844.463	272
846.844	246
849.226	288
851.606	262
853.985	244
856.363	214
858.741	242
861.117	214
863.493	220
865.868	212
868.243	204
870.616	204
872.989	176
875.36	178
877.731	182
880.102	188
882.472	216
884.841	178
887.209	194
889.577	186
891.944	194
894.31	174
896.674	188
899.039	186
901.403	198
903.766	188
906.128	176
908.49	170
910.849	162
913.209	172
915.569	176
917.927	196
920.284	192
922.641	182
924.997	180
927.353	176
929.707	194
932.061	204
934.414	202
936.765	206
939.117	226
941.469	226
943.818	236
946.167	288
948.515	340
950.863	414
953.211	534
955.556	672
957.902	860
960.246	914
962.59	870
964.933	726
967.276	602
969.617	564
971.958	448
974.298	360
976.638	288
978.976	266
981.314	250
983.651	252
985.988	244
988.323	228
990.659	228
992.992	234
995.325	224
997.658	212
999.99	206
1002.32	196
1004.65	222
1006.98	204
1009.31	206
1011.64	210
1013.97	216
1016.29	224
1018.62	248
1020.94	250
1023.27	246
1025.59	278
1027.91	270
1030.24	284
1032.56	290
1034.88	262
1037.2	288
1039.52	278
1041.84	272
1044.15	270
1046.47	220
1048.79	218
1051.1	210
1053.42	202
1055.73	212
1058.04	204
1060.36	218
1062.67	194
1064.98	200
1067.29	206
1069.6	198
1071.91	208
1074.22	204
1076.52	218
1078.83	200
1081.14	220
1083.44	210
1085.75	196
1088.05	190
1090.35	218
1092.65	222
1094.95	214
1097.26	236
1099.56	230
1101.86	242
1104.15	286
1106.45	376
1108.75	570
1111.05	798
1113.34	940
1115.64	724
1117.93	480
1120.22	400
1122.52	338
1124.81	304
1127.1	274
1129.39	274
1131.68	264
1133.97	242
1136.26	246
1138.54	246
1140.83	262
1143.12	264
1145.4	246
1147.69	226
1149.97	232
1152.25	234
1154.54	220
1156.82	258
1159.1	266
1161.38	260
1163.66	268
1165.94	276
1168.22	264
1170.49	258
1172.77	258
1175.05	266
1177.32	294
1179.6	366
1181.87	424
1184.14	544
1186.42	644
1188.69	584
1190.96	548
1193.23	440
1195.5	406
1197.77	410
1200.03	428
1202.3	460
1204.57	476
1206.83	424
1209.1	372
1211.36	306
1213.63	282
1215.89	260
1218.15	242
1220.41	228
1222.67	242
1224.93	278
1227.19	312
1229.45	348
1231.71	348
1233.97	296
1236.22	258
1238.48	246
1240.73	242
1242.99	236
1245.24	228
1247.5	220
1249.75	224
1252	238
1254.25	212
1256.5	234
1258.75	230
1261	240
1263.25	246
1265.49	232
1267.74	260
1269.99	262
1272.23	268
1274.48	292
1276.72	276
1278.96	300
1281.21	350
1283.45	352
1285.69	392
1287.93	398
1290.17	434
1292.41	504
1294.64	594
1296.88	798
1299.12	1040
1301.36	1520
1303.59	1964
1305.82	2228
1308.06	1850
1310.29	1314
1312.52	942
1314.76	750
1316.99	644
1319.22	548
1321.45	506
1323.68	458
1325.9	486
1328.13	444
1330.36	446
1332.58	404
1334.81	368
1337.04	350
1339.26	340
1341.48	326
1343.71	348
1345.93	354
1348.15	378
1350.37	390
1352.59	386
1354.81	358
1357.03	354
1359.24	346
1361.46	308
1363.68	298
1365.89	312
1368.11	342
1370.32	402
1372.54	542
1374.75	754
1376.96	918
1379.17	1086
1381.38	1040
1383.59	916
1385.8	718
1388.01	520
1390.22	402
1392.43	312
1394.63	290
1396.84	296
1399.05	304
1401.25	284
1403.45	270
1405.66	262
1407.86	292
1410.06	272
1412.26	288
1414.46	298
1416.66	314
1418.86	348
1421.06	378
1423.26	388
1425.46	416
1427.65	422
1429.85	448
1432.04	428
1434.24	438
1436.43	488
1438.62	498
1440.82	506
1443.01	498
1445.2	456
1447.39	458
1449.58	432
1451.77	408
1453.95	394
1456.14	382
1458.33	392
1460.52	376
1462.7	388
1464.89	374
1467.07	366
1469.25	370
1471.44	350
1473.62	370
1475.8	376
1477.98	348
1480.16	336
1482.34	340
1484.52	334
1486.7	310
1488.87	326
1491.05	292
1493.23	288
1495.4	290
1497.58	286
1499.75	280
1501.92	280
1504.1	288
1506.27	282
1508.44	288
1510.61	300
1512.78	278
1514.95	246
1517.12	266
1519.28	280
1521.45	258
1523.62	268
1525.78	260
1527.95	284
1530.11	292
1532.28	266
1534.44	286
1536.6	276
1538.76	272
1540.93	274
1543.09	294
1545.25	288
1547.41	270
1549.56	268
1551.72	286
1553.88	294
1556.03	304
1558.19	296
1560.35	298
1562.5	296
1564.65	328
1566.81	312
1568.96	312
1571.11	352
1573.26	350
1575.41	360
1577.56	388
1579.71	424
1581.86	444
1584.01	522
1586.15	588
1588.3	652
1590.45	776
1592.59	872
1594.74	1054
1596.88	1182
1599.02	1406
1601.17	1482
1603.31	1484
1605.45	1400
1607.59	1286
1609.73	1160
1611.87	1040
1614.01	870
1616.14	754
1618.28	610
1620.42	540
1622.55	472
1624.69	376
1626.82	372
1628.96	334
1631.09	308
1633.22	322
1635.36	294
1637.49	280
1639.62	256
1641.75	250
1643.88	268
1646	268
1648.13	254
1650.26	242
1652.39	264
1654.51	244
1656.64	250
1658.76	238
1660.89	252
1663.01	244
1665.13	230
1667.26	248
1669.38	242
1671.5	232
1673.62	228
1675.74	234
1677.86	224
1679.97	236
1682.09	218
1684.21	244
1686.33	246
1688.44	256
1690.56	246
1692.67	246
1694.78	244
1696.9	246
1699.01	244
1701.12	236
1703.23	244
1705.34	240
1707.45	248
1709.56	270
1711.67	238
1713.78	246
1715.88	234
1717.99	246
1720.1	232
1722.2	220
1724.31	234
1726.41	214
1728.51	228
1730.62	224
1732.72	222
1734.82	230
1736.92	230
1739.02	236
1741.12	218
1743.22	214
1745.32	228
1747.42	210
1749.51	224
1751.61	212
1753.7	210
1755.8	220
1757.89	230
1759.99	208
1762.08	218
1764.17	224
1766.26	238
1768.36	224
1770.45	218
1772.54	220
1774.62	216
1776.71	208
1778.8	230
1780.89	204
1782.98	210
1785.06	236
1787.15	206
1789.23	212
1791.32	224
1793.4	214
1795.48	218
1797.56	226
1799.65	220
1801.73	228
1803.81	222
1805.89	214
1807.97	212
1810.04	222
1812.12	218
1814.2	216
1816.28	220
1818.35	208
1820.43	232
1822.5	218
1824.58	212
1826.65	240
1828.72	214
1830.79	222
1832.86	200
1834.94	210
1837.01	210
1839.08	204
1841.15	194
1843.21	208
1845.28	212
1847.35	210
1849.41	218
1851.48	222
1853.55	226
1855.61	228
1857.67	212
1859.74	204
1861.8	226
1863.86	230
1865.92	232
1867.98	232
1870.05	216
1872.1	222
1874.16	212
1876.22	212
1878.28	210
1880.34	210
1882.39	218
1884.45	200
1886.5	222
1888.56	200
1890.61	226
1892.67	214
1894.72	226
1896.77	234
1898.82	216
1900.87	216
1902.92	228
1904.97	236
1907.02	214
1909.07	232
1911.12	226
1913.17	226
1915.21	212
1917.26	238
1919.3	206
1921.35	242
1923.39	220
1925.43	190
1927.48	208
1929.52	220
1931.56	210
1933.6	212
1935.64	214
1937.68	212
1939.72	206
1941.76	216
1943.8	204
1945.83	230
1947.87	222
1949.91	214
1951.94	226
1953.98	220
1956.01	212
1958.05	220
1960.08	216
1962.11	226
1964.14	214
1966.17	224
1968.2	212
1970.23	210
1972.26	194
1974.29	210
1976.32	196
1978.35	224
1980.37	228
1982.4	214
1984.43	212
1986.45	222
1988.48	214
1990.5	212
1992.52	216
1994.55	218
1996.57	220
1998.59	228
2000.61	218
2002.63	218
2004.65	212
2006.67	222
2008.69	220
2010.7	242
2012.72	214
2014.74	208
2016.75	218
2018.77	206
2020.78	210
2022.8	218
2024.81	216
2026.83	216
2028.84	218
2030.85	216
2032.86	204
2034.87	210
2036.88	218
2038.89	220
2040.9	224
2042.91	224
2044.91	216
2046.92	222
2048.93	214
2050.93	224
2052.94	218
2054.94	236
2056.95	236
2058.95	214
2060.95	224
2062.95	218
2064.96	220
2066.96	230
2068.96	226
2070.96	214
2072.96	220
2074.95	220
2076.95	226
2078.95	202
2080.95	212
2082.94	232
2084.94	208
2086.93	234
2088.93	222
2090.92	220
2092.91	226
2094.91	218
2096.9	214
2098.89	230
2100.88	212
2102.87	230
2104.86	220
2106.85	226
2108.84	224
2110.83	218
2112.81	230
2114.8	208
2116.78	230
2118.77	218
2120.75	230
2122.74	224
2124.72	214
2126.71	230
2128.69	212
2130.67	216
2132.65	226
2134.63	208
2136.61	208
2138.59	220
2140.57	218
2142.55	226
2144.53	210
2146.5	224
2148.48	216
2150.46	206
2152.43	210
2154.41	212
2156.38	234
2158.35	218
2160.33	218
2162.3	224
2164.27	224
2166.24	208
2168.21	210
2170.18	210
2172.15	214
2174.12	202
2176.09	212
2178.06	192
2180.03	202
2181.99	208
2183.96	224
2185.92	218
2187.89	216
2189.85	226
2191.82	234
2193.78	210
2195.74	212
2197.7	222
2199.67	216
2201.63	218
2203.59	206
2205.55	220
2207.51	236
2209.46	228
2211.42	212
2213.38	216
2215.34	214
2217.29	234
2219.25	204
2221.2	208
2223.16	202
2225.11	198
2227.06	228
2229.02	220
2230.97	208
2232.92	190
2234.87	236
2236.82	204
2238.77	214
2240.72	214
2242.67	208
2244.62	226
2246.57	230
2248.51	216
2250.46	214
2252.4	214
2254.35	206
2256.29	208
2258.24	230
2260.18	216
2262.13	234
2264.07	216
2266.01	226
2267.95	210
2269.89	212
2271.83	210
2273.77	226
2275.71	212
2277.65	208
2279.58	208
2281.52	214
2283.46	228
2285.4	212
2287.33	212
2289.27	220
2291.2	208
2293.13	210
2295.07	210
2297	208
2298.93	234
2300.86	220
2302.79	214
2304.72	224
2306.65	224
2308.58	216
2310.51	228
2312.44	236
2314.37	224
2316.29	206
2318.22	234
2320.15	220
2322.07	224
2324	232
2325.92	222
2327.84	230
2329.77	222
2331.69	220
2333.61	246
2335.53	220
2337.45	232
2339.37	228
2341.29	226
2343.21	216
2345.13	226
2347.05	236
2348.97	238
2350.88	212
2352.8	218
2354.71	222
2356.63	216
2358.54	216
2360.46	220
2362.37	212
2364.28	212
2366.2	216
2368.11	220
2370.02	218
2371.93	222
2373.84	216
2375.75	216
2377.66	220
2379.57	212
2381.47	218
2383.38	242
2385.29	220
2387.2	222
2389.1	222
2391.01	224
2392.91	234
2394.81	210
2396.72	222
2398.62	236
2400.52	238
2402.42	228
2404.33	248
2406.23	234
2408.13	248
2410.03	230
2411.92	218
2413.82	216
2415.72	204
2417.62	232
2419.51	214
2421.41	224
2423.31	224
2425.2	226
2427.1	216
2428.99	212
2430.88	210
2432.78	222
2434.67	208
2436.56	206
2438.45	208
2440.34	206
2442.23	232
2444.12	214
2446.01	226
2447.9	216
2449.79	210