File: Mixture_Classification/Jesse_Dataset_v2/Pure Raman/Polypropylene oxide/633nm/ps-ppo-7jan25-0,0000-map2_Y07_X00.txt
182.393	724
184.993	676
187.593	640
190.193	620
192.79	594
195.387	602
197.983	568
200.578	546
203.174	522
205.766	510
208.36	504
210.951	482
213.542	484
216.131	458
218.721	510
221.309	518
223.897	614
226.483	738
229.069	952
231.654	1200
234.238	1306
236.821	1236
239.404	1170
241.984	1022
244.566	904
247.145	770
249.723	660
252.302	552
254.878	490
257.455	428
260.03	362
262.604	364
265.178	328
267.75	338
270.322	306
272.893	306
275.463	308
278.032	318
280.601	320
283.168	336
285.734	404
288.301	468
290.866	568
293.429	618
295.992	632
298.556	622
301.117	598
303.677	498
306.236	468
308.795	436
311.354	440
313.911	400
316.467	374
319.022	380
321.577	400
324.13	366
326.684	394
329.236	380
331.787	424
334.337	404
336.887	410
339.435	412
341.983	398
344.529	356
347.075	368
349.621	352
352.165	384
354.708	386
357.251	372
359.793	368
362.334	352
364.874	334
367.413	320
369.951	368
372.489	358
375.026	336
377.562	334
380.097	310
382.631	296
385.164	286
387.697	266
390.229	276
392.76	278
395.29	260
397.819	262
400.346	264
402.873	250
405.4	286
407.926	298
410.451	340
412.976	366
415.499	410
418.02	366
420.542	340
423.063	290
425.583	258
428.101	266
430.619	256
433.137	218
435.654	224
438.169	210
440.684	196
443.198	206
445.712	200
448.223	206
450.735	194
453.246	184
455.755	202
458.264	200
460.771	202
463.279	224
465.786	234
468.291	262
470.796	284
473.301	326
475.803	362
478.306	420
480.807	456
483.308	526
485.807	528
488.307	486
490.804	372
493.302	316
495.798	294
498.294	232
500.788	230
503.283	232
505.775	228
508.269	272
510.759	358
513.251	410
515.74	398
518.23	342
520.718	304
523.204	324
525.692	348
528.177	392
530.663	478
533.147	594
535.629	724
538.113	816
540.594	772
543.074	730
545.555	576
548.034	440
550.512	394
552.989	424
555.467	446
557.942	518
560.417	688
562.892	1002
565.365	1630
567.838	2702
570.309	3700
572.78	3708
575.251	2688
577.72	1552
580.189	938
582.656	742
585.123	662
587.589	612
590.055	598
592.52	546
594.983	494
597.446	488
599.908	392
602.369	336
604.829	308
607.289	248
609.747	242
612.205	234
614.663	244
617.119	216
619.574	254
622.029	242
624.483	260
626.936	290
629.389	324
631.84	326
634.291	354
636.741	332
639.19	326
641.639	322
644.086	292
646.533	278
648.979	254
651.424	234
653.869	238
656.313	216
658.754	216
661.196	192
663.638	176
666.078	208
668.518	192
670.957	196
673.394	206
675.831	192
678.268	198
680.703	186
683.137	184
685.571	206
688.005	192
690.437	206
692.868	184
695.299	190
697.729	186
700.159	190
702.586	192
705.014	220
707.441	218
709.866	218
712.292	246
714.716	258
717.14	248
719.563	262
721.984	226
724.406	248
726.825	210
729.246	220
731.665	226
734.082	234
736.5	236
738.916	256
741.332	246
743.746	306
746.161	336
748.574	352
750.987	338
753.398	310
755.81	306
758.219	292
760.629	240
763.037	212
765.445	218
767.852	208
770.258	218
772.664	214
775.068	236
777.472	226
779.876	260
782.278	216
784.679	224
787.08	210
789.48	214
791.879	228
794.278	226
796.675	194
799.072	206
801.467	212
803.864	214
806.258	242
808.651	232
811.044	252
813.437	216
815.828	230
818.218	246
820.608	264
822.997	294
825.385	368
827.773	514
830.16	840
832.546	1190
834.931	1130
837.315	718
839.699	428
842.081	328
844.463	296
846.844	276
849.226	300
851.606	276
853.985	256
856.363	244
858.741	264
861.117	236
863.493	238
865.868	232
868.243	234
870.616	236
872.989	204
875.36	218
877.731	220
880.102	210
882.472	200
884.841	192
887.209	218
889.577	200
891.944	200
894.31	198
896.674	192
899.039	190
901.403	202
903.766	200
906.128	192
908.49	186
910.849	194
913.209	200
915.569	210
917.927	204
920.284	194
922.641	206
924.997	202
927.353	208
929.707	206
932.061	214
934.414	214
936.765	214
939.117	248
941.469	228
943.818	282
946.167	302
948.515	370
950.863	440
953.211	564
955.556	690
957.902	884
960.246	988
962.59	886
964.933	794
967.276	642
969.617	560
971.958	508
974.298	392
976.638	320
978.976	280
981.314	258
983.651	260
985.988	246
988.323	232
990.659	240
992.992	238
995.325	240
997.658	240
999.99	230
1002.32	234
1004.65	220
1006.98	230
1009.31	214
1011.64	248
1013.97	216
1016.29	250
1018.62	244
1020.94	242
1023.27	268
1025.59	284
1027.91	294
1030.24	276
1032.56	310
1034.88	324
1037.2	308
1039.52	300
1041.84	286
1044.15	276
1046.47	268
1048.79	244
1051.1	224
1053.42	240
1055.73	242
1058.04	224
1060.36	246
1062.67	224
1064.98	232
1067.29	230
1069.6	240
1071.91	212
1074.22	218
1076.52	236
1078.83	222
1081.14	232
1083.44	220
1085.75	232
1088.05	232
1090.35	230
1092.65	240
1094.95	248
1097.26	236
1099.56	252
1101.86	268
1104.15	328
1106.45	388
1108.75	608
1111.05	852
1113.34	928
1115.64	782
1117.93	546
1120.22	416
1122.52	372
1124.81	330
1127.1	278
1129.39	270
1131.68	262
1133.97	286
1136.26	286
1138.54	268
1140.83	272
1143.12	278
1145.4	280
1147.69	254
1149.97	258
1152.25	228
1154.54	250
1156.82	266
1159.1	284
1161.38	296
1163.66	314
1165.94	290
1168.22	274
1170.49	278
1172.77	272
1175.05	300
1177.32	326
1179.6	396
1181.87	442
1184.14	576
1186.42	656
1188.69	634
1190.96	538
1193.23	470
1195.5	450
1197.77	440
1200.03	480
1202.3	502
1204.57	476
1206.83	438
1209.1	384
1211.36	324
1213.63	300
1215.89	268
1218.15	258
1220.41	274
1222.67	274
1224.93	300
1227.19	354
1229.45	382
1231.71	356
1233.97	336
1236.22	302
1238.48	260
1240.73	266
1242.99	244
1245.24	256
1247.5	248
1249.75	270
1252	254
1254.25	246
1256.5	264
1258.75	276
1261	262
1263.25	258
1265.49	270
1267.74	262
1269.99	256
1272.23	296
1274.48	278
1276.72	314
1278.96	320
1281.21	322
1283.45	380
1285.69	416
1287.93	462
1290.17	470
1292.41	514
1294.64	628
1296.88	794
1299.12	1134
1301.36	1606
1303.59	2044
1305.82	2294
1308.06	1904
1310.29	1328
1312.52	970
1314.76	746
1316.99	674
1319.22	558
1321.45	502
1323.68	542
1325.9	498
1328.13	474
1330.36	484
1332.58	418
1334.81	410
1337.04	360
1339.26	366
1341.48	354
1343.71	396
1345.93	384
1348.15	384
1350.37	400
1352.59	404
1354.81	384
1357.03	366
1359.24	340
1361.46	348
1363.68	328
1365.89	356
1368.11	388
1370.32	426
1372.54	568
1374.75	766
1376.96	958
1379.17	1092
1381.38	1062
1383.59	956
1385.8	742
1388.01	554
1390.22	436
1392.43	356
1394.63	308
1396.84	296
1399.05	298
1401.25	308
1403.45	304
1405.66	292
1407.86	300
1410.06	302
1412.26	324
1414.46	338
1416.66	374
1418.86	372
1421.06	400
1423.26	428
1425.46	424
1427.65	426
1429.85	448
1432.04	462
1434.24	492
1436.43	510
1438.62	518
1440.82	558
1443.01	498
1445.2	504
1447.39	438
1449.58	434
1451.77	434
1453.95	404
1456.14	416
1458.33	406
1460.52	386
1462.7	376
1464.89	382
1467.07	394
1469.25	372
1471.44	386
1473.62	408
1475.8	398
1477.98	358
1480.16	382
1482.34	374
1484.52	338
1486.7	340
1488.87	336
1491.05	324
1493.23	324
1495.4	316
1497.58	314
1499.75	312
1501.92	302
1504.1	296
1506.27	298
1508.44	302
1510.61	322
1512.78	300
1514.95	314
1517.12	316
1519.28	292
1521.45	300
1523.62	306
1525.78	294
1527.95	286
1530.11	314
1532.28	292
1534.44	298
1536.6	312
1538.76	310
1540.93	308
1543.09	298
1545.25	312
1547.41	304
1549.56	306
1551.72	306
1553.88	290
1556.03	322
1558.19	310
1560.35	316
1562.5	342
1564.65	288
1566.81	326
1568.96	338
1571.11	346
1573.26	370
1575.41	390
1577.56	400
1579.71	442
1581.86	472
1584.01	542
1586.15	584
1588.3	676
1590.45	782
1592.59	942
1594.74	1030
1596.88	1264
1599.02	1414
1601.17	1500
1603.31	1490
1605.45	1432
1607.59	1314
1609.73	1162
1611.87	1006
1614.01	892
1616.14	768
1618.28	660
1620.42	534
1622.55	474
1624.69	432
1626.82	370
1628.96	372
1631.09	330
1633.22	320
1635.36	298
1637.49	300
1639.62	286
1641.75	296
1643.88	274
1646	266
1648.13	298
1650.26	254
1652.39	256
1654.51	268
1656.64	276
1658.76	260
1660.89	266
1663.01	284
1665.13	260
1667.26	270
1669.38	258
1671.5	258
1673.62	250
1675.74	268
1677.86	256
1679.97	260
1682.09	262
1684.21	246
1686.33	264
1688.44	272
1690.56	272
1692.67	274
1694.78	270
1696.9	274
1699.01	260
1701.12	306
1703.23	254
1705.34	288
1707.45	268
1709.56	264
1711.67	274
1713.78	246
1715.88	240
1717.99	266
1720.1	262
1722.2	246
1724.31	238
1726.41	244
1728.51	268
1730.62	242
1732.72	244
1734.82	226
1736.92	238
1739.02	232
1741.12	228
1743.22	254
1745.32	234
1747.42	250
1749.51	236
1751.61	232
1753.7	234
1755.8	246
1757.89	226
1759.99	232
1762.08	250
1764.17	244
1766.26	240
1768.36	236
1770.45	230
1772.54	240
1774.62	232
1776.71	226
1778.8	234
1780.89	236
1782.98	234
1785.06	236
1787.15	228
1789.23	236
1791.32	224
1793.4	228
1795.48	250
1797.56	246
1799.65	234
1801.73	230
1803.81	220
1805.89	240
1807.97	246
1810.04	234
1812.12	238
1814.2	240
1816.28	236
1818.35	238
1820.43	234
1822.5	242
1824.58	250
1826.65	232
1828.72	224
1830.79	230
1832.86	244
1834.94	226
1837.01	228
1839.08	228
1841.15	220
1843.21	238
1845.28	236
1847.35	244
1849.41	232
1851.48	230
1853.55	212
1855.61	226
1857.67	232
1859.74	246
1861.8	238
1863.86	228
1865.92	246
1867.98	232
1870.05	244
1872.1	220
1874.16	234
1876.22	238
1878.28	244
1880.34	232
1882.39	220
1884.45	242
1886.5	236
1888.56	240
1890.61	230
1892.67	232
1894.72	246
1896.77	234
1898.82	236
1900.87	228
1902.92	226
1904.97	244
1907.02	252
1909.07	234
1911.12	238
1913.17	236
1915.21	238
1917.26	242
1919.3	226
1921.35	244
1923.39	232
1925.43	228
1927.48	224
1929.52	248
1931.56	246
1933.6	238
1935.64	238
1937.68	234
1939.72	232
1941.76	218
1943.8	230
1945.83	224
1947.87	222
1949.91	260
1951.94	254
1953.98	232
1956.01	238
1958.05	240
1960.08	230
1962.11	226
1964.14	226
1966.17	224
1968.2	228
1970.23	218
1972.26	238
1974.29	228
1976.32	214
1978.35	226
1980.37	224
1982.4	240
1984.43	212
1986.45	226
1988.48	232
1990.5	224
1992.52	232
1994.55	226
1996.57	222
1998.59	228
2000.61	238
2002.63	236
2004.65	228
2006.67	222
2008.69	222
2010.7	234
2012.72	228
2014.74	232
2016.75	234
2018.77	222
2020.78	218
2022.8	222
2024.81	238
2026.83	224
2028.84	232
2030.85	238
2032.86	222
2034.87	202
2036.88	226
2038.89	226
2040.9	246
2042.91	228
2044.91	224
2046.92	256
2048.93	228
2050.93	240
2052.94	236
2054.94	254
2056.95	220
2058.95	242
2060.95	234
2062.95	244
2064.96	236
2066.96	238
2068.96	228
2070.96	238
2072.96	222
2074.95	228
2076.95	218
2078.95	236
2080.95	234
2082.94	238
2084.94	220
2086.93	242
2088.93	208
2090.92	242
2092.91	254
2094.91	232
2096.9	242
2098.89	226
2100.88	218
2102.87	222
2104.86	230
2106.85	226
2108.84	236
2110.83	232
2112.81	236
2114.8	236
2116.78	250
2118.77	232
2120.75	236
2122.74	232
2124.72	246
2126.71	220
2128.69	228
2130.67	238
2132.65	238
2134.63	218
2136.61	230
2138.59	230
2140.57	242
2142.55	220
2144.53	226
2146.5	220
2148.48	226
2150.46	236
2152.43	224
2154.41	232
2156.38	232
2158.35	222
2160.33	234
2162.3	242
2164.27	214
2166.24	238
2168.21	240
2170.18	212
2172.15	218
2174.12	246
2176.09	244
2178.06	228
2180.03	216
2181.99	226
2183.96	212
2185.92	220
2187.89	212
2189.85	210
2191.82	212
2193.78	224
2195.74	250
2197.7	238
2199.67	208
2201.63	226
2203.59	220
2205.55	216
2207.51	220
2209.46	240
2211.42	222
2213.38	220
2215.34	216
2217.29	232
2219.25	226
2221.2	232
2223.16	212
2225.11	220
2227.06	210
2229.02	210
2230.97	208
2232.92	230
2234.87	226
2236.82	232
2238.77	232
2240.72	242
2242.67	224
2244.62	232
2246.57	230
2248.51	208
2250.46	214
2252.4	230
2254.35	222
2256.29	232
2258.24	222
2260.18	228
2262.13	222
2264.07	228
2266.01	222
2267.95	220
2269.89	228
2271.83	232
2273.77	240
2275.71	246
2277.65	232
2279.58	224
2281.52	246
2283.46	218
2285.4	218
2287.33	226
2289.27	214
2291.2	228
2293.13	216
2295.07	214
2297	230
2298.93	226
2300.86	220
2302.79	244
2304.72	238
2306.65	228
2308.58	220
2310.51	246
2312.44	226
2314.37	240
2316.29	222
2318.22	252
2320.15	244
2322.07	224
2324	232
2325.92	226
2327.84	236
2329.77	254
2331.69	228
2333.61	218
2335.53	238
2337.45	248
2339.37	254
2341.29	222
2343.21	208
2345.13	232
2347.05	250
2348.97	234
2350.88	226
2352.8	224
2354.71	238
2356.63	244
2358.54	236
2360.46	210
2362.37	226
2364.28	224
2366.2	222
2368.11	230
2370.02	232
2371.93	228
2373.84	204
2375.75	222
2377.66	230
2379.57	232
2381.47	236
2383.38	236
2385.29	242
2387.2	238
2389.1	238
2391.01	252
2392.91	222
2394.81	240
2396.72	228
2398.62	216
2400.52	246
2402.42	220
2404.33	248
2406.23	240
2408.13	236
2410.03	232
2411.92	232
2413.82	234
2415.72	236
2417.62	218
2419.51	220
2421.41	234
2423.31	232
2425.2	204
2427.1	236
2428.99	216
2430.88	222
2432.78	210
2434.67	214
2436.56	240
2438.45	222
2440.34	198
2442.23	230
2444.12	200
2446.01	224
2447.9	206
2449.79	230