File: Mixture_Classification/Jesse_Dataset_v2/Pure Raman/Polypropylene oxide/633nm/ps-ppo-7jan25-0,0000-map2_Y10_X03.txt
182.393	694
184.993	652
187.593	626
190.193	592
192.79	592
195.387	540
197.983	524
200.578	500
203.174	504
205.766	498
208.36	478
210.951	486
213.542	440
216.131	424
218.721	436
221.309	514
223.897	576
226.483	684
229.069	882
231.654	1080
234.238	1246
236.821	1206
239.404	1092
241.984	998
244.566	886
247.145	740
249.723	630
252.302	538
254.878	462
257.455	404
260.03	356
262.604	304
265.178	310
267.75	298
270.322	274
272.893	272
275.463	268
278.032	274
280.601	296
283.168	318
285.734	356
288.301	442
290.866	516
293.429	540
295.992	616
298.556	588
301.117	556
303.677	448
306.236	456
308.795	408
311.354	374
313.911	388
316.467	332
319.022	344
321.577	350
324.13	362
326.684	366
329.236	374
331.787	392
334.337	386
336.887	398
339.435	374
341.983	332
344.529	346
347.075	336
349.621	342
352.165	350
354.708	340
357.251	356
359.793	330
362.334	334
364.874	286
367.413	310
369.951	326
372.489	300
375.026	326
377.562	318
380.097	264
382.631	266
385.164	228
387.697	244
390.229	220
392.76	224
395.29	240
397.819	212
400.346	230
402.873	242
405.4	244
407.926	252
410.451	292
412.976	330
415.499	358
418.02	340
420.542	302
423.063	270
425.583	226
428.101	216
430.619	210
433.137	186
435.654	182
438.169	190
440.684	174
443.198	156
445.712	160
448.223	164
450.735	172
453.246	150
455.755	180
458.264	174
460.771	154
463.279	184
465.786	188
468.291	210
470.796	258
473.301	306
475.803	344
478.306	390
480.807	432
483.308	478
485.807	488
488.307	448
490.804	346
493.302	320
495.798	266
498.294	228
500.788	216
503.283	212
505.775	210
508.269	240
510.759	312
513.251	406
515.74	386
518.23	292
520.718	272
523.204	272
525.692	320
528.177	370
530.663	480
533.147	576
535.629	666
538.113	740
540.594	766
543.074	702
545.555	564
548.034	442
550.512	392
552.989	394
555.467	388
557.942	484
560.417	622
562.892	964
565.365	1580
567.838	2476
570.309	3520
572.78	3580
575.251	2618
577.72	1546
580.189	964
582.656	696
585.123	626
587.589	582
590.055	538
592.52	522
594.983	472
597.446	464
599.908	366
602.369	310
604.829	266
607.289	228
609.747	228
612.205	208
614.663	198
617.119	222
619.574	204
622.029	246
624.483	252
626.936	260
629.389	278
631.84	286
634.291	312
636.741	300
639.19	298
641.639	270
644.086	250
646.533	252
648.979	234
651.424	204
653.869	200
656.313	190
658.754	184
661.196	164
663.638	164
666.078	172
668.518	166
670.957	164
673.394	170
675.831	146
678.268	166
680.703	142
683.137	152
685.571	170
688.005	160
690.437	160
692.868	158
695.299	144
697.729	160
700.159	170
702.586	154
705.014	184
707.441	188
709.866	202
712.292	216
714.716	254
717.14	232
719.563	196
721.984	210
724.406	194
726.825	196
729.246	182
731.665	202
734.082	204
736.5	220
738.916	214
741.332	228
743.746	250
746.161	314
748.574	316
750.987	308
753.398	274
755.81	262
758.219	240
760.629	206
763.037	198
765.445	194
767.852	170
770.258	190
772.664	190
775.068	206
777.472	196
779.876	184
782.278	216
784.679	206
787.08	208
789.48	180
791.879	206
794.278	198
796.675	182
799.072	184
801.467	184
803.864	176
806.258	202
808.651	212
811.044	192
813.437	204
815.828	184
818.218	216
820.608	244
822.997	258
825.385	316
827.773	458
830.16	770
832.546	1088
834.931	1080
837.315	662
839.699	386
842.081	306
844.463	282
846.844	248
849.226	262
851.606	266
853.985	232
856.363	218
858.741	232
861.117	238
863.493	198
865.868	208
868.243	180
870.616	166
872.989	192
875.36	172
877.731	178
880.102	182
882.472	170
884.841	178
887.209	178
889.577	164
891.944	180
894.31	162
896.674	162
899.039	168
901.403	162
903.766	158
906.128	164
908.49	172
910.849	166
913.209	174
915.569	174
917.927	168
920.284	156
922.641	172
924.997	176
927.353	168
929.707	166
932.061	190
934.414	176
936.765	202
939.117	214
941.469	212
943.818	230
946.167	286
948.515	308
950.863	394
953.211	502
955.556	672
957.902	798
960.246	906
962.59	892
964.933	770
967.276	638
969.617	526
971.958	436
974.298	358
976.638	278
978.976	266
981.314	238
983.651	208
985.988	220
988.323	208
990.659	224
992.992	214
995.325	206
997.658	198
999.99	202
1002.32	196
1004.65	190
1006.98	196
1009.31	190
1011.64	184
1013.97	188
1016.29	220
1018.62	222
1020.94	216
1023.27	240
1025.59	232
1027.91	252
1030.24	266
1032.56	260
1034.88	264
1037.2	280
1039.52	274
1041.84	242
1044.15	242
1046.47	218
1048.79	206
1051.1	208
1053.42	188
1055.73	206
1058.04	192
1060.36	190
1062.67	192
1064.98	176
1067.29	190
1069.6	184
1071.91	192
1074.22	186
1076.52	192
1078.83	178
1081.14	212
1083.44	196
1085.75	200
1088.05	190
1090.35	192
1092.65	206
1094.95	214
1097.26	220
1099.56	212
1101.86	224
1104.15	276
1106.45	354
1108.75	532
1111.05	794
1113.34	888
1115.64	710
1117.93	502
1120.22	386
1122.52	296
1124.81	290
1127.1	262
1129.39	264
1131.68	250
1133.97	236
1136.26	234
1138.54	236
1140.83	238
1143.12	252
1145.4	246
1147.69	220
1149.97	222
1152.25	230
1154.54	224
1156.82	222
1159.1	246
1161.38	254
1163.66	268
1165.94	226
1168.22	264
1170.49	266
1172.77	250
1175.05	290
1177.32	278
1179.6	348
1181.87	418
1184.14	518
1186.42	614
1188.69	572
1190.96	488
1193.23	434
1195.5	406
1197.77	410
1200.03	434
1202.3	480
1204.57	462
1206.83	418
1209.1	348
1211.36	294
1213.63	252
1215.89	242
1218.15	240
1220.41	230
1222.67	244
1224.93	252
1227.19	302
1229.45	352
1231.71	342
1233.97	304
1236.22	274
1238.48	246
1240.73	242
1242.99	224
1245.24	212
1247.5	226
1249.75	228
1252	214
1254.25	216
1256.5	218
1258.75	234
1261	238
1263.25	236
1265.49	236
1267.74	234
1269.99	232
1272.23	242
1274.48	242
1276.72	266
1278.96	276
1281.21	306
1283.45	354
1285.69	358
1287.93	386
1290.17	410
1292.41	464
1294.64	564
1296.88	762
1299.12	996
1301.36	1540
1303.59	1916
1305.82	2134
1308.06	1836
1310.29	1328
1312.52	906
1314.76	726
1316.99	612
1319.22	560
1321.45	492
1323.68	456
1325.9	442
1328.13	442
1330.36	434
1332.58	400
1334.81	342
1337.04	338
1339.26	324
1341.48	334
1343.71	336
1345.93	340
1348.15	376
1350.37	382
1352.59	372
1354.81	344
1357.03	328
1359.24	312
1361.46	306
1363.68	278
1365.89	308
1368.11	326
1370.32	362
1372.54	504
1374.75	734
1376.96	944
1379.17	1014
1381.38	1030
1383.59	900
1385.8	702
1388.01	516
1390.22	374
1392.43	312
1394.63	282
1396.84	274
1399.05	260
1401.25	248
1403.45	254
1405.66	258
1407.86	244
1410.06	284
1412.26	284
1414.46	282
1416.66	294
1418.86	312
1421.06	364
1423.26	376
1425.46	388
1427.65	412
1429.85	422
1432.04	402
1434.24	440
1436.43	478
1438.62	468
1440.82	506
1443.01	462
1445.2	454
1447.39	428
1449.58	398
1451.77	396
1453.95	370
1456.14	358
1458.33	372
1460.52	384
1462.7	342
1464.89	344
1467.07	348
1469.25	342
1471.44	338
1473.62	324
1475.8	360
1477.98	332
1480.16	330
1482.34	336
1484.52	310
1486.7	296
1488.87	278
1491.05	278
1493.23	274
1495.4	252
1497.58	262
1499.75	254
1501.92	270
1504.1	264
1506.27	264
1508.44	268
1510.61	254
1512.78	280
1514.95	250
1517.12	258
1519.28	254
1521.45	254
1523.62	256
1525.78	248
1527.95	264
1530.11	248
1532.28	252
1534.44	262
1536.6	268
1538.76	242
1540.93	254
1543.09	264
1545.25	264
1547.41	250
1549.56	288
1551.72	264
1553.88	264
1556.03	272
1558.19	286
1560.35	286
1562.5	282
1564.65	284
1566.81	294
1568.96	310
1571.11	308
1573.26	336
1575.41	342
1577.56	376
1579.71	404
1581.86	422
1584.01	480
1586.15	550
1588.3	632
1590.45	722
1592.59	886
1594.74	1010
1596.88	1164
1599.02	1320
1601.17	1440
1603.31	1478
1605.45	1390
1607.59	1280
1609.73	1126
1611.87	978
1614.01	850
1616.14	722
1618.28	600
1620.42	522
1622.55	456
1624.69	400
1626.82	338
1628.96	330
1631.09	298
1633.22	304
1635.36	260
1637.49	276
1639.62	228
1641.75	232
1643.88	258
1646	228
1648.13	244
1650.26	242
1652.39	226
1654.51	226
1656.64	220
1658.76	226
1660.89	222
1663.01	228
1665.13	226
1667.26	222
1669.38	210
1671.5	212
1673.62	240
1675.74	234
1677.86	230
1679.97	206
1682.09	216
1684.21	226
1686.33	226
1688.44	226
1690.56	250
1692.67	226
1694.78	234
1696.9	212
1699.01	236
1701.12	232
1703.23	238
1705.34	246
1707.45	222
1709.56	234
1711.67	220
1713.78	230
1715.88	236
1717.99	214
1720.1	218
1722.2	238
1724.31	214
1726.41	204
1728.51	204
1730.62	204
1732.72	200
1734.82	200
1736.92	200
1739.02	198
1741.12	202
1743.22	204
1745.32	206
1747.42	222
1749.51	214
1751.61	192
1753.7	202
1755.8	206
1757.89	222
1759.99	204
1762.08	208
1764.17	200
1766.26	206
1768.36	206
1770.45	194
1772.54	206
1774.62	202
1776.71	216
1778.8	208
1780.89	200
1782.98	202
1785.06	206
1787.15	200
1789.23	212
1791.32	208
1793.4	218
1795.48	206
1797.56	204
1799.65	198
1801.73	194
1803.81	186
1805.89	192
1807.97	212
1810.04	192
1812.12	220
1814.2	194
1816.28	192
1818.35	194
1820.43	192
1822.5	202
1824.58	214
1826.65	208
1828.72	184
1830.79	208
1832.86	204
1834.94	200
1837.01	204
1839.08	188
1841.15	194
1843.21	192
1845.28	186
1847.35	220
1849.41	186
1851.48	198
1853.55	174
1855.61	182
1857.67	188
1859.74	208
1861.8	216
1863.86	194
1865.92	198
1867.98	198
1870.05	204
1872.1	198
1874.16	216
1876.22	194
1878.28	194
1880.34	194
1882.39	188
1884.45	202
1886.5	184
1888.56	208
1890.61	186
1892.67	188
1894.72	200
1896.77	216
1898.82	210
1900.87	200
1902.92	214
1904.97	192
1907.02	198
1909.07	196
1911.12	210
1913.17	200
1915.21	196
1917.26	206
1919.3	188
1921.35	218
1923.39	202
1925.43	198
1927.48	212
1929.52	196
1931.56	198
1933.6	200
1935.64	196
1937.68	212
1939.72	192
1941.76	208
1943.8	192
1945.83	206
1947.87	204
1949.91	208
1951.94	188
1953.98	202
1956.01	198
1958.05	196
1960.08	206
1962.11	192
1964.14	206
1966.17	200
1968.2	196
1970.23	218
1972.26	188
1974.29	200
1976.32	200
1978.35	200
1980.37	192
1982.4	202
1984.43	196
1986.45	198
1988.48	202
1990.5	228
1992.52	214
1994.55	210
1996.57	184
1998.59	192
2000.61	206
2002.63	196
2004.65	202
2006.67	204
2008.69	202
2010.7	204
2012.72	208
2014.74	220
2016.75	202
2018.77	210
2020.78	194
2022.8	204
2024.81	196
2026.83	194
2028.84	194
2030.85	204
2032.86	212
2034.87	204
2036.88	196
2038.89	194
2040.9	206
2042.91	198
2044.91	182
2046.92	192
2048.93	208
2050.93	204
2052.94	212
2054.94	210
2056.95	214
2058.95	198
2060.95	200
2062.95	194
2064.96	200
2066.96	212
2068.96	186
2070.96	208
2072.96	204
2074.95	198
2076.95	204
2078.95	196
2080.95	186
2082.94	202
2084.94	198
2086.93	198
2088.93	206
2090.92	190
2092.91	192
2094.91	208
2096.9	196
2098.89	194
2100.88	200
2102.87	198
2104.86	202
2106.85	204
2108.84	198
2110.83	200
2112.81	200
2114.8	186
2116.78	196
2118.77	206
2120.75	190
2122.74	208
2124.72	194
2126.71	196
2128.69	208
2130.67	206
2132.65	192
2134.63	194
2136.61	190
2138.59	210
2140.57	200
2142.55	202
2144.53	206
2146.5	212
2148.48	196
2150.46	192
2152.43	200
2154.41	220
2156.38	208
2158.35	194
2160.33	176
2162.3	186
2164.27	202
2166.24	198
2168.21	208
2170.18	214
2172.15	188
2174.12	202
2176.09	208
2178.06	204
2180.03	192
2181.99	200
2183.96	206
2185.92	200
2187.89	210
2189.85	178
2191.82	216
2193.78	192
2195.74	196
2197.7	202
2199.67	192
2201.63	208
2203.59	186
2205.55	182
2207.51	182
2209.46	200
2211.42	188
2213.38	202
2215.34	208
2217.29	210
2219.25	190
2221.2	206
2223.16	190
2225.11	190
2227.06	202
2229.02	200
2230.97	198
2232.92	184
2234.87	202
2236.82	192
2238.77	204
2240.72	202
2242.67	198
2244.62	204
2246.57	204
2248.51	214
2250.46	192
2252.4	188
2254.35	210
2256.29	198
2258.24	192
2260.18	202
2262.13	200
2264.07	192
2266.01	202
2267.95	204
2269.89	200
2271.83	194
2273.77	208
2275.71	220
2277.65	194
2279.58	186
2281.52	212
2283.46	200
2285.4	196
2287.33	194
2289.27	206
2291.2	222
2293.13	192
2295.07	194
2297	190
2298.93	214
2300.86	220
2302.79	214
2304.72	210
2306.65	202
2308.58	200
2310.51	210
2312.44	204
2314.37	206
2316.29	224
2318.22	228
2320.15	216
2322.07	218
2324	200
2325.92	206
2327.84	216
2329.77	208
2331.69	210
2333.61	204
2335.53	226
2337.45	200
2339.37	212
2341.29	198
2343.21	204
2345.13	202
2347.05	204
2348.97	202
2350.88	194
2352.8	202
2354.71	190
2356.63	206
2358.54	196
2360.46	204
2362.37	200
2364.28	234
2366.2	202
2368.11	196
2370.02	184
2371.93	200
2373.84	204
2375.75	200
2377.66	198
2379.57	210
2381.47	212
2383.38	212
2385.29	198
2387.2	226
2389.1	198
2391.01	226
2392.91	204
2394.81	208
2396.72	208
2398.62	204
2400.52	212
2402.42	216
2404.33	224
2406.23	234
2408.13	212
2410.03	208
2411.92	204
2413.82	212
2415.72	202
2417.62	208
2419.51	198
2421.41	214
2423.31	200
2425.2	196
2427.1	210
2428.99	190
2430.88	196
2432.78	200
2434.67	192
2436.56	196
2438.45	202
2440.34	202
2442.23	200
2444.12	190
2446.01	226
2447.9	212
2449.79	192