File: Mixture_Classification/Jesse_Dataset_v2/Pure Raman/Polypropylene oxide/633nm/ps-ppo-7jan25-0,0000-map2_Y09_X03.txt
182.393	680
184.993	652
187.593	602
190.193	608
192.79	590
195.387	566
197.983	568
200.578	486
203.174	512
205.766	534
208.36	454
210.951	464
213.542	446
216.131	410
218.721	482
221.309	484
223.897	568
226.483	722
229.069	922
231.654	1102
234.238	1212
236.821	1250
239.404	1118
241.984	1000
244.566	854
247.145	736
249.723	662
252.302	550
254.878	466
257.455	402
260.03	342
262.604	308
265.178	306
267.75	308
270.322	276
272.893	296
275.463	272
278.032	290
280.601	268
283.168	340
285.734	366
288.301	428
290.866	516
293.429	578
295.992	606
298.556	612
301.117	524
303.677	498
306.236	448
308.795	440
311.354	394
313.911	374
316.467	376
319.022	354
321.577	328
324.13	378
326.684	354
329.236	400
331.787	406
334.337	412
336.887	394
339.435	384
341.983	338
344.529	338
347.075	336
349.621	314
352.165	332
354.708	342
357.251	376
359.793	336
362.334	328
364.874	312
367.413	340
369.951	300
372.489	318
375.026	306
377.562	306
380.097	288
382.631	266
385.164	234
387.697	234
390.229	212
392.76	228
395.29	236
397.819	214
400.346	226
402.873	234
405.4	234
407.926	274
410.451	304
412.976	322
415.499	354
418.02	334
420.542	294
423.063	254
425.583	252
428.101	228
430.619	210
433.137	192
435.654	210
438.169	186
440.684	182
443.198	168
445.712	182
448.223	174
450.735	168
453.246	174
455.755	174
458.264	158
460.771	180
463.279	196
465.786	212
468.291	218
470.796	260
473.301	306
475.803	374
478.306	380
480.807	450
483.308	446
485.807	510
488.307	444
490.804	350
493.302	328
495.798	268
498.294	230
500.788	206
503.283	218
505.775	232
508.269	252
510.759	304
513.251	400
515.74	364
518.23	310
520.718	286
523.204	286
525.692	320
528.177	382
530.663	454
533.147	566
535.629	668
538.113	780
540.594	776
543.074	698
545.555	552
548.034	460
550.512	408
552.989	390
555.467	420
557.942	460
560.417	698
562.892	982
565.365	1532
567.838	2560
570.309	3654
572.78	3602
575.251	2628
577.72	1526
580.189	928
582.656	676
585.123	624
587.589	580
590.055	530
592.52	518
594.983	488
597.446	430
599.908	392
602.369	314
604.829	254
607.289	238
609.747	212
612.205	220
614.663	202
617.119	204
619.574	208
622.029	224
624.483	246
626.936	262
629.389	288
631.84	280
634.291	302
636.741	294
639.19	302
641.639	278
644.086	266
646.533	244
648.979	226
651.424	208
653.869	222
656.313	204
658.754	180
661.196	184
663.638	172
666.078	182
668.518	166
670.957	158
673.394	176
675.831	178
678.268	174
680.703	156
683.137	154
685.571	166
688.005	152
690.437	148
692.868	144
695.299	168
697.729	160
700.159	164
702.586	174
705.014	154
707.441	192
709.866	194
712.292	216
714.716	258
717.14	234
719.563	216
721.984	194
724.406	188
726.825	202
729.246	212
731.665	212
734.082	214
736.5	220
738.916	220
741.332	230
743.746	274
746.161	296
748.574	320
750.987	298
753.398	294
755.81	268
758.219	232
760.629	220
763.037	204
765.445	202
767.852	190
770.258	186
772.664	198
775.068	208
777.472	214
779.876	222
782.278	212
784.679	222
787.08	198
789.48	176
791.879	172
794.278	176
796.675	184
799.072	186
801.467	202
803.864	190
806.258	198
808.651	202
811.044	194
813.437	192
815.828	208
818.218	226
820.608	228
822.997	264
825.385	354
827.773	468
830.16	772
832.546	1104
834.931	1094
837.315	658
839.699	380
842.081	284
844.463	264
846.844	260
849.226	228
851.606	244
853.985	232
856.363	258
858.741	218
861.117	220
863.493	222
865.868	206
868.243	198
870.616	196
872.989	186
875.36	182
877.731	172
880.102	162
882.472	172
884.841	186
887.209	174
889.577	180
891.944	198
894.31	178
896.674	170
899.039	154
901.403	156
903.766	156
906.128	172
908.49	168
910.849	162
913.209	174
915.569	176
917.927	176
920.284	200
922.641	188
924.997	182
927.353	198
929.707	178
932.061	192
934.414	200
936.765	212
939.117	218
941.469	208
943.818	240
946.167	282
948.515	324
950.863	386
953.211	520
955.556	670
957.902	846
960.246	938
962.59	874
964.933	766
967.276	618
969.617	524
971.958	452
974.298	360
976.638	322
978.976	252
981.314	230
983.651	216
985.988	226
988.323	216
990.659	212
992.992	210
995.325	228
997.658	206
999.99	192
1002.32	184
1004.65	188
1006.98	214
1009.31	220
1011.64	204
1013.97	190
1016.29	206
1018.62	224
1020.94	222
1023.27	264
1025.59	256
1027.91	220
1030.24	284
1032.56	276
1034.88	276
1037.2	274
1039.52	272
1041.84	242
1044.15	232
1046.47	234
1048.79	236
1051.1	204
1053.42	190
1055.73	202
1058.04	182
1060.36	206
1062.67	204
1064.98	196
1067.29	208
1069.6	188
1071.91	182
1074.22	194
1076.52	200
1078.83	192
1081.14	196
1083.44	188
1085.75	226
1088.05	208
1090.35	190
1092.65	196
1094.95	196
1097.26	206
1099.56	218
1101.86	238
1104.15	288
1106.45	382
1108.75	544
1111.05	802
1113.34	924
1115.64	736
1117.93	502
1120.22	362
1122.52	310
1124.81	296
1127.1	262
1129.39	248
1131.68	242
1133.97	248
1136.26	244
1138.54	258
1140.83	248
1143.12	240
1145.4	236
1147.69	214
1149.97	200
1152.25	200
1154.54	230
1156.82	244
1159.1	250
1161.38	256
1163.66	262
1165.94	284
1168.22	246
1170.49	238
1172.77	240
1175.05	266
1177.32	290
1179.6	364
1181.87	442
1184.14	538
1186.42	646
1188.69	584
1190.96	518
1193.23	448
1195.5	420
1197.77	420
1200.03	416
1202.3	468
1204.57	460
1206.83	404
1209.1	354
1211.36	304
1213.63	262
1215.89	222
1218.15	228
1220.41	236
1222.67	232
1224.93	266
1227.19	306
1229.45	342
1231.71	352
1233.97	300
1236.22	268
1238.48	248
1240.73	216
1242.99	214
1245.24	206
1247.5	228
1249.75	204
1252	236
1254.25	240
1256.5	236
1258.75	188
1261	228
1263.25	234
1265.49	244
1267.74	242
1269.99	238
1272.23	250
1274.48	258
1276.72	276
1278.96	294
1281.21	320
1283.45	348
1285.69	386
1287.93	390
1290.17	446
1292.41	498
1294.64	606
1296.88	772
1299.12	1046
1301.36	1518
1303.59	2002
1305.82	2180
1308.06	1864
1310.29	1304
1312.52	946
1314.76	758
1316.99	626
1319.22	538
1321.45	486
1323.68	498
1325.9	472
1328.13	466
1330.36	432
1332.58	404
1334.81	374
1337.04	342
1339.26	318
1341.48	304
1343.71	330
1345.93	378
1348.15	362
1350.37	384
1352.59	394
1354.81	350
1357.03	338
1359.24	312
1361.46	298
1363.68	300
1365.89	296
1368.11	342
1370.32	404
1372.54	526
1374.75	754
1376.96	944
1379.17	1048
1381.38	1038
1383.59	868
1385.8	716
1388.01	524
1390.22	366
1392.43	322
1394.63	292
1396.84	274
1399.05	276
1401.25	288
1403.45	256
1405.66	276
1407.86	260
1410.06	280
1412.26	294
1414.46	288
1416.66	292
1418.86	364
1421.06	344
1423.26	420
1425.46	422
1427.65	406
1429.85	410
1432.04	464
1434.24	470
1436.43	466
1438.62	502
1440.82	500
1443.01	508
1445.2	484
1447.39	454
1449.58	402
1451.77	398
1453.95	386
1456.14	378
1458.33	386
1460.52	390
1462.7	392
1464.89	352
1467.07	370
1469.25	342
1471.44	348
1473.62	368
1475.8	372
1477.98	344
1480.16	340
1482.34	314
1484.52	334
1486.7	316
1488.87	284
1491.05	280
1493.23	286
1495.4	272
1497.58	274
1499.75	266
1501.92	274
1504.1	276
1506.27	262
1508.44	270
1510.61	284
1512.78	274
1514.95	272
1517.12	280
1519.28	266
1521.45	260
1523.62	266
1525.78	262
1527.95	248
1530.11	260
1532.28	268
1534.44	274
1536.6	254
1538.76	278
1540.93	260
1543.09	278
1545.25	276
1547.41	290
1549.56	274
1551.72	272
1553.88	278
1556.03	286
1558.19	298
1560.35	270
1562.5	274
1564.65	288
1566.81	298
1568.96	302
1571.11	318
1573.26	320
1575.41	356
1577.56	376
1579.71	396
1581.86	464
1584.01	498
1586.15	576
1588.3	648
1590.45	746
1592.59	874
1594.74	1008
1596.88	1178
1599.02	1372
1601.17	1440
1603.31	1502
1605.45	1370
1607.59	1270
1609.73	1124
1611.87	986
1614.01	904
1616.14	738
1618.28	600
1620.42	522
1622.55	466
1624.69	390
1626.82	360
1628.96	324
1631.09	310
1633.22	302
1635.36	272
1637.49	270
1639.62	248
1641.75	264
1643.88	256
1646	264
1648.13	242
1650.26	242
1652.39	248
1654.51	240
1656.64	244
1658.76	234
1660.89	222
1663.01	230
1665.13	220
1667.26	214
1669.38	230
1671.5	226
1673.62	230
1675.74	214
1677.86	210
1679.97	228
1682.09	224
1684.21	220
1686.33	266
1688.44	236
1690.56	240
1692.67	224
1694.78	260
1696.9	232
1699.01	230
1701.12	226
1703.23	220
1705.34	250
1707.45	234
1709.56	248
1711.67	228
1713.78	232
1715.88	228
1717.99	236
1720.1	218
1722.2	218
1724.31	222
1726.41	220
1728.51	222
1730.62	220
1732.72	214
1734.82	210
1736.92	212
1739.02	196
1741.12	212
1743.22	208
1745.32	210
1747.42	220
1749.51	216
1751.61	204
1753.7	204
1755.8	200
1757.89	216
1759.99	214
1762.08	216
1764.17	220
1766.26	200
1768.36	204
1770.45	226
1772.54	200
1774.62	214
1776.71	214
1778.8	200
1780.89	206
1782.98	222
1785.06	198
1787.15	210
1789.23	202
1791.32	216
1793.4	208
1795.48	214
1797.56	212
1799.65	222
1801.73	196
1803.81	186
1805.89	216
1807.97	204
1810.04	200
1812.12	212
1814.2	204
1816.28	200
1818.35	214
1820.43	208
1822.5	212
1824.58	212
1826.65	200
1828.72	208
1830.79	182
1832.86	190
1834.94	208
1837.01	210
1839.08	200
1841.15	204
1843.21	222
1845.28	200
1847.35	186
1849.41	188
1851.48	198
1853.55	210
1855.61	206
1857.67	212
1859.74	202
1861.8	216
1863.86	208
1865.92	208
1867.98	208
1870.05	214
1872.1	210
1874.16	220
1876.22	212
1878.28	198
1880.34	216
1882.39	202
1884.45	202
1886.5	204
1888.56	210
1890.61	214
1892.67	202
1894.72	214
1896.77	210
1898.82	198
1900.87	200
1902.92	206
1904.97	222
1907.02	198
1909.07	200
1911.12	200
1913.17	200
1915.21	224
1917.26	206
1919.3	214
1921.35	206
1923.39	212
1925.43	216
1927.48	206
1929.52	206
1931.56	202
1933.6	216
1935.64	222
1937.68	222
1939.72	206
1941.76	216
1943.8	198
1945.83	196
1947.87	200
1949.91	202
1951.94	198
1953.98	200
1956.01	208
1958.05	216
1960.08	196
1962.11	204
1964.14	196
1966.17	178
1968.2	208
1970.23	200
1972.26	220
1974.29	214
1976.32	188
1978.35	208
1980.37	208
1982.4	214
1984.43	218
1986.45	212
1988.48	224
1990.5	208
1992.52	206
1994.55	220
1996.57	214
1998.59	194
2000.61	198
2002.63	204
2004.65	202
2006.67	208
2008.69	218
2010.7	200
2012.72	204
2014.74	202
2016.75	208
2018.77	202
2020.78	202
2022.8	220
2024.81	210
2026.83	200
2028.84	190
2030.85	208
2032.86	222
2034.87	216
2036.88	222
2038.89	200
2040.9	200
2042.91	222
2044.91	228
2046.92	208
2048.93	204
2050.93	210
2052.94	220
2054.94	200
2056.95	218
2058.95	214
2060.95	202
2062.95	202
2064.96	198
2066.96	202
2068.96	202
2070.96	198
2072.96	198
2074.95	208
2076.95	206
2078.95	216
2080.95	202
2082.94	202
2084.94	196
2086.93	200
2088.93	196
2090.92	210
2092.91	222
2094.91	208
2096.9	210
2098.89	216
2100.88	220
2102.87	190
2104.86	188
2106.85	208
2108.84	214
2110.83	194
2112.81	218
2114.8	210
2116.78	200
2118.77	218
2120.75	210
2122.74	202
2124.72	224
2126.71	192
2128.69	208
2130.67	222
2132.65	210
2134.63	212
2136.61	196
2138.59	198
2140.57	206
2142.55	214
2144.53	208
2146.5	212
2148.48	224
2150.46	214
2152.43	202
2154.41	188
2156.38	210
2158.35	210
2160.33	212
2162.3	210
2164.27	212
2166.24	218
2168.21	218
2170.18	196
2172.15	204
2174.12	218
2176.09	204
2178.06	208
2180.03	212
2181.99	204
2183.96	206
2185.92	218
2187.89	198
2189.85	214
2191.82	224
2193.78	212
2195.74	212
2197.7	204
2199.67	212
2201.63	208
2203.59	212
2205.55	210
2207.51	204
2209.46	204
2211.42	204
2213.38	194
2215.34	198
2217.29	212
2219.25	230
2221.2	208
2223.16	202
2225.11	188
2227.06	222
2229.02	218
2230.97	200
2232.92	206
2234.87	194
2236.82	200
2238.77	228
2240.72	206
2242.67	206
2244.62	200
2246.57	208
2248.51	222
2250.46	204
2252.4	238
2254.35	208
2256.29	214
2258.24	210
2260.18	216
2262.13	212
2264.07	214
2266.01	210
2267.95	222
2269.89	220
2271.83	204
2273.77	200
2275.71	210
2277.65	220
2279.58	208
2281.52	196
2283.46	208
2285.4	218
2287.33	208
2289.27	196
2291.2	206
2293.13	216
2295.07	216
2297	212
2298.93	212
2300.86	198
2302.79	202
2304.72	212
2306.65	212
2308.58	208
2310.51	200
2312.44	214
2314.37	214
2316.29	230
2318.22	238
2320.15	200
2322.07	196
2324	212
2325.92	216
2327.84	208
2329.77	210
2331.69	216
2333.61	206
2335.53	208
2337.45	210
2339.37	218
2341.29	220
2343.21	224
2345.13	206
2347.05	224
2348.97	216
2350.88	200
2352.8	224
2354.71	206
2356.63	208
2358.54	192
2360.46	192
2362.37	216
2364.28	204
2366.2	220
2368.11	210
2370.02	192
2371.93	208
2373.84	214
2375.75	214
2377.66	210
2379.57	210
2381.47	222
2383.38	218
2385.29	204
2387.2	218
2389.1	222
2391.01	228
2392.91	200
2394.81	224
2396.72	224
2398.62	246
2400.52	232
2402.42	222
2404.33	220
2406.23	194
2408.13	216
2410.03	234
2411.92	222
2413.82	218
2415.72	220
2417.62	222
2419.51	222
2421.41	220
2423.31	206
2425.2	206
2427.1	212
2428.99	208
2430.88	208
2432.78	224
2434.67	208
2436.56	192
2438.45	204
2440.34	206
2442.23	206
2444.12	218
2446.01	218
2447.9	216
2449.79	194