File: Mixture_Classification/Jesse_Dataset_v2/Pure Raman/Polypropylene oxide/633nm/ps-ppo-7jan25-0,0000-map2_Y10_X10.txt
182.393	682
184.993	628
187.593	622
190.193	592
192.79	558
195.387	552
197.983	538
200.578	494
203.174	512
205.766	476
208.36	482
210.951	450
213.542	450
216.131	420
218.721	460
221.309	504
223.897	562
226.483	680
229.069	852
231.654	1066
234.238	1110
236.821	1142
239.404	1030
241.984	928
244.566	812
247.145	706
249.723	618
252.302	522
254.878	468
257.455	402
260.03	350
262.604	344
265.178	328
267.75	298
270.322	314
272.893	284
275.463	282
278.032	302
280.601	332
283.168	350
285.734	354
288.301	420
290.866	498
293.429	536
295.992	574
298.556	586
301.117	534
303.677	478
306.236	462
308.795	418
311.354	396
313.911	382
316.467	374
319.022	344
321.577	370
324.13	390
326.684	372
329.236	388
331.787	392
334.337	402
336.887	394
339.435	388
341.983	388
344.529	354
347.075	380
349.621	346
352.165	360
354.708	356
357.251	362
359.793	338
362.334	320
364.874	322
367.413	336
369.951	362
372.489	334
375.026	330
377.562	332
380.097	304
382.631	288
385.164	282
387.697	264
390.229	268
392.76	270
395.29	256
397.819	268
400.346	264
402.873	258
405.4	256
407.926	296
410.451	316
412.976	358
415.499	352
418.02	344
420.542	302
423.063	298
425.583	288
428.101	254
430.619	248
433.137	228
435.654	232
438.169	222
440.684	186
443.198	206
445.712	200
448.223	202
450.735	192
453.246	192
455.755	180
458.264	206
460.771	208
463.279	222
465.786	244
468.291	242
470.796	272
473.301	304
475.803	342
478.306	392
480.807	432
483.308	484
485.807	492
488.307	442
490.804	332
493.302	316
495.798	310
498.294	244
500.788	242
503.283	244
505.775	246
508.269	270
510.759	332
513.251	394
515.74	376
518.23	328
520.718	298
523.204	306
525.692	362
528.177	390
530.663	462
533.147	542
535.629	672
538.113	740
540.594	720
543.074	674
545.555	524
548.034	440
550.512	400
552.989	372
555.467	426
557.942	468
560.417	610
562.892	936
565.365	1438
567.838	2312
570.309	3188
572.78	3280
575.251	2398
577.72	1392
580.189	920
582.656	724
585.123	604
587.589	590
590.055	536
592.52	494
594.983	488
597.446	422
599.908	390
602.369	338
604.829	270
607.289	274
609.747	244
612.205	240
614.663	250
617.119	252
619.574	264
622.029	250
624.483	274
626.936	286
629.389	288
631.84	324
634.291	334
636.741	336
639.19	306
641.639	312
644.086	298
646.533	254
648.979	260
651.424	248
653.869	226
656.313	226
658.754	212
661.196	210
663.638	202
666.078	222
668.518	190
670.957	214
673.394	226
675.831	194
678.268	188
680.703	204
683.137	200
685.571	196
688.005	208
690.437	216
692.868	198
695.299	192
697.729	192
700.159	196
702.586	218
705.014	214
707.441	214
709.866	226
712.292	244
714.716	276
717.14	262
719.563	264
721.984	244
724.406	230
726.825	220
729.246	232
731.665	224
734.082	248
736.5	242
738.916	244
741.332	268
743.746	298
746.161	336
748.574	360
750.987	342
753.398	318
755.81	290
758.219	272
760.629	246
763.037	228
765.445	210
767.852	214
770.258	224
772.664	244
775.068	224
777.472	244
779.876	250
782.278	252
784.679	262
787.08	232
789.48	230
791.879	232
794.278	218
796.675	228
799.072	220
801.467	228
803.864	228
806.258	234
808.651	244
811.044	246
813.437	250
815.828	228
818.218	244
820.608	272
822.997	314
825.385	368
827.773	466
830.16	758
832.546	1058
834.931	998
837.315	648
839.699	408
842.081	344
844.463	292
846.844	310
849.226	276
851.606	272
853.985	262
856.363	264
858.741	256
861.117	252
863.493	258
865.868	254
868.243	236
870.616	220
872.989	220
875.36	208
877.731	232
880.102	218
882.472	238
884.841	230
887.209	208
889.577	220
891.944	216
894.31	210
896.674	220
899.039	226
901.403	206
903.766	208
906.128	206
908.49	198
910.849	212
913.209	216
915.569	204
917.927	216
920.284	210
922.641	224
924.997	230
927.353	224
929.707	216
932.061	242
934.414	220
936.765	228
939.117	264
941.469	254
943.818	286
946.167	286
948.515	344
950.863	428
953.211	498
955.556	652
957.902	790
960.246	916
962.59	864
964.933	724
967.276	632
969.617	542
971.958	452
974.298	374
976.638	328
978.976	306
981.314	292
983.651	262
985.988	260
988.323	248
990.659	240
992.992	270
995.325	234
997.658	242
999.99	234
1002.32	226
1004.65	244
1006.98	228
1009.31	230
1011.64	228
1013.97	242
1016.29	246
1018.62	262
1020.94	272
1023.27	280
1025.59	280
1027.91	282
1030.24	296
1032.56	314
1034.88	308
1037.2	290
1039.52	312
1041.84	276
1044.15	304
1046.47	266
1048.79	258
1051.1	254
1053.42	246
1055.73	236
1058.04	236
1060.36	220
1062.67	228
1064.98	218
1067.29	224
1069.6	242
1071.91	230
1074.22	232
1076.52	242
1078.83	222
1081.14	224
1083.44	238
1085.75	250
1088.05	244
1090.35	226
1092.65	258
1094.95	252
1097.26	254
1099.56	250
1101.86	290
1104.15	310
1106.45	396
1108.75	562
1111.05	756
1113.34	828
1115.64	686
1117.93	498
1120.22	396
1122.52	340
1124.81	314
1127.1	296
1129.39	280
1131.68	278
1133.97	272
1136.26	280
1138.54	260
1140.83	302
1143.12	270
1145.4	268
1147.69	268
1149.97	252
1152.25	254
1154.54	274
1156.82	268
1159.1	304
1161.38	278
1163.66	326
1165.94	306
1168.22	284
1170.49	264
1172.77	278
1175.05	306
1177.32	334
1179.6	378
1181.87	436
1184.14	494
1186.42	608
1188.69	598
1190.96	502
1193.23	446
1195.5	432
1197.77	442
1200.03	468
1202.3	464
1204.57	444
1206.83	434
1209.1	374
1211.36	324
1213.63	322
1215.89	276
1218.15	272
1220.41	274
1222.67	298
1224.93	316
1227.19	346
1229.45	344
1231.71	332
1233.97	324
1236.22	300
1238.48	292
1240.73	274
1242.99	258
1245.24	262
1247.5	252
1249.75	270
1252	264
1254.25	260
1256.5	248
1258.75	252
1261	264
1263.25	272
1265.49	266
1267.74	282
1269.99	280
1272.23	290
1274.48	298
1276.72	288
1278.96	310
1281.21	350
1283.45	372
1285.69	406
1287.93	410
1290.17	424
1292.41	476
1294.64	576
1296.88	746
1299.12	1002
1301.36	1382
1303.59	1788
1305.82	2008
1308.06	1728
1310.29	1214
1312.52	904
1314.76	706
1316.99	594
1319.22	530
1321.45	484
1323.68	458
1325.9	476
1328.13	450
1330.36	440
1332.58	442
1334.81	378
1337.04	362
1339.26	338
1341.48	344
1343.71	372
1345.93	402
1348.15	408
1350.37	386
1352.59	412
1354.81	384
1357.03	362
1359.24	332
1361.46	310
1363.68	328
1365.89	326
1368.11	358
1370.32	422
1372.54	514
1374.75	686
1376.96	908
1379.17	1006
1381.38	1002
1383.59	842
1385.8	668
1388.01	540
1390.22	418
1392.43	348
1394.63	330
1396.84	326
1399.05	298
1401.25	316
1403.45	292
1405.66	310
1407.86	290
1410.06	306
1412.26	314
1414.46	328
1416.66	334
1418.86	370
1421.06	404
1423.26	378
1425.46	398
1427.65	428
1429.85	416
1432.04	464
1434.24	468
1436.43	476
1438.62	528
1440.82	482
1443.01	488
1445.2	454
1447.39	456
1449.58	408
1451.77	416
1453.95	402
1456.14	396
1458.33	396
1460.52	398
1462.7	378
1464.89	398
1467.07	382
1469.25	376
1471.44	400
1473.62	368
1475.8	378
1477.98	398
1480.16	356
1482.34	356
1484.52	336
1486.7	324
1488.87	340
1491.05	326
1493.23	300
1495.4	324
1497.58	300
1499.75	332
1501.92	298
1504.1	308
1506.27	304
1508.44	292
1510.61	302
1512.78	272
1514.95	300
1517.12	288
1519.28	304
1521.45	298
1523.62	292
1525.78	302
1527.95	300
1530.11	278
1532.28	292
1534.44	294
1536.6	288
1538.76	302
1540.93	320
1543.09	292
1545.25	290
1547.41	296
1549.56	304
1551.72	332
1553.88	330
1556.03	302
1558.19	324
1560.35	284
1562.5	294
1564.65	312
1566.81	324
1568.96	360
1571.11	342
1573.26	354
1575.41	368
1577.56	404
1579.71	404
1581.86	462
1584.01	488
1586.15	590
1588.3	612
1590.45	718
1592.59	822
1594.74	948
1596.88	1112
1599.02	1218
1601.17	1342
1603.31	1330
1605.45	1284
1607.59	1180
1609.73	1078
1611.87	948
1614.01	848
1616.14	656
1618.28	604
1620.42	502
1622.55	458
1624.69	422
1626.82	380
1628.96	344
1631.09	322
1633.22	312
1635.36	302
1637.49	304
1639.62	288
1641.75	284
1643.88	278
1646	260
1648.13	266
1650.26	264
1652.39	260
1654.51	276
1656.64	266
1658.76	276
1660.89	276
1663.01	260
1665.13	254
1667.26	274
1669.38	274
1671.5	250
1673.62	262
1675.74	246
1677.86	250
1679.97	252
1682.09	254
1684.21	264
1686.33	274
1688.44	276
1690.56	286
1692.67	278
1694.78	276
1696.9	280
1699.01	254
1701.12	264
1703.23	292
1705.34	254
1707.45	268
1709.56	288
1711.67	246
1713.78	264
1715.88	262
1717.99	260
1720.1	244
1722.2	258
1724.31	256
1726.41	246
1728.51	256
1730.62	246
1732.72	230
1734.82	258
1736.92	236
1739.02	240
1741.12	258
1743.22	220
1745.32	254
1747.42	256
1749.51	248
1751.61	248
1753.7	240
1755.8	236
1757.89	228
1759.99	230
1762.08	248
1764.17	236
1766.26	248
1768.36	250
1770.45	226
1772.54	236
1774.62	236
1776.71	224
1778.8	242
1780.89	226
1782.98	230
1785.06	248
1787.15	230
1789.23	248
1791.32	256
1793.4	246
1795.48	252
1797.56	238
1799.65	248
1801.73	238
1803.81	238
1805.89	240
1807.97	236
1810.04	238
1812.12	252
1814.2	238
1816.28	238
1818.35	224
1820.43	242
1822.5	258
1824.58	242
1826.65	242
1828.72	236
1830.79	236
1832.86	270
1834.94	236
1837.01	258
1839.08	236
1841.15	236
1843.21	248
1845.28	242
1847.35	236
1849.41	246
1851.48	244
1853.55	238
1855.61	242
1857.67	252
1859.74	234
1861.8	240
1863.86	226
1865.92	240
1867.98	240
1870.05	232
1872.1	246
1874.16	250
1876.22	250
1878.28	248
1880.34	230
1882.39	230
1884.45	268
1886.5	234
1888.56	224
1890.61	236
1892.67	228
1894.72	230
1896.77	244
1898.82	248
1900.87	228
1902.92	234
1904.97	222
1907.02	242
1909.07	230
1911.12	236
1913.17	238
1915.21	226
1917.26	240
1919.3	242
1921.35	258
1923.39	246
1925.43	232
1927.48	248
1929.52	244
1931.56	236
1933.6	242
1935.64	252
1937.68	250
1939.72	236
1941.76	236
1943.8	236
1945.83	218
1947.87	220
1949.91	238
1951.94	236
1953.98	222
1956.01	254
1958.05	222
1960.08	228
1962.11	238
1964.14	214
1966.17	224
1968.2	248
1970.23	246
1972.26	232
1974.29	210
1976.32	242
1978.35	224
1980.37	226
1982.4	224
1984.43	230
1986.45	230
1988.48	242
1990.5	246
1992.52	246
1994.55	248
1996.57	234
1998.59	232
2000.61	236
2002.63	220
2004.65	240
2006.67	242
2008.69	226
2010.7	230
2012.72	234
2014.74	232
2016.75	240
2018.77	258
2020.78	228
2022.8	240
2024.81	244
2026.83	234
2028.84	242
2030.85	236
2032.86	242
2034.87	244
2036.88	230
2038.89	244
2040.9	242
2042.91	236
2044.91	240
2046.92	254
2048.93	250
2050.93	240
2052.94	244
2054.94	244
2056.95	232
2058.95	258
2060.95	244
2062.95	234
2064.96	244
2066.96	230
2068.96	242
2070.96	258
2072.96	222
2074.95	252
2076.95	244
2078.95	232
2080.95	232
2082.94	248
2084.94	234
2086.93	236
2088.93	250
2090.92	240
2092.91	244
2094.91	232
2096.9	236
2098.89	232
2100.88	234
2102.87	234
2104.86	230
2106.85	204
2108.84	244
2110.83	238
2112.81	236
2114.8	226
2116.78	232
2118.77	232
2120.75	234
2122.74	244
2124.72	224
2126.71	222
2128.69	232
2130.67	236
2132.65	224
2134.63	242
2136.61	234
2138.59	230
2140.57	228
2142.55	234
2144.53	240
2146.5	238
2148.48	232
2150.46	228
2152.43	226
2154.41	230
2156.38	220
2158.35	242
2160.33	216
2162.3	232
2164.27	242
2166.24	236
2168.21	248
2170.18	216
2172.15	224
2174.12	246
2176.09	224
2178.06	240
2180.03	244
2181.99	220
2183.96	228
2185.92	236
2187.89	238
2189.85	228
2191.82	222
2193.78	216
2195.74	216
2197.7	224
2199.67	226
2201.63	226
2203.59	210
2205.55	238
2207.51	212
2209.46	244
2211.42	234
2213.38	212
2215.34	222
2217.29	230
2219.25	218
2221.2	252
2223.16	228
2225.11	234
2227.06	234
2229.02	244
2230.97	236
2232.92	220
2234.87	232
2236.82	236
2238.77	214
2240.72	232
2242.67	226
2244.62	220
2246.57	242
2248.51	242
2250.46	232
2252.4	234
2254.35	242
2256.29	252
2258.24	228
2260.18	246
2262.13	234
2264.07	236
2266.01	228
2267.95	222
2269.89	250
2271.83	218
2273.77	222
2275.71	214
2277.65	216
2279.58	228
2281.52	230
2283.46	208
2285.4	232
2287.33	218
2289.27	240
2291.2	224
2293.13	242
2295.07	228
2297	232
2298.93	242
2300.86	232
2302.79	256
2304.72	242
2306.65	236
2308.58	218
2310.51	236
2312.44	226
2314.37	228
2316.29	228
2318.22	226
2320.15	258
2322.07	244
2324	244
2325.92	236
2327.84	232
2329.77	228
2331.69	240
2333.61	240
2335.53	212
2337.45	248
2339.37	228
2341.29	218
2343.21	224
2345.13	230
2347.05	222
2348.97	234
2350.88	218
2352.8	208
2354.71	236
2356.63	222
2358.54	210
2360.46	218
2362.37	218
2364.28	216
2366.2	222
2368.11	212
2370.02	222
2371.93	242
2373.84	244
2375.75	234
2377.66	232
2379.57	224
2381.47	234
2383.38	224
2385.29	240
2387.2	234
2389.1	212
2391.01	222
2392.91	250
2394.81	220
2396.72	234
2398.62	248
2400.52	250
2402.42	234
2404.33	258
2406.23	232
2408.13	232
2410.03	228
2411.92	240
2413.82	204
2415.72	238
2417.62	228
2419.51	222
2421.41	224
2423.31	236
2425.2	242
2427.1	218
2428.99	232
2430.88	230
2432.78	232
2434.67	232
2436.56	220
2438.45	228
2440.34	222
2442.23	230
2444.12	226
2446.01	244
2447.9	220
2449.79	210