File: Mixture_Classification/Jesse_Dataset_v2/Pure Raman/Polypropylene oxide/633nm/ps-ppo-7jan25-0,0000-map2_Y01_X01.txt
182.393	714
184.993	682
187.593	680
190.193	662
192.79	642
195.387	578
197.983	568
200.578	560
203.174	522
205.766	564
208.36	530
210.951	490
213.542	470
216.131	458
218.721	518
221.309	564
223.897	628
226.483	804
229.069	1024
231.654	1244
234.238	1340
236.821	1230
239.404	1218
241.984	1092
244.566	912
247.145	796
249.723	666
252.302	566
254.878	464
257.455	426
260.03	396
262.604	376
265.178	324
267.75	324
270.322	322
272.893	294
275.463	296
278.032	316
280.601	336
283.168	366
285.734	408
288.301	486
290.866	564
293.429	646
295.992	676
298.556	656
301.117	590
303.677	540
306.236	514
308.795	456
311.354	422
313.911	410
316.467	384
319.022	384
321.577	394
324.13	394
326.684	396
329.236	402
331.787	436
334.337	458
336.887	418
339.435	416
341.983	410
344.529	360
347.075	378
349.621	366
352.165	386
354.708	374
357.251	380
359.793	362
362.334	346
364.874	346
367.413	342
369.951	338
372.489	354
375.026	378
377.562	312
380.097	300
382.631	278
385.164	266
387.697	262
390.229	282
392.76	262
395.29	262
397.819	264
400.346	264
402.873	264
405.4	274
407.926	308
410.451	320
412.976	378
415.499	392
418.02	366
420.542	336
423.063	280
425.583	268
428.101	254
430.619	234
433.137	240
435.654	214
438.169	182
440.684	198
443.198	196
445.712	190
448.223	186
450.735	198
453.246	204
455.755	188
458.264	198
460.771	196
463.279	208
465.786	236
468.291	272
470.796	290
473.301	334
475.803	390
478.306	424
480.807	482
483.308	510
485.807	538
488.307	464
490.804	362
493.302	338
495.798	272
498.294	260
500.788	240
503.283	258
505.775	238
508.269	288
510.759	336
513.251	434
515.74	422
518.23	350
520.718	292
523.204	346
525.692	366
528.177	402
530.663	498
533.147	600
535.629	770
538.113	836
540.594	796
543.074	726
545.555	594
548.034	486
550.512	412
552.989	432
555.467	462
557.942	552
560.417	740
562.892	1076
565.365	1742
567.838	2798
570.309	3890
572.78	3818
575.251	2672
577.72	1596
580.189	990
582.656	730
585.123	660
587.589	658
590.055	592
592.52	580
594.983	560
597.446	480
599.908	408
602.369	352
604.829	284
607.289	284
609.747	254
612.205	246
614.663	232
617.119	228
619.574	244
622.029	258
624.483	298
626.936	304
629.389	308
631.84	350
634.291	362
636.741	346
639.19	358
641.639	334
644.086	298
646.533	284
648.979	256
651.424	250
653.869	228
656.313	224
658.754	212
661.196	216
663.638	208
666.078	216
668.518	188
670.957	184
673.394	194
675.831	172
678.268	192
680.703	174
683.137	192
685.571	200
688.005	194
690.437	196
692.868	182
695.299	182
697.729	194
700.159	184
702.586	194
705.014	198
707.441	226
709.866	232
712.292	256
714.716	268
717.14	270
719.563	240
721.984	238
724.406	222
726.825	220
729.246	234
731.665	224
734.082	236
736.5	226
738.916	244
741.332	254
743.746	304
746.161	344
748.574	358
750.987	354
753.398	320
755.81	310
758.219	268
760.629	248
763.037	228
765.445	226
767.852	222
770.258	222
772.664	228
775.068	224
777.472	240
779.876	274
782.278	240
784.679	222
787.08	230
789.48	222
791.879	218
794.278	232
796.675	212
799.072	210
801.467	222
803.864	222
806.258	230
808.651	230
811.044	216
813.437	226
815.828	218
818.218	238
820.608	270
822.997	288
825.385	374
827.773	554
830.16	850
832.546	1202
834.931	1152
837.315	696
839.699	442
842.081	344
844.463	308
846.844	310
849.226	292
851.606	272
853.985	262
856.363	268
858.741	268
861.117	262
863.493	238
865.868	230
868.243	216
870.616	210
872.989	204
875.36	216
877.731	202
880.102	220
882.472	214
884.841	218
887.209	200
889.577	206
891.944	202
894.31	224
896.674	206
899.039	186
901.403	210
903.766	192
906.128	202
908.49	198
910.849	208
913.209	202
915.569	202
917.927	196
920.284	204
922.641	212
924.997	202
927.353	212
929.707	214
932.061	212
934.414	236
936.765	226
939.117	240
941.469	264
943.818	260
946.167	312
948.515	370
950.863	446
953.211	592
955.556	752
957.902	900
960.246	974
962.59	892
964.933	818
967.276	668
969.617	584
971.958	460
974.298	404
976.638	314
978.976	270
981.314	286
983.651	260
985.988	270
988.323	252
990.659	244
992.992	258
995.325	240
997.658	246
999.99	236
1002.32	236
1004.65	232
1006.98	218
1009.31	236
1011.64	230
1013.97	234
1016.29	234
1018.62	256
1020.94	260
1023.27	274
1025.59	284
1027.91	312
1030.24	314
1032.56	314
1034.88	312
1037.2	308
1039.52	284
1041.84	290
1044.15	268
1046.47	268
1048.79	240
1051.1	250
1053.42	230
1055.73	232
1058.04	210
1060.36	248
1062.67	224
1064.98	220
1067.29	226
1069.6	226
1071.91	218
1074.22	226
1076.52	218
1078.83	226
1081.14	230
1083.44	226
1085.75	218
1088.05	216
1090.35	236
1092.65	228
1094.95	230
1097.26	246
1099.56	264
1101.86	282
1104.15	330
1106.45	406
1108.75	612
1111.05	860
1113.34	908
1115.64	772
1117.93	536
1120.22	402
1122.52	334
1124.81	316
1127.1	312
1129.39	286
1131.68	262
1133.97	282
1136.26	262
1138.54	276
1140.83	284
1143.12	278
1145.4	252
1147.69	278
1149.97	242
1152.25	232
1154.54	272
1156.82	266
1159.1	302
1161.38	302
1163.66	310
1165.94	316
1168.22	288
1170.49	260
1172.77	276
1175.05	296
1177.32	342
1179.6	410
1181.87	490
1184.14	612
1186.42	664
1188.69	642
1190.96	568
1193.23	492
1195.5	480
1197.77	448
1200.03	488
1202.3	500
1204.57	476
1206.83	460
1209.1	408
1211.36	326
1213.63	308
1215.89	276
1218.15	264
1220.41	256
1222.67	298
1224.93	330
1227.19	334
1229.45	372
1231.71	372
1233.97	324
1236.22	282
1238.48	278
1240.73	256
1242.99	250
1245.24	242
1247.5	248
1249.75	260
1252	242
1254.25	258
1256.5	240
1258.75	268
1261	244
1263.25	260
1265.49	280
1267.74	256
1269.99	284
1272.23	276
1274.48	302
1276.72	304
1278.96	336
1281.21	356
1283.45	394
1285.69	408
1287.93	422
1290.17	464
1292.41	482
1294.64	646
1296.88	816
1299.12	1130
1301.36	1646
1303.59	2132
1305.82	2270
1308.06	1944
1310.29	1374
1312.52	1014
1314.76	806
1316.99	652
1319.22	578
1321.45	528
1323.68	504
1325.9	488
1328.13	500
1330.36	476
1332.58	436
1334.81	390
1337.04	370
1339.26	368
1341.48	364
1343.71	382
1345.93	380
1348.15	398
1350.37	422
1352.59	414
1354.81	376
1357.03	352
1359.24	340
1361.46	354
1363.68	316
1365.89	326
1368.11	394
1370.32	434
1372.54	572
1374.75	766
1376.96	1038
1379.17	1140
1381.38	1078
1383.59	948
1385.8	760
1388.01	576
1390.22	424
1392.43	340
1394.63	324
1396.84	318
1399.05	302
1401.25	300
1403.45	294
1405.66	292
1407.86	290
1410.06	306
1412.26	308
1414.46	330
1416.66	360
1418.86	372
1421.06	414
1423.26	434
1425.46	432
1427.65	454
1429.85	448
1432.04	462
1434.24	464
1436.43	528
1438.62	526
1440.82	536
1443.01	564
1445.2	482
1447.39	468
1449.58	436
1451.77	450
1453.95	412
1456.14	418
1458.33	408
1460.52	402
1462.7	398
1464.89	392
1467.07	390
1469.25	394
1471.44	404
1473.62	400
1475.8	386
1477.98	364
1480.16	364
1482.34	372
1484.52	356
1486.7	328
1488.87	302
1491.05	324
1493.23	316
1495.4	308
1497.58	324
1499.75	308
1501.92	316
1504.1	290
1506.27	300
1508.44	304
1510.61	296
1512.78	306
1514.95	278
1517.12	284
1519.28	292
1521.45	306
1523.62	278
1525.78	310
1527.95	302
1530.11	312
1532.28	308
1534.44	296
1536.6	296
1538.76	308
1540.93	322
1543.09	294
1545.25	320
1547.41	314
1549.56	308
1551.72	316
1553.88	314
1556.03	310
1558.19	310
1560.35	306
1562.5	310
1564.65	324
1566.81	338
1568.96	352
1571.11	352
1573.26	344
1575.41	398
1577.56	390
1579.71	460
1581.86	516
1584.01	538
1586.15	620
1588.3	658
1590.45	792
1592.59	948
1594.74	1106
1596.88	1264
1599.02	1418
1601.17	1514
1603.31	1556
1605.45	1446
1607.59	1302
1609.73	1188
1611.87	1030
1614.01	928
1616.14	760
1618.28	632
1620.42	544
1622.55	470
1624.69	418
1626.82	376
1628.96	354
1631.09	318
1633.22	308
1635.36	296
1637.49	300
1639.62	302
1641.75	294
1643.88	288
1646	300
1648.13	280
1650.26	266
1652.39	260
1654.51	270
1656.64	252
1658.76	262
1660.89	258
1663.01	252
1665.13	254
1667.26	248
1669.38	258
1671.5	246
1673.62	242
1675.74	242
1677.86	238
1679.97	236
1682.09	250
1684.21	240
1686.33	258
1688.44	252
1690.56	266
1692.67	268
1694.78	290
1696.9	278
1699.01	248
1701.12	266
1703.23	276
1705.34	264
1707.45	268
1709.56	252
1711.67	254
1713.78	238
1715.88	252
1717.99	236
1720.1	220
1722.2	246
1724.31	226
1726.41	232
1728.51	252
1730.62	236
1732.72	238
1734.82	224
1736.92	236
1739.02	250
1741.12	222
1743.22	246
1745.32	232
1747.42	226
1749.51	222
1751.61	228
1753.7	236
1755.8	226
1757.89	242
1759.99	222
1762.08	234
1764.17	240
1766.26	234
1768.36	232
1770.45	222
1772.54	226
1774.62	230
1776.71	218
1778.8	242
1780.89	228
1782.98	240
1785.06	220
1787.15	238
1789.23	236
1791.32	252
1793.4	228
1795.48	222
1797.56	234
1799.65	222
1801.73	212
1803.81	232
1805.89	238
1807.97	232
1810.04	210
1812.12	224
1814.2	236
1816.28	240
1818.35	208
1820.43	222
1822.5	226
1824.58	240
1826.65	230
1828.72	212
1830.79	208
1832.86	226
1834.94	244
1837.01	220
1839.08	246
1841.15	214
1843.21	218
1845.28	248
1847.35	236
1849.41	210
1851.48	240
1853.55	228
1855.61	224
1857.67	208
1859.74	240
1861.8	232
1863.86	214
1865.92	220
1867.98	212
1870.05	218
1872.1	234
1874.16	228
1876.22	248
1878.28	238
1880.34	228
1882.39	234
1884.45	242
1886.5	230
1888.56	226
1890.61	206
1892.67	230
1894.72	236
1896.77	240
1898.82	240
1900.87	222
1902.92	228
1904.97	222
1907.02	250
1909.07	240
1911.12	240
1913.17	224
1915.21	230
1917.26	250
1919.3	242
1921.35	228
1923.39	234
1925.43	232
1927.48	234
1929.52	238
1931.56	224
1933.6	222
1935.64	236
1937.68	250
1939.72	224
1941.76	212
1943.8	220
1945.83	236
1947.87	226
1949.91	214
1951.94	246
1953.98	230
1956.01	234
1958.05	220
1960.08	236
1962.11	226
1964.14	220
1966.17	232
1968.2	218
1970.23	226
1972.26	226
1974.29	230
1976.32	210
1978.35	232
1980.37	232
1982.4	230
1984.43	226
1986.45	234
1988.48	224
1990.5	230
1992.52	224
1994.55	230
1996.57	228
1998.59	246
2000.61	230
2002.63	242
2004.65	232
2006.67	224
2008.69	220
2010.7	238
2012.72	228
2014.74	212
2016.75	226
2018.77	226
2020.78	230
2022.8	216
2024.81	222
2026.83	236
2028.84	232
2030.85	212
2032.86	228
2034.87	236
2036.88	242
2038.89	232
2040.9	230
2042.91	250
2044.91	212
2046.92	222
2048.93	242
2050.93	234
2052.94	230
2054.94	220
2056.95	230
2058.95	228
2060.95	230
2062.95	228
2064.96	234
2066.96	232
2068.96	222
2070.96	230
2072.96	238
2074.95	220
2076.95	224
2078.95	254
2080.95	226
2082.94	226
2084.94	220
2086.93	220
2088.93	242
2090.92	232
2092.91	236
2094.91	240
2096.9	214
2098.89	224
2100.88	222
2102.87	210
2104.86	226
2106.85	232
2108.84	222
2110.83	232
2112.81	216
2114.8	210
2116.78	214
2118.77	226
2120.75	220
2122.74	212
2124.72	222
2126.71	224
2128.69	216
2130.67	218
2132.65	230
2134.63	232
2136.61	248
2138.59	224
2140.57	222
2142.55	222
2144.53	218
2146.5	224
2148.48	220
2150.46	216
2152.43	210
2154.41	216
2156.38	218
2158.35	226
2160.33	234
2162.3	242
2164.27	224
2166.24	226
2168.21	220
2170.18	210
2172.15	230
2174.12	222
2176.09	220
2178.06	222
2180.03	232
2181.99	210
2183.96	206
2185.92	214
2187.89	216
2189.85	220
2191.82	222
2193.78	220
2195.74	212
2197.7	220
2199.67	228
2201.63	248
2203.59	224
2205.55	214
2207.51	224
2209.46	216
2211.42	206
2213.38	210
2215.34	232
2217.29	212
2219.25	232
2221.2	218
2223.16	214
2225.11	202
2227.06	212
2229.02	210
2230.97	214
2232.92	214
2234.87	222
2236.82	216
2238.77	224
2240.72	218
2242.67	212
2244.62	230
2246.57	210
2248.51	228
2250.46	244
2252.4	218
2254.35	218
2256.29	228
2258.24	214
2260.18	224
2262.13	222
2264.07	228
2266.01	230
2267.95	242
2269.89	218
2271.83	240
2273.77	234
2275.71	224
2277.65	218
2279.58	210
2281.52	220
2283.46	232
2285.4	216
2287.33	240
2289.27	216
2291.2	234
2293.13	218
2295.07	230
2297	206
2298.93	216
2300.86	230
2302.79	222
2304.72	228
2306.65	210
2308.58	238
2310.51	240
2312.44	226
2314.37	228
2316.29	214
2318.22	216
2320.15	228
2322.07	212
2324	230
2325.92	240
2327.84	222
2329.77	226
2331.69	236
2333.61	250
2335.53	226
2337.45	238
2339.37	236
2341.29	216
2343.21	216
2345.13	214
2347.05	220
2348.97	230
2350.88	218
2352.8	236
2354.71	230
2356.63	214
2358.54	222
2360.46	214
2362.37	232
2364.28	224
2366.2	216
2368.11	204
2370.02	246
2371.93	240
2373.84	218
2375.75	232
2377.66	242
2379.57	230
2381.47	222
2383.38	218
2385.29	224
2387.2	252
2389.1	222
2391.01	250
2392.91	230
2394.81	222
2396.72	224
2398.62	234
2400.52	220
2402.42	222
2404.33	248
2406.23	230
2408.13	232
2410.03	230
2411.92	224
2413.82	222
2415.72	238
2417.62	236
2419.51	226
2421.41	228
2423.31	204
2425.2	222
2427.1	216
2428.99	220
2430.88	234
2432.78	202
2434.67	240
2436.56	208
2438.45	220
2440.34	242
2442.23	218
2444.12	228
2446.01	222
2447.9	232
2449.79	208