File: Mixture_Classification/Jesse_Dataset_v2/Pure Raman/Polypropylene oxide/633nm/ps-ppo-7jan25-0,0000-map2_Y05_X10.txt
182.393	708
184.993	678
187.593	634
190.193	626
192.79	640
195.387	596
197.983	546
200.578	550
203.174	558
205.766	496
208.36	518
210.951	480
213.542	474
216.131	462
218.721	470
221.309	472
223.897	612
226.483	740
229.069	960
231.654	1146
234.238	1250
236.821	1288
239.404	1126
241.984	978
244.566	878
247.145	762
249.723	650
252.302	578
254.878	482
257.455	432
260.03	350
262.604	342
265.178	320
267.75	296
270.322	310
272.893	282
275.463	326
278.032	306
280.601	316
283.168	354
285.734	374
288.301	454
290.866	550
293.429	604
295.992	622
298.556	608
301.117	590
303.677	504
306.236	472
308.795	444
311.354	434
313.911	400
316.467	386
319.022	358
321.577	378
324.13	356
326.684	378
329.236	420
331.787	412
334.337	422
336.887	402
339.435	402
341.983	380
344.529	330
347.075	366
349.621	368
352.165	356
354.708	370
357.251	394
359.793	370
362.334	336
364.874	336
367.413	346
369.951	314
372.489	358
375.026	330
377.562	324
380.097	294
382.631	266
385.164	276
387.697	244
390.229	250
392.76	234
395.29	266
397.819	240
400.346	218
402.873	236
405.4	260
407.926	284
410.451	330
412.976	372
415.499	370
418.02	368
420.542	316
423.063	298
425.583	268
428.101	232
430.619	224
433.137	224
435.654	214
438.169	212
440.684	206
443.198	196
445.712	186
448.223	186
450.735	198
453.246	190
455.755	196
458.264	200
460.771	196
463.279	210
465.786	232
468.291	246
470.796	282
473.301	316
475.803	368
478.306	400
480.807	454
483.308	502
485.807	524
488.307	488
490.804	374
493.302	320
495.798	290
498.294	256
500.788	226
503.283	226
505.775	232
508.269	276
510.759	328
513.251	396
515.74	396
518.23	326
520.718	320
523.204	308
525.692	348
528.177	394
530.663	478
533.147	608
535.629	706
538.113	802
540.594	816
543.074	720
545.555	556
548.034	498
550.512	394
552.989	418
555.467	472
557.942	516
560.417	698
562.892	1052
565.365	1656
567.838	2668
570.309	3680
572.78	3742
575.251	2660
577.72	1564
580.189	924
582.656	692
585.123	648
587.589	632
590.055	554
592.52	566
594.983	498
597.446	454
599.908	400
602.369	328
604.829	282
607.289	272
609.747	240
612.205	236
614.663	216
617.119	238
619.574	238
622.029	240
624.483	262
626.936	302
629.389	314
631.84	330
634.291	324
636.741	334
639.19	326
641.639	300
644.086	270
646.533	262
648.979	252
651.424	246
653.869	214
656.313	214
658.754	192
661.196	206
663.638	178
666.078	192
668.518	198
670.957	174
673.394	190
675.831	198
678.268	180
680.703	164
683.137	174
685.571	184
688.005	186
690.437	196
692.868	190
695.299	170
697.729	178
700.159	182
702.586	198
705.014	196
707.441	202
709.866	236
712.292	232
714.716	254
717.14	252
719.563	234
721.984	234
724.406	226
726.825	224
729.246	212
731.665	222
734.082	240
736.5	228
738.916	228
741.332	262
743.746	284
746.161	356
748.574	354
750.987	342
753.398	316
755.81	302
758.219	272
760.629	240
763.037	212
765.445	194
767.852	202
770.258	214
772.664	224
775.068	216
777.472	240
779.876	222
782.278	222
784.679	228
787.08	226
789.48	210
791.879	204
794.278	214
796.675	226
799.072	178
801.467	220
803.864	220
806.258	230
808.651	222
811.044	212
813.437	246
815.828	246
818.218	246
820.608	264
822.997	270
825.385	348
827.773	518
830.16	784
832.546	1172
834.931	1104
837.315	680
839.699	434
842.081	330
844.463	290
846.844	274
849.226	274
851.606	280
853.985	278
856.363	262
858.741	252
861.117	248
863.493	228
865.868	222
868.243	214
870.616	216
872.989	218
875.36	230
877.731	220
880.102	200
882.472	208
884.841	194
887.209	198
889.577	212
891.944	186
894.31	192
896.674	204
899.039	196
901.403	198
903.766	198
906.128	198
908.49	192
910.849	200
913.209	204
915.569	200
917.927	188
920.284	188
922.641	208
924.997	206
927.353	206
929.707	218
932.061	202
934.414	228
936.765	226
939.117	238
941.469	258
943.818	276
946.167	308
948.515	352
950.863	434
953.211	558
955.556	698
957.902	878
960.246	930
962.59	842
964.933	796
967.276	640
969.617	558
971.958	450
974.298	392
976.638	314
978.976	292
981.314	256
983.651	240
985.988	246
988.323	250
990.659	258
992.992	254
995.325	244
997.658	208
999.99	216
1002.32	222
1004.65	208
1006.98	230
1009.31	202
1011.64	236
1013.97	216
1016.29	236
1018.62	244
1020.94	260
1023.27	264
1025.59	262
1027.91	284
1030.24	300
1032.56	308
1034.88	298
1037.2	270
1039.52	300
1041.84	270
1044.15	258
1046.47	252
1048.79	234
1051.1	238
1053.42	228
1055.73	228
1058.04	204
1060.36	220
1062.67	214
1064.98	206
1067.29	234
1069.6	218
1071.91	224
1074.22	212
1076.52	214
1078.83	224
1081.14	210
1083.44	230
1085.75	224
1088.05	230
1090.35	220
1092.65	222
1094.95	226
1097.26	224
1099.56	246
1101.86	282
1104.15	268
1106.45	406
1108.75	556
1111.05	828
1113.34	920
1115.64	732
1117.93	532
1120.22	386
1122.52	330
1124.81	306
1127.1	302
1129.39	266
1131.68	288
1133.97	272
1136.26	232
1138.54	280
1140.83	274
1143.12	260
1145.4	258
1147.69	244
1149.97	232
1152.25	242
1154.54	250
1156.82	254
1159.1	278
1161.38	284
1163.66	300
1165.94	294
1168.22	274
1170.49	262
1172.77	280
1175.05	312
1177.32	308
1179.6	394
1181.87	436
1184.14	574
1186.42	664
1188.69	624
1190.96	536
1193.23	458
1195.5	452
1197.77	448
1200.03	440
1202.3	502
1204.57	476
1206.83	434
1209.1	360
1211.36	322
1213.63	290
1215.89	278
1218.15	262
1220.41	280
1222.67	270
1224.93	284
1227.19	332
1229.45	366
1231.71	344
1233.97	340
1236.22	304
1238.48	278
1240.73	248
1242.99	256
1245.24	224
1247.5	258
1249.75	254
1252	248
1254.25	258
1256.5	232
1258.75	264
1261	264
1263.25	260
1265.49	282
1267.74	274
1269.99	292
1272.23	276
1274.48	296
1276.72	314
1278.96	314
1281.21	344
1283.45	386
1285.69	384
1287.93	416
1290.17	454
1292.41	530
1294.64	612
1296.88	816
1299.12	1090
1301.36	1566
1303.59	2076
1305.82	2202
1308.06	1848
1310.29	1358
1312.52	954
1314.76	756
1316.99	638
1319.22	562
1321.45	514
1323.68	500
1325.9	500
1328.13	480
1330.36	492
1332.58	402
1334.81	396
1337.04	348
1339.26	362
1341.48	348
1343.71	374
1345.93	406
1348.15	416
1350.37	432
1352.59	402
1354.81	382
1357.03	354
1359.24	336
1361.46	322
1363.68	322
1365.89	350
1368.11	352
1370.32	408
1372.54	550
1374.75	752
1376.96	1014
1379.17	1088
1381.38	1038
1383.59	900
1385.8	754
1388.01	568
1390.22	424
1392.43	348
1394.63	308
1396.84	326
1399.05	308
1401.25	290
1403.45	288
1405.66	288
1407.86	318
1410.06	318
1412.26	316
1414.46	318
1416.66	320
1418.86	380
1421.06	378
1423.26	396
1425.46	428
1427.65	436
1429.85	442
1432.04	464
1434.24	494
1436.43	524
1438.62	558
1440.82	524
1443.01	542
1445.2	466
1447.39	458
1449.58	430
1451.77	410
1453.95	394
1456.14	378
1458.33	414
1460.52	396
1462.7	412
1464.89	376
1467.07	382
1469.25	404
1471.44	376
1473.62	378
1475.8	392
1477.98	372
1480.16	350
1482.34	356
1484.52	354
1486.7	358
1488.87	328
1491.05	334
1493.23	304
1495.4	298
1497.58	300
1499.75	306
1501.92	312
1504.1	316
1506.27	310
1508.44	302
1510.61	284
1512.78	286
1514.95	294
1517.12	320
1519.28	294
1521.45	290
1523.62	286
1525.78	280
1527.95	282
1530.11	288
1532.28	282
1534.44	298
1536.6	304
1538.76	272
1540.93	290
1543.09	300
1545.25	300
1547.41	314
1549.56	318
1551.72	318
1553.88	312
1556.03	314
1558.19	292
1560.35	320
1562.5	324
1564.65	316
1566.81	326
1568.96	350
1571.11	368
1573.26	382
1575.41	376
1577.56	404
1579.71	452
1581.86	482
1584.01	546
1586.15	576
1588.3	692
1590.45	822
1592.59	898
1594.74	1076
1596.88	1240
1599.02	1380
1601.17	1472
1603.31	1478
1605.45	1428
1607.59	1322
1609.73	1158
1611.87	996
1614.01	882
1616.14	760
1618.28	618
1620.42	550
1622.55	498
1624.69	422
1626.82	390
1628.96	370
1631.09	332
1633.22	312
1635.36	302
1637.49	296
1639.62	298
1641.75	294
1643.88	280
1646	282
1648.13	268
1650.26	282
1652.39	268
1654.51	256
1656.64	242
1658.76	260
1660.89	260
1663.01	256
1665.13	256
1667.26	256
1669.38	248
1671.5	250
1673.62	260
1675.74	250
1677.86	252
1679.97	240
1682.09	266
1684.21	242
1686.33	266
1688.44	258
1690.56	278
1692.67	274
1694.78	268
1696.9	276
1699.01	272
1701.12	264
1703.23	274
1705.34	264
1707.45	258
1709.56	256
1711.67	254
1713.78	244
1715.88	238
1717.99	264
1720.1	250
1722.2	258
1724.31	244
1726.41	248
1728.51	240
1730.62	234
1732.72	242
1734.82	222
1736.92	234
1739.02	242
1741.12	256
1743.22	232
1745.32	230
1747.42	226
1749.51	224
1751.61	240
1753.7	236
1755.8	226
1757.89	228
1759.99	230
1762.08	214
1764.17	230
1766.26	244
1768.36	254
1770.45	226
1772.54	242
1774.62	228
1776.71	214
1778.8	222
1780.89	230
1782.98	226
1785.06	242
1787.15	228
1789.23	236
1791.32	234
1793.4	236
1795.48	216
1797.56	236
1799.65	246
1801.73	218
1803.81	246
1805.89	230
1807.97	234
1810.04	230
1812.12	236
1814.2	222
1816.28	216
1818.35	228
1820.43	226
1822.5	240
1824.58	230
1826.65	224
1828.72	228
1830.79	240
1832.86	226
1834.94	222
1837.01	226
1839.08	236
1841.15	230
1843.21	218
1845.28	220
1847.35	238
1849.41	222
1851.48	218
1853.55	244
1855.61	242
1857.67	226
1859.74	230
1861.8	224
1863.86	244
1865.92	236
1867.98	220
1870.05	234
1872.1	216
1874.16	218
1876.22	224
1878.28	210
1880.34	224
1882.39	232
1884.45	238
1886.5	244
1888.56	240
1890.61	230
1892.67	226
1894.72	236
1896.77	240
1898.82	226
1900.87	222
1902.92	222
1904.97	226
1907.02	242
1909.07	238
1911.12	228
1913.17	234
1915.21	246
1917.26	238
1919.3	240
1921.35	210
1923.39	226
1925.43	222
1927.48	216
1929.52	236
1931.56	218
1933.6	250
1935.64	240
1937.68	220
1939.72	222
1941.76	226
1943.8	234
1945.83	242
1947.87	234
1949.91	216
1951.94	208
1953.98	238
1956.01	232
1958.05	236
1960.08	208
1962.11	232
1964.14	230
1966.17	214
1968.2	240
1970.23	226
1972.26	234
1974.29	224
1976.32	232
1978.35	238
1980.37	232
1982.4	242
1984.43	240
1986.45	220
1988.48	226
1990.5	236
1992.52	238
1994.55	228
1996.57	236
1998.59	210
2000.61	220
2002.63	220
2004.65	212
2006.67	222
2008.69	224
2010.7	234
2012.72	214
2014.74	224
2016.75	232
2018.77	226
2020.78	224
2022.8	234
2024.81	226
2026.83	242
2028.84	206
2030.85	224
2032.86	246
2034.87	216
2036.88	220
2038.89	244
2040.9	226
2042.91	232
2044.91	236
2046.92	224
2048.93	242
2050.93	228
2052.94	234
2054.94	236
2056.95	216
2058.95	234
2060.95	224
2062.95	228
2064.96	226
2066.96	238
2068.96	244
2070.96	246
2072.96	218
2074.95	236
2076.95	244
2078.95	230
2080.95	238
2082.94	224
2084.94	224
2086.93	222
2088.93	236
2090.92	232
2092.91	236
2094.91	232
2096.9	230
2098.89	202
2100.88	238
2102.87	236
2104.86	232
2106.85	232
2108.84	230
2110.83	216
2112.81	232
2114.8	232
2116.78	224
2118.77	240
2120.75	224
2122.74	216
2124.72	214
2126.71	240
2128.69	236
2130.67	210
2132.65	232
2134.63	230
2136.61	228
2138.59	228
2140.57	228
2142.55	228
2144.53	222
2146.5	220
2148.48	238
2150.46	246
2152.43	214
2154.41	234
2156.38	240
2158.35	214
2160.33	232
2162.3	210
2164.27	240
2166.24	226
2168.21	224
2170.18	226
2172.15	210
2174.12	224
2176.09	230
2178.06	232
2180.03	212
2181.99	222
2183.96	216
2185.92	244
2187.89	232
2189.85	234
2191.82	228
2193.78	224
2195.74	228
2197.7	218
2199.67	218
2201.63	234
2203.59	212
2205.55	234
2207.51	230
2209.46	212
2211.42	228
2213.38	212
2215.34	214
2217.29	228
2219.25	218
2221.2	226
2223.16	230
2225.11	216
2227.06	222
2229.02	218
2230.97	220
2232.92	230
2234.87	224
2236.82	194
2238.77	206
2240.72	230
2242.67	226
2244.62	234
2246.57	226
2248.51	234
2250.46	232
2252.4	226
2254.35	228
2256.29	214
2258.24	210
2260.18	224
2262.13	214
2264.07	246
2266.01	236
2267.95	210
2269.89	222
2271.83	228
2273.77	236
2275.71	216
2277.65	222
2279.58	246
2281.52	224
2283.46	224
2285.4	234
2287.33	238
2289.27	244
2291.2	232
2293.13	224
2295.07	232
2297	224
2298.93	224
2300.86	224
2302.79	230
2304.72	228
2306.65	202
2308.58	220
2310.51	238
2312.44	204
2314.37	234
2316.29	254
2318.22	234
2320.15	246
2322.07	236
2324	234
2325.92	250
2327.84	238
2329.77	248
2331.69	246
2333.61	242
2335.53	220
2337.45	230
2339.37	238
2341.29	244
2343.21	238
2345.13	222
2347.05	226
2348.97	214
2350.88	236
2352.8	222
2354.71	218
2356.63	224
2358.54	220
2360.46	242
2362.37	222
2364.28	216
2366.2	244
2368.11	220
2370.02	218
2371.93	234
2373.84	232
2375.75	246
2377.66	238
2379.57	224
2381.47	230
2383.38	232
2385.29	236
2387.2	232
2389.1	240
2391.01	236
2392.91	238
2394.81	222
2396.72	244
2398.62	246
2400.52	246
2402.42	232
2404.33	234
2406.23	234
2408.13	234
2410.03	240
2411.92	252
2413.82	230
2415.72	210
2417.62	220
2419.51	224
2421.41	206
2423.31	212
2425.2	230
2427.1	230
2428.99	238
2430.88	214
2432.78	232
2434.67	208
2436.56	220
2438.45	218
2440.34	234
2442.23	214
2444.12	222
2446.01	232
2447.9	212
2449.79	224