File: Mixture_Classification/Jesse_Dataset_v2/Pure Raman/Polypropylene oxide/633nm/ps-ppo-7jan25-0,0000-map2_Y09_X08.txt
182.393	682
184.993	678
187.593	634
190.193	618
192.79	584
195.387	552
197.983	526
200.578	536
203.174	490
205.766	488
208.36	460
210.951	472
213.542	458
216.131	440
218.721	456
221.309	496
223.897	596
226.483	676
229.069	920
231.654	1102
234.238	1242
236.821	1224
239.404	1106
241.984	960
244.566	836
247.145	764
249.723	644
252.302	536
254.878	440
257.455	400
260.03	364
262.604	312
265.178	302
267.75	282
270.322	278
272.893	268
275.463	284
278.032	280
280.601	288
283.168	344
285.734	366
288.301	450
290.866	522
293.429	580
295.992	632
298.556	578
301.117	548
303.677	486
306.236	446
308.795	422
311.354	376
313.911	354
316.467	362
319.022	344
321.577	362
324.13	360
326.684	378
329.236	396
331.787	412
334.337	408
336.887	412
339.435	390
341.983	340
344.529	348
347.075	364
349.621	352
352.165	350
354.708	366
357.251	338
359.793	348
362.334	324
364.874	276
367.413	306
369.951	322
372.489	316
375.026	316
377.562	306
380.097	280
382.631	264
385.164	260
387.697	242
390.229	236
392.76	224
395.29	238
397.819	240
400.346	226
402.873	246
405.4	246
407.926	272
410.451	314
412.976	328
415.499	358
418.02	344
420.542	302
423.063	260
425.583	246
428.101	220
430.619	250
433.137	192
435.654	202
438.169	208
440.684	190
443.198	180
445.712	168
448.223	156
450.735	168
453.246	172
455.755	178
458.264	172
460.771	188
463.279	176
465.786	206
468.291	224
470.796	242
473.301	290
475.803	338
478.306	376
480.807	458
483.308	494
485.807	526
488.307	438
490.804	348
493.302	304
495.798	288
498.294	230
500.788	222
503.283	210
505.775	228
508.269	252
510.759	328
513.251	400
515.74	350
518.23	308
520.718	292
523.204	294
525.692	316
528.177	382
530.663	476
533.147	578
535.629	670
538.113	766
540.594	728
543.074	700
545.555	556
548.034	464
550.512	364
552.989	386
555.467	414
557.942	484
560.417	656
562.892	956
565.365	1518
567.838	2548
570.309	3500
572.78	3600
575.251	2590
577.72	1518
580.189	918
582.656	700
585.123	614
587.589	594
590.055	550
592.52	480
594.983	494
597.446	446
599.908	368
602.369	304
604.829	260
607.289	240
609.747	232
612.205	202
614.663	218
617.119	206
619.574	224
622.029	234
624.483	224
626.936	260
629.389	288
631.84	298
634.291	310
636.741	300
639.19	302
641.639	284
644.086	268
646.533	240
648.979	220
651.424	228
653.869	204
656.313	208
658.754	186
661.196	186
663.638	180
666.078	164
668.518	184
670.957	156
673.394	166
675.831	162
678.268	160
680.703	178
683.137	170
685.571	172
688.005	156
690.437	158
692.868	168
695.299	174
697.729	158
700.159	168
702.586	160
705.014	182
707.441	202
709.866	198
712.292	208
714.716	258
717.14	228
719.563	206
721.984	206
724.406	208
726.825	202
729.246	202
731.665	186
734.082	204
736.5	206
738.916	224
741.332	228
743.746	270
746.161	284
748.574	332
750.987	318
753.398	288
755.81	276
758.219	234
760.629	236
763.037	204
765.445	184
767.852	194
770.258	194
772.664	200
775.068	196
777.472	210
779.876	216
782.278	204
784.679	206
787.08	192
789.48	192
791.879	188
794.278	188
796.675	184
799.072	198
801.467	188
803.864	198
806.258	202
808.651	222
811.044	214
813.437	208
815.828	212
818.218	228
820.608	222
822.997	260
825.385	322
827.773	470
830.16	768
832.546	1128
834.931	1126
837.315	654
839.699	396
842.081	314
844.463	266
846.844	260
849.226	248
851.606	244
853.985	262
856.363	234
858.741	218
861.117	230
863.493	210
865.868	204
868.243	188
870.616	192
872.989	204
875.36	180
877.731	192
880.102	176
882.472	202
884.841	188
887.209	186
889.577	178
891.944	164
894.31	172
896.674	184
899.039	162
901.403	172
903.766	168
906.128	160
908.49	198
910.849	170
913.209	172
915.569	184
917.927	178
920.284	184
922.641	162
924.997	182
927.353	182
929.707	188
932.061	182
934.414	188
936.765	194
939.117	214
941.469	214
943.818	256
946.167	270
948.515	324
950.863	394
953.211	522
955.556	680
957.902	864
960.246	908
962.59	880
964.933	738
967.276	644
969.617	502
971.958	444
974.298	346
976.638	304
978.976	264
981.314	232
983.651	236
985.988	204
988.323	220
990.659	224
992.992	212
995.325	232
997.658	202
999.99	194
1002.32	208
1004.65	188
1006.98	200
1009.31	214
1011.64	198
1013.97	218
1016.29	224
1018.62	228
1020.94	222
1023.27	238
1025.59	248
1027.91	262
1030.24	260
1032.56	276
1034.88	286
1037.2	276
1039.52	262
1041.84	246
1044.15	248
1046.47	234
1048.79	212
1051.1	214
1053.42	218
1055.73	208
1058.04	214
1060.36	192
1062.67	190
1064.98	178
1067.29	196
1069.6	214
1071.91	170
1074.22	208
1076.52	204
1078.83	194
1081.14	204
1083.44	218
1085.75	186
1088.05	210
1090.35	222
1092.65	210
1094.95	208
1097.26	212
1099.56	230
1101.86	240
1104.15	262
1106.45	356
1108.75	530
1111.05	832
1113.34	916
1115.64	716
1117.93	522
1120.22	370
1122.52	298
1124.81	270
1127.1	262
1129.39	268
1131.68	244
1133.97	250
1136.26	244
1138.54	246
1140.83	240
1143.12	250
1145.4	222
1147.69	216
1149.97	212
1152.25	208
1154.54	220
1156.82	248
1159.1	252
1161.38	266
1163.66	264
1165.94	280
1168.22	244
1170.49	246
1172.77	246
1175.05	260
1177.32	298
1179.6	332
1181.87	432
1184.14	544
1186.42	616
1188.69	606
1190.96	520
1193.23	440
1195.5	426
1197.77	442
1200.03	436
1202.3	490
1204.57	450
1206.83	436
1209.1	376
1211.36	304
1213.63	278
1215.89	256
1218.15	222
1220.41	234
1222.67	238
1224.93	282
1227.19	310
1229.45	360
1231.71	342
1233.97	294
1236.22	260
1238.48	250
1240.73	240
1242.99	252
1245.24	222
1247.5	234
1249.75	218
1252	232
1254.25	218
1256.5	240
1258.75	238
1261	232
1263.25	248
1265.49	246
1267.74	234
1269.99	252
1272.23	258
1274.48	272
1276.72	264
1278.96	284
1281.21	322
1283.45	332
1285.69	378
1287.93	414
1290.17	436
1292.41	474
1294.64	614
1296.88	730
1299.12	1104
1301.36	1534
1303.59	1994
1305.82	2172
1308.06	1790
1310.29	1348
1312.52	932
1314.76	750
1316.99	624
1319.22	538
1321.45	462
1323.68	478
1325.9	450
1328.13	476
1330.36	444
1332.58	418
1334.81	372
1337.04	350
1339.26	312
1341.48	334
1343.71	352
1345.93	362
1348.15	366
1350.37	380
1352.59	390
1354.81	364
1357.03	328
1359.24	304
1361.46	322
1363.68	296
1365.89	334
1368.11	346
1370.32	394
1372.54	552
1374.75	716
1376.96	968
1379.17	1058
1381.38	970
1383.59	894
1385.8	692
1388.01	526
1390.22	398
1392.43	318
1394.63	288
1396.84	284
1399.05	284
1401.25	276
1403.45	272
1405.66	276
1407.86	284
1410.06	278
1412.26	276
1414.46	308
1416.66	332
1418.86	362
1421.06	388
1423.26	408
1425.46	428
1427.65	412
1429.85	448
1432.04	412
1434.24	460
1436.43	496
1438.62	502
1440.82	492
1443.01	488
1445.2	464
1447.39	474
1449.58	426
1451.77	400
1453.95	370
1456.14	398
1458.33	368
1460.52	384
1462.7	356
1464.89	362
1467.07	380
1469.25	352
1471.44	376
1473.62	368
1475.8	352
1477.98	340
1480.16	350
1482.34	346
1484.52	340
1486.7	316
1488.87	322
1491.05	274
1493.23	296
1495.4	282
1497.58	288
1499.75	288
1501.92	292
1504.1	280
1506.27	268
1508.44	282
1510.61	284
1512.78	270
1514.95	276
1517.12	266
1519.28	280
1521.45	276
1523.62	284
1525.78	272
1527.95	270
1530.11	268
1532.28	258
1534.44	256
1536.6	294
1538.76	268
1540.93	282
1543.09	274
1545.25	268
1547.41	278
1549.56	284
1551.72	284
1553.88	294
1556.03	302
1558.19	296
1560.35	296
1562.5	306
1564.65	312
1566.81	286
1568.96	332
1571.11	330
1573.26	354
1575.41	338
1577.56	390
1579.71	410
1581.86	452
1584.01	486
1586.15	558
1588.3	664
1590.45	764
1592.59	860
1594.74	1006
1596.88	1188
1599.02	1348
1601.17	1444
1603.31	1430
1605.45	1384
1607.59	1322
1609.73	1164
1611.87	972
1614.01	828
1616.14	726
1618.28	618
1620.42	538
1622.55	452
1624.69	386
1626.82	350
1628.96	338
1631.09	308
1633.22	306
1635.36	278
1637.49	258
1639.62	280
1641.75	266
1643.88	242
1646	244
1648.13	248
1650.26	250
1652.39	250
1654.51	242
1656.64	232
1658.76	250
1660.89	244
1663.01	260
1665.13	222
1667.26	230
1669.38	242
1671.5	242
1673.62	248
1675.74	238
1677.86	242
1679.97	234
1682.09	228
1684.21	236
1686.33	242
1688.44	256
1690.56	266
1692.67	272
1694.78	264
1696.9	264
1699.01	262
1701.12	236
1703.23	278
1705.34	230
1707.45	236
1709.56	258
1711.67	250
1713.78	232
1715.88	216
1717.99	238
1720.1	244
1722.2	212
1724.31	234
1726.41	228
1728.51	222
1730.62	226
1732.72	226
1734.82	202
1736.92	220
1739.02	220
1741.12	218
1743.22	230
1745.32	218
1747.42	236
1749.51	196
1751.61	212
1753.7	208
1755.8	222
1757.89	210
1759.99	230
1762.08	202
1764.17	230
1766.26	220
1768.36	216
1770.45	230
1772.54	206
1774.62	222
1776.71	222
1778.8	208
1780.89	228
1782.98	212
1785.06	212
1787.15	210
1789.23	216
1791.32	208
1793.4	234
1795.48	230
1797.56	210
1799.65	204
1801.73	226
1803.81	218
1805.89	220
1807.97	206
1810.04	206
1812.12	216
1814.2	234
1816.28	228
1818.35	220
1820.43	218
1822.5	220
1824.58	224
1826.65	220
1828.72	218
1830.79	226
1832.86	198
1834.94	198
1837.01	216
1839.08	216
1841.15	234
1843.21	224
1845.28	214
1847.35	204
1849.41	228
1851.48	208
1853.55	236
1855.61	218
1857.67	212
1859.74	196
1861.8	212
1863.86	228
1865.92	214
1867.98	218
1870.05	210
1872.1	218
1874.16	222
1876.22	230
1878.28	198
1880.34	198
1882.39	202
1884.45	212
1886.5	222
1888.56	216
1890.61	216
1892.67	206
1894.72	238
1896.77	206
1898.82	216
1900.87	226
1902.92	200
1904.97	224
1907.02	212
1909.07	232
1911.12	230
1913.17	210
1915.21	222
1917.26	228
1919.3	230
1921.35	216
1923.39	208
1925.43	224
1927.48	224
1929.52	198
1931.56	212
1933.6	214
1935.64	222
1937.68	226
1939.72	222
1941.76	202
1943.8	224
1945.83	208
1947.87	204
1949.91	218
1951.94	214
1953.98	224
1956.01	224
1958.05	218
1960.08	218
1962.11	208
1964.14	228
1966.17	212
1968.2	218
1970.23	230
1972.26	224
1974.29	222
1976.32	206
1978.35	206
1980.37	208
1982.4	208
1984.43	206
1986.45	214
1988.48	220
1990.5	220
1992.52	216
1994.55	206
1996.57	204
1998.59	220
2000.61	228
2002.63	212
2004.65	210
2006.67	212
2008.69	220
2010.7	222
2012.72	202
2014.74	186
2016.75	186
2018.77	202
2020.78	230
2022.8	212
2024.81	220
2026.83	216
2028.84	210
2030.85	212
2032.86	220
2034.87	208
2036.88	218
2038.89	218
2040.9	212
2042.91	210
2044.91	212
2046.92	212
2048.93	212
2050.93	214
2052.94	222
2054.94	216
2056.95	220
2058.95	226
2060.95	222
2062.95	216
2064.96	226
2066.96	224
2068.96	226
2070.96	212
2072.96	234
2074.95	208
2076.95	216
2078.95	208
2080.95	206
2082.94	208
2084.94	222
2086.93	204
2088.93	242
2090.92	224
2092.91	204
2094.91	236
2096.9	210
2098.89	210
2100.88	214
2102.87	220
2104.86	220
2106.85	214
2108.84	210
2110.83	232
2112.81	216
2114.8	224
2116.78	204
2118.77	212
2120.75	208
2122.74	204
2124.72	206
2126.71	212
2128.69	210
2130.67	218
2132.65	224
2134.63	206
2136.61	206
2138.59	202
2140.57	212
2142.55	224
2144.53	208
2146.5	190
2148.48	198
2150.46	224
2152.43	232
2154.41	226
2156.38	222
2158.35	216
2160.33	210
2162.3	208
2164.27	212
2166.24	218
2168.21	216
2170.18	208
2172.15	210
2174.12	224
2176.09	208
2178.06	228
2180.03	220
2181.99	214
2183.96	212
2185.92	224
2187.89	218
2189.85	228
2191.82	196
2193.78	202
2195.74	208
2197.7	212
2199.67	194
2201.63	214
2203.59	204
2205.55	208
2207.51	214
2209.46	208
2211.42	196
2213.38	212
2215.34	226
2217.29	224
2219.25	204
2221.2	238
2223.16	224
2225.11	234
2227.06	218
2229.02	216
2230.97	218
2232.92	208
2234.87	202
2236.82	214
2238.77	214
2240.72	232
2242.67	218
2244.62	228
2246.57	236
2248.51	210
2250.46	216
2252.4	222
2254.35	214
2256.29	208
2258.24	210
2260.18	212
2262.13	226
2264.07	232
2266.01	204
2267.95	208
2269.89	220
2271.83	242
2273.77	220
2275.71	220
2277.65	206
2279.58	220
2281.52	214
2283.46	222
2285.4	232
2287.33	204
2289.27	220
2291.2	218
2293.13	216
2295.07	228
2297	218
2298.93	202
2300.86	214
2302.79	204
2304.72	228
2306.65	212
2308.58	220
2310.51	230
2312.44	218
2314.37	224
2316.29	226
2318.22	222
2320.15	216
2322.07	226
2324	232
2325.92	218
2327.84	202
2329.77	234
2331.69	234
2333.61	204
2335.53	220
2337.45	194
2339.37	220
2341.29	218
2343.21	212
2345.13	212
2347.05	230
2348.97	222
2350.88	204
2352.8	222
2354.71	212
2356.63	206
2358.54	218
2360.46	192
2362.37	198
2364.28	186
2366.2	216
2368.11	214
2370.02	216
2371.93	216
2373.84	222
2375.75	194
2377.66	210
2379.57	216
2381.47	218
2383.38	232
2385.29	208
2387.2	200
2389.1	214
2391.01	230
2392.91	240
2394.81	214
2396.72	200
2398.62	214
2400.52	226
2402.42	218
2404.33	240
2406.23	226
2408.13	218
2410.03	226
2411.92	216
2413.82	230
2415.72	220
2417.62	220
2419.51	222
2421.41	218
2423.31	202
2425.2	228
2427.1	200
2428.99	212
2430.88	210
2432.78	206
2434.67	212
2436.56	204
2438.45	204
2440.34	214
2442.23	210
2444.12	220
2446.01	210
2447.9	232
2449.79	212