File: Mixture_Classification/Jesse_Dataset_v2/Pure Raman/Polypropylene oxide/633nm/ps-ppo-7jan25-0,0000-map2_Y01_X06.txt
182.393	698
184.993	688
187.593	648
190.193	632
192.79	638
195.387	576
197.983	538
200.578	526
203.174	530
205.766	532
208.36	484
210.951	482
213.542	492
216.131	476
218.721	488
221.309	556
223.897	618
226.483	766
229.069	998
231.654	1210
234.238	1254
236.821	1260
239.404	1180
241.984	1028
244.566	876
247.145	764
249.723	648
252.302	568
254.878	476
257.455	426
260.03	356
262.604	340
265.178	328
267.75	298
270.322	296
272.893	274
275.463	284
278.032	294
280.601	320
283.168	344
285.734	400
288.301	476
290.866	546
293.429	630
295.992	640
298.556	614
301.117	582
303.677	506
306.236	482
308.795	438
311.354	416
313.911	388
316.467	364
319.022	366
321.577	362
324.13	386
326.684	378
329.236	396
331.787	420
334.337	396
336.887	406
339.435	400
341.983	360
344.529	370
347.075	380
349.621	352
352.165	356
354.708	364
357.251	380
359.793	350
362.334	326
364.874	336
367.413	336
369.951	342
372.489	352
375.026	364
377.562	334
380.097	282
382.631	290
385.164	260
387.697	274
390.229	268
392.76	240
395.29	232
397.819	246
400.346	240
402.873	252
405.4	258
407.926	296
410.451	334
412.976	368
415.499	408
418.02	370
420.542	304
423.063	286
425.583	268
428.101	246
430.619	230
433.137	206
435.654	194
438.169	196
440.684	182
443.198	186
445.712	176
448.223	182
450.735	176
453.246	190
455.755	190
458.264	188
460.771	196
463.279	192
465.786	222
468.291	242
470.796	294
473.301	314
475.803	356
478.306	406
480.807	456
483.308	520
485.807	526
488.307	456
490.804	370
493.302	304
495.798	286
498.294	240
500.788	212
503.283	224
505.775	234
508.269	284
510.759	320
513.251	400
515.74	402
518.23	320
520.718	304
523.204	326
525.692	350
528.177	384
530.663	462
533.147	622
535.629	720
538.113	744
540.594	760
543.074	690
545.555	558
548.034	466
550.512	400
552.989	394
555.467	456
557.942	530
560.417	706
562.892	980
565.365	1682
567.838	2758
570.309	3762
572.78	3716
575.251	2676
577.72	1600
580.189	960
582.656	706
585.123	648
587.589	612
590.055	556
592.52	528
594.983	486
597.446	476
599.908	382
602.369	328
604.829	272
607.289	248
609.747	228
612.205	226
614.663	208
617.119	226
619.574	230
622.029	246
624.483	268
626.936	290
629.389	308
631.84	316
634.291	310
636.741	352
639.19	324
641.639	304
644.086	270
646.533	244
648.979	236
651.424	218
653.869	232
656.313	214
658.754	202
661.196	192
663.638	186
666.078	174
668.518	180
670.957	194
673.394	168
675.831	174
678.268	168
680.703	178
683.137	170
685.571	186
688.005	174
690.437	172
692.868	188
695.299	178
697.729	162
700.159	190
702.586	170
705.014	192
707.441	202
709.866	218
712.292	234
714.716	250
717.14	272
719.563	232
721.984	216
724.406	208
726.825	198
729.246	218
731.665	210
734.082	230
736.5	234
738.916	246
741.332	262
743.746	286
746.161	328
748.574	360
750.987	334
753.398	298
755.81	276
758.219	242
760.629	232
763.037	194
765.445	206
767.852	186
770.258	212
772.664	198
775.068	210
777.472	236
779.876	228
782.278	220
784.679	228
787.08	214
789.48	216
791.879	194
794.278	194
796.675	192
799.072	206
801.467	192
803.864	210
806.258	218
808.651	212
811.044	226
813.437	214
815.828	228
818.218	226
820.608	238
822.997	278
825.385	348
827.773	494
830.16	852
832.546	1154
834.931	1058
837.315	676
839.699	406
842.081	302
844.463	286
846.844	266
849.226	274
851.606	252
853.985	250
856.363	252
858.741	246
861.117	234
863.493	216
865.868	214
868.243	216
870.616	208
872.989	196
875.36	216
877.731	190
880.102	198
882.472	188
884.841	208
887.209	190
889.577	176
891.944	180
894.31	194
896.674	190
899.039	182
901.403	178
903.766	182
906.128	184
908.49	200
910.849	202
913.209	186
915.569	186
917.927	172
920.284	190
922.641	206
924.997	200
927.353	200
929.707	188
932.061	204
934.414	208
936.765	218
939.117	240
941.469	236
943.818	270
946.167	308
948.515	348
950.863	448
953.211	538
955.556	744
957.902	836
960.246	934
962.59	886
964.933	734
967.276	658
969.617	546
971.958	436
974.298	356
976.638	306
978.976	280
981.314	256
983.651	226
985.988	232
988.323	252
990.659	236
992.992	248
995.325	230
997.658	208
999.99	206
1002.32	210
1004.65	218
1006.98	222
1009.31	220
1011.64	212
1013.97	224
1016.29	240
1018.62	244
1020.94	254
1023.27	256
1025.59	248
1027.91	270
1030.24	278
1032.56	290
1034.88	298
1037.2	284
1039.52	278
1041.84	276
1044.15	240
1046.47	254
1048.79	228
1051.1	234
1053.42	228
1055.73	210
1058.04	230
1060.36	204
1062.67	240
1064.98	198
1067.29	214
1069.6	222
1071.91	214
1074.22	182
1076.52	210
1078.83	204
1081.14	220
1083.44	210
1085.75	200
1088.05	216
1090.35	218
1092.65	210
1094.95	210
1097.26	222
1099.56	234
1101.86	260
1104.15	338
1106.45	402
1108.75	608
1111.05	850
1113.34	892
1115.64	728
1117.93	510
1120.22	392
1122.52	314
1124.81	290
1127.1	278
1129.39	258
1131.68	226
1133.97	262
1136.26	254
1138.54	266
1140.83	254
1143.12	270
1145.4	250
1147.69	238
1149.97	242
1152.25	232
1154.54	224
1156.82	250
1159.1	276
1161.38	276
1163.66	294
1165.94	280
1168.22	256
1170.49	256
1172.77	272
1175.05	280
1177.32	334
1179.6	358
1181.87	436
1184.14	558
1186.42	668
1188.69	620
1190.96	524
1193.23	446
1195.5	422
1197.77	462
1200.03	454
1202.3	500
1204.57	492
1206.83	450
1209.1	336
1211.36	334
1213.63	290
1215.89	258
1218.15	260
1220.41	266
1222.67	264
1224.93	306
1227.19	324
1229.45	344
1231.71	366
1233.97	322
1236.22	296
1238.48	264
1240.73	236
1242.99	252
1245.24	230
1247.5	244
1249.75	236
1252	236
1254.25	226
1256.5	246
1258.75	240
1261	258
1263.25	242
1265.49	250
1267.74	258
1269.99	268
1272.23	266
1274.48	292
1276.72	278
1278.96	294
1281.21	344
1283.45	360
1285.69	408
1287.93	442
1290.17	454
1292.41	512
1294.64	600
1296.88	808
1299.12	1122
1301.36	1630
1303.59	2086
1305.82	2236
1308.06	1800
1310.29	1336
1312.52	970
1314.76	756
1316.99	634
1319.22	576
1321.45	534
1323.68	504
1325.9	486
1328.13	456
1330.36	448
1332.58	428
1334.81	378
1337.04	370
1339.26	330
1341.48	334
1343.71	370
1345.93	396
1348.15	406
1350.37	388
1352.59	372
1354.81	368
1357.03	340
1359.24	316
1361.46	312
1363.68	336
1365.89	330
1368.11	352
1370.32	442
1372.54	540
1374.75	768
1376.96	976
1379.17	1096
1381.38	1044
1383.59	934
1385.8	740
1388.01	552
1390.22	406
1392.43	336
1394.63	308
1396.84	270
1399.05	286
1401.25	260
1403.45	276
1405.66	312
1407.86	284
1410.06	278
1412.26	302
1414.46	296
1416.66	336
1418.86	372
1421.06	356
1423.26	412
1425.46	418
1427.65	424
1429.85	428
1432.04	460
1434.24	454
1436.43	522
1438.62	536
1440.82	514
1443.01	490
1445.2	482
1447.39	478
1449.58	424
1451.77	406
1453.95	412
1456.14	400
1458.33	368
1460.52	392
1462.7	360
1464.89	374
1467.07	386
1469.25	356
1471.44	370
1473.62	348
1475.8	376
1477.98	380
1480.16	354
1482.34	334
1484.52	334
1486.7	324
1488.87	328
1491.05	298
1493.23	304
1495.4	286
1497.58	282
1499.75	294
1501.92	304
1504.1	266
1506.27	294
1508.44	282
1510.61	300
1512.78	272
1514.95	260
1517.12	286
1519.28	264
1521.45	276
1523.62	288
1525.78	268
1527.95	278
1530.11	252
1532.28	286
1534.44	296
1536.6	268
1538.76	280
1540.93	264
1543.09	274
1545.25	304
1547.41	284
1549.56	282
1551.72	284
1553.88	290
1556.03	288
1558.19	312
1560.35	288
1562.5	306
1564.65	316
1566.81	316
1568.96	304
1571.11	322
1573.26	364
1575.41	350
1577.56	392
1579.71	462
1581.86	468
1584.01	524
1586.15	608
1588.3	658
1590.45	768
1592.59	908
1594.74	1000
1596.88	1214
1599.02	1376
1601.17	1474
1603.31	1472
1605.45	1398
1607.59	1282
1609.73	1164
1611.87	990
1614.01	898
1616.14	722
1618.28	608
1620.42	552
1622.55	448
1624.69	402
1626.82	380
1628.96	332
1631.09	320
1633.22	310
1635.36	324
1637.49	262
1639.62	302
1641.75	274
1643.88	282
1646	246
1648.13	276
1650.26	260
1652.39	242
1654.51	260
1656.64	262
1658.76	242
1660.89	244
1663.01	244
1665.13	242
1667.26	232
1669.38	244
1671.5	244
1673.62	228
1675.74	242
1677.86	232
1679.97	234
1682.09	236
1684.21	230
1686.33	254
1688.44	260
1690.56	266
1692.67	256
1694.78	254
1696.9	272
1699.01	266
1701.12	256
1703.23	234
1705.34	240
1707.45	244
1709.56	260
1711.67	254
1713.78	240
1715.88	246
1717.99	240
1720.1	242
1722.2	240
1724.31	230
1726.41	232
1728.51	232
1730.62	200
1732.72	228
1734.82	216
1736.92	222
1739.02	222
1741.12	218
1743.22	230
1745.32	244
1747.42	214
1749.51	220
1751.61	212
1753.7	230
1755.8	228
1757.89	232
1759.99	226
1762.08	212
1764.17	222
1766.26	242
1768.36	214
1770.45	230
1772.54	226
1774.62	222
1776.71	220
1778.8	226
1780.89	222
1782.98	226
1785.06	228
1787.15	228
1789.23	212
1791.32	218
1793.4	218
1795.48	228
1797.56	218
1799.65	214
1801.73	220
1803.81	228
1805.89	200
1807.97	226
1810.04	234
1812.12	196
1814.2	216
1816.28	210
1818.35	226
1820.43	216
1822.5	228
1824.58	198
1826.65	194
1828.72	216
1830.79	200
1832.86	218
1834.94	218
1837.01	226
1839.08	212
1841.15	206
1843.21	228
1845.28	206
1847.35	224
1849.41	226
1851.48	240
1853.55	220
1855.61	220
1857.67	228
1859.74	222
1861.8	228
1863.86	226
1865.92	208
1867.98	212
1870.05	228
1872.1	208
1874.16	234
1876.22	198
1878.28	212
1880.34	222
1882.39	234
1884.45	226
1886.5	220
1888.56	240
1890.61	222
1892.67	224
1894.72	226
1896.77	220
1898.82	232
1900.87	212
1902.92	220
1904.97	238
1907.02	210
1909.07	212
1911.12	212
1913.17	216
1915.21	226
1917.26	210
1919.3	216
1921.35	230
1923.39	224
1925.43	226
1927.48	236
1929.52	232
1931.56	202
1933.6	210
1935.64	224
1937.68	214
1939.72	222
1941.76	202
1943.8	210
1945.83	240
1947.87	224
1949.91	230
1951.94	222
1953.98	222
1956.01	204
1958.05	232
1960.08	224
1962.11	218
1964.14	228
1966.17	216
1968.2	218
1970.23	236
1972.26	226
1974.29	208
1976.32	226
1978.35	210
1980.37	210
1982.4	222
1984.43	220
1986.45	220
1988.48	212
1990.5	216
1992.52	222
1994.55	216
1996.57	202
1998.59	204
2000.61	224
2002.63	224
2004.65	204
2006.67	230
2008.69	222
2010.7	224
2012.72	222
2014.74	222
2016.75	214
2018.77	230
2020.78	204
2022.8	214
2024.81	190
2026.83	216
2028.84	236
2030.85	212
2032.86	220
2034.87	236
2036.88	218
2038.89	218
2040.9	224
2042.91	214
2044.91	194
2046.92	224
2048.93	216
2050.93	226
2052.94	222
2054.94	218
2056.95	216
2058.95	228
2060.95	222
2062.95	230
2064.96	234
2066.96	202
2068.96	220
2070.96	218
2072.96	210
2074.95	222
2076.95	218
2078.95	216
2080.95	230
2082.94	210
2084.94	228
2086.93	222
2088.93	222
2090.92	232
2092.91	224
2094.91	234
2096.9	244
2098.89	214
2100.88	204
2102.87	226
2104.86	210
2106.85	212
2108.84	200
2110.83	220
2112.81	226
2114.8	238
2116.78	220
2118.77	210
2120.75	224
2122.74	236
2124.72	204
2126.71	224
2128.69	224
2130.67	198
2132.65	222
2134.63	232
2136.61	230
2138.59	224
2140.57	222
2142.55	212
2144.53	216
2146.5	226
2148.48	208
2150.46	230
2152.43	230
2154.41	220
2156.38	218
2158.35	218
2160.33	214
2162.3	194
2164.27	234
2166.24	224
2168.21	220
2170.18	224
2172.15	240
2174.12	198
2176.09	206
2178.06	214
2180.03	224
2181.99	222
2183.96	210
2185.92	216
2187.89	216
2189.85	218
2191.82	206
2193.78	208
2195.74	214
2197.7	208
2199.67	214
2201.63	226
2203.59	224
2205.55	208
2207.51	216
2209.46	226
2211.42	224
2213.38	202
2215.34	216
2217.29	216
2219.25	216
2221.2	220
2223.16	216
2225.11	222
2227.06	216
2229.02	220
2230.97	206
2232.92	220
2234.87	202
2236.82	212
2238.77	216
2240.72	218
2242.67	216
2244.62	208
2246.57	216
2248.51	216
2250.46	220
2252.4	216
2254.35	220
2256.29	212
2258.24	222
2260.18	220
2262.13	222
2264.07	228
2266.01	214
2267.95	222
2269.89	208
2271.83	214
2273.77	212
2275.71	210
2277.65	226
2279.58	218
2281.52	218
2283.46	218
2285.4	224
2287.33	216
2289.27	206
2291.2	226
2293.13	216
2295.07	214
2297	206
2298.93	200
2300.86	214
2302.79	228
2304.72	214
2306.65	214
2308.58	212
2310.51	222
2312.44	230
2314.37	222
2316.29	232
2318.22	236
2320.15	244
2322.07	238
2324	216
2325.92	230
2327.84	226
2329.77	242
2331.69	220
2333.61	228
2335.53	212
2337.45	240
2339.37	232
2341.29	220
2343.21	246
2345.13	228
2347.05	216
2348.97	232
2350.88	216
2352.8	218
2354.71	220
2356.63	230
2358.54	244
2360.46	216
2362.37	228
2364.28	226
2366.2	222
2368.11	216
2370.02	218
2371.93	232
2373.84	218
2375.75	218
2377.66	214
2379.57	216
2381.47	220
2383.38	232
2385.29	214
2387.2	214
2389.1	228
2391.01	216
2392.91	226
2394.81	216
2396.72	240
2398.62	222
2400.52	240
2402.42	228
2404.33	226
2406.23	236
2408.13	222
2410.03	232
2411.92	212
2413.82	210
2415.72	220
2417.62	204
2419.51	224
2421.41	214
2423.31	212
2425.2	226
2427.1	212
2428.99	198
2430.88	224
2432.78	204
2434.67	232
2436.56	226
2438.45	228
2440.34	218
2442.23	222
2444.12	210
2446.01	236
2447.9	208
2449.79	244