File: Mixture_Classification/Jesse_Dataset_v2/Pure Raman/Polypropylene oxide/633nm/ps-ppo-7jan25-0,0000-map2_Y06_X04.txt
182.393	700
184.993	626
187.593	664
190.193	646
192.79	614
195.387	568
197.983	546
200.578	500
203.174	508
205.766	502
208.36	500
210.951	484
213.542	434
216.131	458
218.721	460
221.309	500
223.897	598
226.483	696
229.069	892
231.654	1134
234.238	1260
236.821	1234
239.404	1124
241.984	984
244.566	830
247.145	720
249.723	650
252.302	524
254.878	470
257.455	392
260.03	364
262.604	320
265.178	314
267.75	286
270.322	268
272.893	268
275.463	272
278.032	286
280.601	292
283.168	308
285.734	368
288.301	448
290.866	526
293.429	570
295.992	620
298.556	618
301.117	536
303.677	500
306.236	464
308.795	386
311.354	394
313.911	392
316.467	356
319.022	346
321.577	360
324.13	352
326.684	368
329.236	372
331.787	394
334.337	396
336.887	398
339.435	384
341.983	358
344.529	334
347.075	336
349.621	352
352.165	352
354.708	364
357.251	340
359.793	340
362.334	296
364.874	340
367.413	330
369.951	310
372.489	350
375.026	326
377.562	294
380.097	256
382.631	256
385.164	268
387.697	262
390.229	244
392.76	234
395.29	242
397.819	228
400.346	234
402.873	242
405.4	262
407.926	272
410.451	306
412.976	346
415.499	362
418.02	330
420.542	304
423.063	252
425.583	242
428.101	224
430.619	208
433.137	206
435.654	192
438.169	180
440.684	176
443.198	180
445.712	164
448.223	172
450.735	160
453.246	164
455.755	172
458.264	158
460.771	174
463.279	188
465.786	186
468.291	230
470.796	274
473.301	306
475.803	332
478.306	380
480.807	446
483.308	470
485.807	500
488.307	416
490.804	352
493.302	286
495.798	246
498.294	234
500.788	230
503.283	214
505.775	228
508.269	246
510.759	306
513.251	368
515.74	404
518.23	310
520.718	270
523.204	292
525.692	314
528.177	380
530.663	460
533.147	598
535.629	674
538.113	772
540.594	770
543.074	666
545.555	570
548.034	436
550.512	360
552.989	378
555.467	422
557.942	494
560.417	660
562.892	948
565.365	1600
567.838	2632
570.309	3608
572.78	3638
575.251	2596
577.72	1560
580.189	942
582.656	684
585.123	638
587.589	576
590.055	546
592.52	490
594.983	490
597.446	462
599.908	368
602.369	306
604.829	260
607.289	240
609.747	208
612.205	216
614.663	218
617.119	210
619.574	218
622.029	226
624.483	250
626.936	236
629.389	280
631.84	304
634.291	290
636.741	308
639.19	290
641.639	290
644.086	252
646.533	236
648.979	228
651.424	198
653.869	188
656.313	198
658.754	178
661.196	164
663.638	190
666.078	164
668.518	152
670.957	168
673.394	174
675.831	162
678.268	156
680.703	160
683.137	158
685.571	170
688.005	158
690.437	162
692.868	166
695.299	156
697.729	170
700.159	156
702.586	170
705.014	164
707.441	186
709.866	202
712.292	196
714.716	228
717.14	228
719.563	224
721.984	194
724.406	196
726.825	200
729.246	204
731.665	210
734.082	192
736.5	204
738.916	228
741.332	248
743.746	280
746.161	330
748.574	324
750.987	318
753.398	300
755.81	294
758.219	232
760.629	208
763.037	186
765.445	192
767.852	184
770.258	182
772.664	206
775.068	198
777.472	212
779.876	222
782.278	218
784.679	220
787.08	172
789.48	188
791.879	192
794.278	184
796.675	188
799.072	188
801.467	192
803.864	190
806.258	210
808.651	202
811.044	202
813.437	188
815.828	210
818.218	212
820.608	216
822.997	274
825.385	314
827.773	478
830.16	796
832.546	1134
834.931	1106
837.315	688
839.699	394
842.081	300
844.463	274
846.844	246
849.226	242
851.606	242
853.985	242
856.363	220
858.741	226
861.117	226
863.493	208
865.868	216
868.243	192
870.616	188
872.989	204
875.36	178
877.731	180
880.102	176
882.472	192
884.841	174
887.209	176
889.577	178
891.944	168
894.31	168
896.674	170
899.039	156
901.403	196
903.766	176
906.128	172
908.49	180
910.849	168
913.209	186
915.569	174
917.927	174
920.284	186
922.641	174
924.997	166
927.353	182
929.707	202
932.061	198
934.414	210
936.765	208
939.117	204
941.469	206
943.818	242
946.167	262
948.515	330
950.863	430
953.211	510
955.556	654
957.902	842
960.246	948
962.59	870
964.933	764
967.276	642
969.617	500
971.958	446
974.298	342
976.638	280
978.976	252
981.314	214
983.651	230
985.988	216
988.323	212
990.659	216
992.992	212
995.325	200
997.658	188
999.99	198
1002.32	200
1004.65	196
1006.98	182
1009.31	196
1011.64	188
1013.97	192
1016.29	220
1018.62	208
1020.94	236
1023.27	236
1025.59	240
1027.91	266
1030.24	264
1032.56	272
1034.88	296
1037.2	280
1039.52	264
1041.84	244
1044.15	226
1046.47	208
1048.79	204
1051.1	196
1053.42	188
1055.73	192
1058.04	190
1060.36	206
1062.67	194
1064.98	210
1067.29	182
1069.6	196
1071.91	196
1074.22	188
1076.52	218
1078.83	196
1081.14	204
1083.44	202
1085.75	204
1088.05	214
1090.35	214
1092.65	202
1094.95	214
1097.26	208
1099.56	236
1101.86	236
1104.15	262
1106.45	376
1108.75	554
1111.05	818
1113.34	918
1115.64	726
1117.93	492
1120.22	404
1122.52	294
1124.81	274
1127.1	264
1129.39	248
1131.68	242
1133.97	242
1136.26	232
1138.54	232
1140.83	230
1143.12	244
1145.4	258
1147.69	230
1149.97	208
1152.25	212
1154.54	216
1156.82	242
1159.1	258
1161.38	276
1163.66	266
1165.94	272
1168.22	254
1170.49	232
1172.77	264
1175.05	250
1177.32	290
1179.6	330
1181.87	416
1184.14	544
1186.42	632
1188.69	598
1190.96	504
1193.23	432
1195.5	402
1197.77	406
1200.03	428
1202.3	454
1204.57	446
1206.83	396
1209.1	340
1211.36	288
1213.63	272
1215.89	252
1218.15	242
1220.41	240
1222.67	228
1224.93	274
1227.19	314
1229.45	330
1231.71	344
1233.97	300
1236.22	240
1238.48	242
1240.73	232
1242.99	228
1245.24	222
1247.5	210
1249.75	226
1252	224
1254.25	222
1256.5	222
1258.75	210
1261	228
1263.25	230
1265.49	242
1267.74	234
1269.99	246
1272.23	238
1274.48	256
1276.72	260
1278.96	310
1281.21	336
1283.45	340
1285.69	382
1287.93	400
1290.17	444
1292.41	476
1294.64	586
1296.88	768
1299.12	1048
1301.36	1502
1303.59	2038
1305.82	2184
1308.06	1858
1310.29	1314
1312.52	956
1314.76	746
1316.99	622
1319.22	550
1321.45	490
1323.68	458
1325.9	478
1328.13	438
1330.36	436
1332.58	412
1334.81	362
1337.04	324
1339.26	306
1341.48	330
1343.71	374
1345.93	344
1348.15	386
1350.37	378
1352.59	390
1354.81	372
1357.03	346
1359.24	318
1361.46	302
1363.68	298
1365.89	296
1368.11	336
1370.32	396
1372.54	514
1374.75	726
1376.96	972
1379.17	1042
1381.38	1050
1383.59	850
1385.8	716
1388.01	530
1390.22	388
1392.43	326
1394.63	282
1396.84	264
1399.05	288
1401.25	256
1403.45	258
1405.66	270
1407.86	272
1410.06	274
1412.26	288
1414.46	302
1416.66	322
1418.86	348
1421.06	344
1423.26	394
1425.46	404
1427.65	390
1429.85	454
1432.04	420
1434.24	454
1436.43	500
1438.62	494
1440.82	488
1443.01	482
1445.2	474
1447.39	434
1449.58	410
1451.77	384
1453.95	378
1456.14	366
1458.33	374
1460.52	370
1462.7	382
1464.89	336
1467.07	354
1469.25	346
1471.44	372
1473.62	322
1475.8	348
1477.98	356
1480.16	346
1482.34	320
1484.52	314
1486.7	314
1488.87	290
1491.05	296
1493.23	288
1495.4	296
1497.58	274
1499.75	296
1501.92	274
1504.1	276
1506.27	280
1508.44	276
1510.61	248
1512.78	274
1514.95	270
1517.12	282
1519.28	270
1521.45	276
1523.62	250
1525.78	250
1527.95	274
1530.11	252
1532.28	268
1534.44	270
1536.6	248
1538.76	264
1540.93	268
1543.09	262
1545.25	288
1547.41	262
1549.56	270
1551.72	278
1553.88	284
1556.03	288
1558.19	298
1560.35	286
1562.5	290
1564.65	288
1566.81	300
1568.96	320
1571.11	318
1573.26	338
1575.41	348
1577.56	388
1579.71	436
1581.86	458
1584.01	506
1586.15	562
1588.3	682
1590.45	764
1592.59	858
1594.74	1028
1596.88	1222
1599.02	1350
1601.17	1450
1603.31	1472
1605.45	1382
1607.59	1298
1609.73	1106
1611.87	1020
1614.01	856
1616.14	734
1618.28	644
1620.42	522
1622.55	432
1624.69	392
1626.82	350
1628.96	316
1631.09	302
1633.22	288
1635.36	266
1637.49	264
1639.62	248
1641.75	248
1643.88	244
1646	236
1648.13	242
1650.26	232
1652.39	244
1654.51	226
1656.64	240
1658.76	246
1660.89	238
1663.01	230
1665.13	218
1667.26	222
1669.38	216
1671.5	220
1673.62	212
1675.74	222
1677.86	226
1679.97	210
1682.09	236
1684.21	216
1686.33	252
1688.44	242
1690.56	248
1692.67	220
1694.78	270
1696.9	246
1699.01	244
1701.12	250
1703.23	240
1705.34	262
1707.45	220
1709.56	236
1711.67	242
1713.78	220
1715.88	224
1717.99	228
1720.1	210
1722.2	224
1724.31	194
1726.41	206
1728.51	216
1730.62	208
1732.72	210
1734.82	198
1736.92	210
1739.02	214
1741.12	200
1743.22	210
1745.32	204
1747.42	198
1749.51	220
1751.61	198
1753.7	210
1755.8	228
1757.89	214
1759.99	208
1762.08	218
1764.17	186
1766.26	198
1768.36	210
1770.45	212
1772.54	210
1774.62	206
1776.71	232
1778.8	212
1780.89	198
1782.98	204
1785.06	204
1787.15	202
1789.23	206
1791.32	198
1793.4	196
1795.48	214
1797.56	202
1799.65	202
1801.73	198
1803.81	194
1805.89	208
1807.97	214
1810.04	208
1812.12	204
1814.2	212
1816.28	210
1818.35	214
1820.43	184
1822.5	198
1824.58	220
1826.65	204
1828.72	198
1830.79	210
1832.86	200
1834.94	198
1837.01	192
1839.08	206
1841.15	198
1843.21	204
1845.28	206
1847.35	202
1849.41	220
1851.48	208
1853.55	184
1855.61	208
1857.67	202
1859.74	220
1861.8	206
1863.86	194
1865.92	198
1867.98	204
1870.05	210
1872.1	204
1874.16	204
1876.22	192
1878.28	194
1880.34	190
1882.39	210
1884.45	202
1886.5	202
1888.56	218
1890.61	214
1892.67	202
1894.72	196
1896.77	212
1898.82	190
1900.87	194
1902.92	232
1904.97	212
1907.02	204
1909.07	202
1911.12	214
1913.17	224
1915.21	202
1917.26	192
1919.3	206
1921.35	196
1923.39	202
1925.43	186
1927.48	222
1929.52	196
1931.56	212
1933.6	188
1935.64	200
1937.68	208
1939.72	202
1941.76	202
1943.8	204
1945.83	206
1947.87	200
1949.91	200
1951.94	210
1953.98	208
1956.01	208
1958.05	202
1960.08	194
1962.11	196
1964.14	220
1966.17	214
1968.2	194
1970.23	192
1972.26	192
1974.29	210
1976.32	204
1978.35	198
1980.37	204
1982.4	204
1984.43	208
1986.45	194
1988.48	204
1990.5	210
1992.52	206
1994.55	192
1996.57	218
1998.59	176
2000.61	210
2002.63	206
2004.65	194
2006.67	190
2008.69	216
2010.7	200
2012.72	226
2014.74	198
2016.75	212
2018.77	212
2020.78	188
2022.8	214
2024.81	198
2026.83	224
2028.84	206
2030.85	208
2032.86	208
2034.87	214
2036.88	204
2038.89	202
2040.9	226
2042.91	214
2044.91	210
2046.92	200
2048.93	206
2050.93	202
2052.94	220
2054.94	172
2056.95	206
2058.95	210
2060.95	202
2062.95	208
2064.96	212
2066.96	204
2068.96	214
2070.96	210
2072.96	208
2074.95	220
2076.95	208
2078.95	212
2080.95	212
2082.94	190
2084.94	202
2086.93	196
2088.93	196
2090.92	202
2092.91	208
2094.91	196
2096.9	208
2098.89	216
2100.88	204
2102.87	214
2104.86	182
2106.85	202
2108.84	200
2110.83	200
2112.81	204
2114.8	200
2116.78	210
2118.77	188
2120.75	198
2122.74	210
2124.72	222
2126.71	188
2128.69	190
2130.67	202
2132.65	194
2134.63	212
2136.61	202
2138.59	212
2140.57	200
2142.55	206
2144.53	204
2146.5	214
2148.48	200
2150.46	196
2152.43	208
2154.41	196
2156.38	208
2158.35	190
2160.33	202
2162.3	212
2164.27	200
2166.24	198
2168.21	204
2170.18	194
2172.15	206
2174.12	210
2176.09	212
2178.06	188
2180.03	186
2181.99	192
2183.96	208
2185.92	190
2187.89	210
2189.85	200
2191.82	218
2193.78	204
2195.74	198
2197.7	206
2199.67	202
2201.63	208
2203.59	200
2205.55	204
2207.51	206
2209.46	178
2211.42	210
2213.38	190
2215.34	200
2217.29	200
2219.25	218
2221.2	224
2223.16	208
2225.11	196
2227.06	212
2229.02	200
2230.97	200
2232.92	194
2234.87	208
2236.82	196
2238.77	226
2240.72	204
2242.67	206
2244.62	206
2246.57	202
2248.51	198
2250.46	206
2252.4	204
2254.35	200
2256.29	196
2258.24	200
2260.18	202
2262.13	198
2264.07	194
2266.01	216
2267.95	196
2269.89	202
2271.83	208
2273.77	214
2275.71	200
2277.65	198
2279.58	214
2281.52	204
2283.46	220
2285.4	210
2287.33	212
2289.27	230
2291.2	196
2293.13	216
2295.07	190
2297	192
2298.93	182
2300.86	214
2302.79	200
2304.72	214
2306.65	216
2308.58	224
2310.51	210
2312.44	200
2314.37	208
2316.29	240
2318.22	230
2320.15	218
2322.07	208
2324	206
2325.92	204
2327.84	204
2329.77	210
2331.69	212
2333.61	228
2335.53	216
2337.45	204
2339.37	218
2341.29	200
2343.21	216
2345.13	216
2347.05	220
2348.97	214
2350.88	202
2352.8	204
2354.71	200
2356.63	216
2358.54	224
2360.46	200
2362.37	206
2364.28	210
2366.2	200
2368.11	204
2370.02	214
2371.93	202
2373.84	206
2375.75	190
2377.66	210
2379.57	214
2381.47	184
2383.38	210
2385.29	188
2387.2	208
2389.1	198
2391.01	228
2392.91	210
2394.81	218
2396.72	212
2398.62	206
2400.52	222
2402.42	222
2404.33	212
2406.23	210
2408.13	220
2410.03	222
2411.92	204
2413.82	226
2415.72	218
2417.62	194
2419.51	214
2421.41	208
2423.31	204
2425.2	192
2427.1	210
2428.99	220
2430.88	224
2432.78	210
2434.67	208
2436.56	200
2438.45	194
2440.34	198
2442.23	208
2444.12	216
2446.01	220
2447.9	216
2449.79	212