File: Mixture_Classification/Jesse_Dataset_v2/Pure Raman/Polypropylene oxide/633nm/ps-ppo-7jan25-0,0000-map2_Y07_X05.txt
182.393	706
184.993	674
187.593	604
190.193	616
192.79	590
195.387	542
197.983	526
200.578	548
203.174	468
205.766	480
208.36	498
210.951	466
213.542	462
216.131	478
218.721	460
221.309	518
223.897	580
226.483	714
229.069	898
231.654	1142
234.238	1266
236.821	1236
239.404	1146
241.984	1012
244.566	832
247.145	762
249.723	630
252.302	518
254.878	470
257.455	420
260.03	372
262.604	326
265.178	306
267.75	310
270.322	282
272.893	288
275.463	286
278.032	300
280.601	300
283.168	330
285.734	358
288.301	432
290.866	556
293.429	602
295.992	622
298.556	582
301.117	524
303.677	484
306.236	470
308.795	414
311.354	404
313.911	394
316.467	360
319.022	356
321.577	350
324.13	368
326.684	352
329.236	340
331.787	368
334.337	406
336.887	396
339.435	380
341.983	394
344.529	352
347.075	344
349.621	332
352.165	360
354.708	368
357.251	354
359.793	364
362.334	314
364.874	318
367.413	322
369.951	326
372.489	332
375.026	348
377.562	298
380.097	304
382.631	276
385.164	244
387.697	238
390.229	250
392.76	242
395.29	226
397.819	232
400.346	230
402.873	250
405.4	272
407.926	280
410.451	322
412.976	352
415.499	360
418.02	332
420.542	322
423.063	264
425.583	240
428.101	220
430.619	238
433.137	218
435.654	190
438.169	192
440.684	182
443.198	176
445.712	150
448.223	164
450.735	168
453.246	172
455.755	170
458.264	162
460.771	180
463.279	164
465.786	220
468.291	226
470.796	270
473.301	298
475.803	348
478.306	392
480.807	418
483.308	476
485.807	510
488.307	428
490.804	354
493.302	310
495.798	268
498.294	228
500.788	230
503.283	212
505.775	230
508.269	262
510.759	308
513.251	388
515.74	356
518.23	316
520.718	282
523.204	288
525.692	338
528.177	386
530.663	436
533.147	594
535.629	686
538.113	756
540.594	762
543.074	712
545.555	542
548.034	450
550.512	390
552.989	404
555.467	400
557.942	496
560.417	650
562.892	966
565.365	1578
567.838	2582
570.309	3682
572.78	3680
575.251	2652
577.72	1498
580.189	954
582.656	722
585.123	636
587.589	594
590.055	538
592.52	504
594.983	472
597.446	464
599.908	396
602.369	304
604.829	264
607.289	240
609.747	212
612.205	212
614.663	212
617.119	208
619.574	222
622.029	254
624.483	256
626.936	290
629.389	294
631.84	290
634.291	324
636.741	330
639.19	314
641.639	256
644.086	272
646.533	244
648.979	244
651.424	210
653.869	206
656.313	204
658.754	194
661.196	166
663.638	182
666.078	176
668.518	174
670.957	180
673.394	176
675.831	164
678.268	162
680.703	176
683.137	164
685.571	180
688.005	170
690.437	162
692.868	180
695.299	162
697.729	166
700.159	174
702.586	168
705.014	184
707.441	180
709.866	218
712.292	236
714.716	242
717.14	228
719.563	208
721.984	212
724.406	200
726.825	188
729.246	206
731.665	200
734.082	192
736.5	216
738.916	226
741.332	242
743.746	270
746.161	308
748.574	340
750.987	300
753.398	288
755.81	262
758.219	244
760.629	206
763.037	204
765.445	200
767.852	202
770.258	184
772.664	204
775.068	198
777.472	230
779.876	228
782.278	218
784.679	202
787.08	196
789.48	192
791.879	192
794.278	188
796.675	188
799.072	180
801.467	192
803.864	198
806.258	186
808.651	202
811.044	220
813.437	206
815.828	214
818.218	228
820.608	254
822.997	268
825.385	330
827.773	480
830.16	778
832.546	1148
834.931	1094
837.315	688
839.699	372
842.081	306
844.463	252
846.844	256
849.226	276
851.606	256
853.985	248
856.363	238
858.741	222
861.117	232
863.493	204
865.868	202
868.243	186
870.616	206
872.989	190
875.36	190
877.731	186
880.102	180
882.472	178
884.841	180
887.209	186
889.577	178
891.944	178
894.31	172
896.674	180
899.039	170
901.403	172
903.766	190
906.128	174
908.49	182
910.849	178
913.209	186
915.569	182
917.927	174
920.284	168
922.641	188
924.997	190
927.353	190
929.707	180
932.061	200
934.414	178
936.765	194
939.117	210
941.469	220
943.818	228
946.167	270
948.515	330
950.863	400
953.211	522
955.556	676
957.902	850
960.246	940
962.59	842
964.933	792
967.276	630
969.617	546
971.958	446
974.298	358
976.638	314
978.976	274
981.314	252
983.651	226
985.988	224
988.323	224
990.659	244
992.992	230
995.325	214
997.658	200
999.99	176
1002.32	192
1004.65	198
1006.98	216
1009.31	194
1011.64	200
1013.97	224
1016.29	208
1018.62	232
1020.94	220
1023.27	256
1025.59	246
1027.91	254
1030.24	280
1032.56	278
1034.88	274
1037.2	274
1039.52	260
1041.84	284
1044.15	244
1046.47	232
1048.79	222
1051.1	234
1053.42	222
1055.73	204
1058.04	210
1060.36	202
1062.67	198
1064.98	186
1067.29	216
1069.6	188
1071.91	192
1074.22	190
1076.52	196
1078.83	194
1081.14	206
1083.44	204
1085.75	200
1088.05	212
1090.35	206
1092.65	206
1094.95	212
1097.26	222
1099.56	226
1101.86	254
1104.15	274
1106.45	376
1108.75	532
1111.05	804
1113.34	888
1115.64	720
1117.93	502
1120.22	376
1122.52	308
1124.81	298
1127.1	256
1129.39	262
1131.68	244
1133.97	236
1136.26	260
1138.54	262
1140.83	236
1143.12	248
1145.4	226
1147.69	228
1149.97	226
1152.25	226
1154.54	248
1156.82	242
1159.1	250
1161.38	274
1163.66	266
1165.94	246
1168.22	266
1170.49	242
1172.77	244
1175.05	286
1177.32	306
1179.6	318
1181.87	442
1184.14	552
1186.42	622
1188.69	606
1190.96	510
1193.23	460
1195.5	412
1197.77	438
1200.03	448
1202.3	448
1204.57	460
1206.83	428
1209.1	362
1211.36	316
1213.63	258
1215.89	252
1218.15	242
1220.41	248
1222.67	264
1224.93	266
1227.19	304
1229.45	356
1231.71	352
1233.97	308
1236.22	286
1238.48	238
1240.73	248
1242.99	242
1245.24	236
1247.5	234
1249.75	236
1252	224
1254.25	220
1256.5	222
1258.75	230
1261	230
1263.25	244
1265.49	236
1267.74	246
1269.99	254
1272.23	262
1274.48	286
1276.72	288
1278.96	260
1281.21	318
1283.45	344
1285.69	366
1287.93	430
1290.17	430
1292.41	496
1294.64	624
1296.88	816
1299.12	1128
1301.36	1508
1303.59	2000
1305.82	2192
1308.06	1878
1310.29	1314
1312.52	950
1314.76	784
1316.99	632
1319.22	560
1321.45	518
1323.68	476
1325.9	488
1328.13	458
1330.36	454
1332.58	402
1334.81	388
1337.04	352
1339.26	338
1341.48	350
1343.71	350
1345.93	350
1348.15	386
1350.37	386
1352.59	388
1354.81	360
1357.03	356
1359.24	326
1361.46	292
1363.68	304
1365.89	336
1368.11	348
1370.32	402
1372.54	504
1374.75	740
1376.96	966
1379.17	1058
1381.38	1042
1383.59	912
1385.8	722
1388.01	530
1390.22	426
1392.43	320
1394.63	298
1396.84	274
1399.05	262
1401.25	272
1403.45	282
1405.66	284
1407.86	260
1410.06	280
1412.26	294
1414.46	292
1416.66	312
1418.86	336
1421.06	368
1423.26	380
1425.46	406
1427.65	412
1429.85	416
1432.04	432
1434.24	450
1436.43	484
1438.62	514
1440.82	530
1443.01	512
1445.2	462
1447.39	448
1449.58	406
1451.77	404
1453.95	400
1456.14	378
1458.33	400
1460.52	378
1462.7	384
1464.89	368
1467.07	356
1469.25	366
1471.44	362
1473.62	360
1475.8	346
1477.98	342
1480.16	332
1482.34	328
1484.52	308
1486.7	352
1488.87	308
1491.05	298
1493.23	306
1495.4	280
1497.58	300
1499.75	266
1501.92	294
1504.1	254
1506.27	288
1508.44	260
1510.61	278
1512.78	270
1514.95	276
1517.12	276
1519.28	268
1521.45	276
1523.62	276
1525.78	262
1527.95	280
1530.11	272
1532.28	252
1534.44	284
1536.6	268
1538.76	266
1540.93	272
1543.09	266
1545.25	290
1547.41	280
1549.56	278
1551.72	294
1553.88	300
1556.03	282
1558.19	296
1560.35	296
1562.5	292
1564.65	288
1566.81	320
1568.96	304
1571.11	316
1573.26	348
1575.41	386
1577.56	406
1579.71	422
1581.86	458
1584.01	486
1586.15	548
1588.3	652
1590.45	774
1592.59	890
1594.74	1004
1596.88	1204
1599.02	1316
1601.17	1456
1603.31	1446
1605.45	1432
1607.59	1296
1609.73	1126
1611.87	1008
1614.01	838
1616.14	722
1618.28	616
1620.42	518
1622.55	446
1624.69	402
1626.82	352
1628.96	334
1631.09	280
1633.22	298
1635.36	278
1637.49	272
1639.62	250
1641.75	264
1643.88	248
1646	270
1648.13	232
1650.26	242
1652.39	242
1654.51	238
1656.64	240
1658.76	230
1660.89	238
1663.01	234
1665.13	224
1667.26	228
1669.38	234
1671.5	224
1673.62	214
1675.74	226
1677.86	244
1679.97	234
1682.09	244
1684.21	240
1686.33	242
1688.44	242
1690.56	244
1692.67	254
1694.78	252
1696.9	256
1699.01	254
1701.12	264
1703.23	238
1705.34	242
1707.45	246
1709.56	226
1711.67	238
1713.78	230
1715.88	226
1717.99	210
1720.1	238
1722.2	224
1724.31	218
1726.41	222
1728.51	232
1730.62	236
1732.72	208
1734.82	214
1736.92	218
1739.02	202
1741.12	218
1743.22	216
1745.32	222
1747.42	214
1749.51	232
1751.61	216
1753.7	218
1755.8	210
1757.89	220
1759.99	218
1762.08	196
1764.17	220
1766.26	204
1768.36	228
1770.45	210
1772.54	226
1774.62	218
1776.71	232
1778.8	220
1780.89	214
1782.98	210
1785.06	220
1787.15	222
1789.23	220
1791.32	202
1793.4	214
1795.48	226
1797.56	204
1799.65	222
1801.73	212
1803.81	210
1805.89	220
1807.97	214
1810.04	214
1812.12	216
1814.2	216
1816.28	220
1818.35	214
1820.43	212
1822.5	206
1824.58	230
1826.65	218
1828.72	212
1830.79	208
1832.86	216
1834.94	228
1837.01	220
1839.08	208
1841.15	216
1843.21	210
1845.28	210
1847.35	240
1849.41	220
1851.48	202
1853.55	206
1855.61	218
1857.67	216
1859.74	198
1861.8	206
1863.86	220
1865.92	220
1867.98	202
1870.05	200
1872.1	226
1874.16	214
1876.22	214
1878.28	208
1880.34	212
1882.39	222
1884.45	214
1886.5	216
1888.56	210
1890.61	212
1892.67	212
1894.72	222
1896.77	216
1898.82	220
1900.87	230
1902.92	230
1904.97	216
1907.02	196
1909.07	208
1911.12	198
1913.17	218
1915.21	218
1917.26	210
1919.3	210
1921.35	212
1923.39	216
1925.43	228
1927.48	222
1929.52	210
1931.56	206
1933.6	212
1935.64	210
1937.68	208
1939.72	208
1941.76	216
1943.8	208
1945.83	224
1947.87	228
1949.91	210
1951.94	208
1953.98	204
1956.01	208
1958.05	216
1960.08	212
1962.11	214
1964.14	214
1966.17	216
1968.2	208
1970.23	202
1972.26	214
1974.29	202
1976.32	230
1978.35	222
1980.37	214
1982.4	218
1984.43	200
1986.45	220
1988.48	230
1990.5	206
1992.52	206
1994.55	214
1996.57	214
1998.59	224
2000.61	218
2002.63	200
2004.65	224
2006.67	208
2008.69	216
2010.7	220
2012.72	200
2014.74	206
2016.75	208
2018.77	216
2020.78	204
2022.8	204
2024.81	216
2026.83	190
2028.84	208
2030.85	214
2032.86	200
2034.87	208
2036.88	212
2038.89	216
2040.9	224
2042.91	224
2044.91	206
2046.92	202
2048.93	204
2050.93	206
2052.94	200
2054.94	222
2056.95	232
2058.95	222
2060.95	226
2062.95	214
2064.96	222
2066.96	216
2068.96	232
2070.96	210
2072.96	234
2074.95	200
2076.95	214
2078.95	208
2080.95	220
2082.94	210
2084.94	214
2086.93	210
2088.93	234
2090.92	218
2092.91	218
2094.91	206
2096.9	208
2098.89	210
2100.88	216
2102.87	206
2104.86	210
2106.85	218
2108.84	196
2110.83	218
2112.81	206
2114.8	216
2116.78	220
2118.77	210
2120.75	218
2122.74	218
2124.72	200
2126.71	220
2128.69	198
2130.67	204
2132.65	216
2134.63	226
2136.61	198
2138.59	214
2140.57	220
2142.55	226
2144.53	210
2146.5	218
2148.48	202
2150.46	216
2152.43	206
2154.41	206
2156.38	214
2158.35	232
2160.33	212
2162.3	228
2164.27	216
2166.24	216
2168.21	220
2170.18	204
2172.15	230
2174.12	204
2176.09	222
2178.06	200
2180.03	204
2181.99	210
2183.96	206
2185.92	218
2187.89	218
2189.85	216
2191.82	206
2193.78	216
2195.74	212
2197.7	208
2199.67	198
2201.63	202
2203.59	200
2205.55	216
2207.51	200
2209.46	202
2211.42	224
2213.38	212
2215.34	204
2217.29	198
2219.25	210
2221.2	220
2223.16	208
2225.11	214
2227.06	216
2229.02	212
2230.97	220
2232.92	206
2234.87	216
2236.82	222
2238.77	206
2240.72	208
2242.67	216
2244.62	214
2246.57	214
2248.51	220
2250.46	204
2252.4	208
2254.35	222
2256.29	210
2258.24	226
2260.18	194
2262.13	204
2264.07	226
2266.01	224
2267.95	212
2269.89	212
2271.83	222
2273.77	212
2275.71	222
2277.65	210
2279.58	220
2281.52	216
2283.46	220
2285.4	214
2287.33	226
2289.27	208
2291.2	222
2293.13	206
2295.07	204
2297	212
2298.93	202
2300.86	216
2302.79	208
2304.72	208
2306.65	228
2308.58	216
2310.51	214
2312.44	236
2314.37	230
2316.29	240
2318.22	234
2320.15	232
2322.07	222
2324	220
2325.92	210
2327.84	216
2329.77	202
2331.69	238
2333.61	200
2335.53	228
2337.45	216
2339.37	228
2341.29	202
2343.21	212
2345.13	220
2347.05	222
2348.97	238
2350.88	216
2352.8	204
2354.71	220
2356.63	202
2358.54	224
2360.46	216
2362.37	216
2364.28	228
2366.2	204
2368.11	206
2370.02	232
2371.93	234
2373.84	212
2375.75	204
2377.66	216
2379.57	230
2381.47	216
2383.38	226
2385.29	216
2387.2	216
2389.1	224
2391.01	224
2392.91	226
2394.81	216
2396.72	224
2398.62	218
2400.52	232
2402.42	220
2404.33	226
2406.23	216
2408.13	218
2410.03	220
2411.92	208
2413.82	212
2415.72	212
2417.62	212
2419.51	214
2421.41	184
2423.31	196
2425.2	220
2427.1	200
2428.99	208
2430.88	216
2432.78	222
2434.67	212
2436.56	192
2438.45	224
2440.34	214
2442.23	210
2444.12	224
2446.01	200
2447.9	204
2449.79	202