File: Mixture_Classification/Jesse_Dataset_v2/Pure Raman/Polypropylene oxide/633nm/ps-ppo-7jan25-0,0000-map2_Y05_X06.txt
182.393	634
184.993	606
187.593	602
190.193	556
192.79	544
195.387	518
197.983	494
200.578	450
203.174	466
205.766	470
208.36	406
210.951	440
213.542	400
216.131	400
218.721	428
221.309	466
223.897	546
226.483	672
229.069	898
231.654	1096
234.238	1212
236.821	1208
239.404	1092
241.984	968
244.566	844
247.145	704
249.723	572
252.302	498
254.878	406
257.455	366
260.03	316
262.604	286
265.178	252
267.75	232
270.322	238
272.893	242
275.463	234
278.032	232
280.601	262
283.168	284
285.734	326
288.301	388
290.866	476
293.429	554
295.992	582
298.556	562
301.117	494
303.677	456
306.236	394
308.795	372
311.354	356
313.911	314
316.467	316
319.022	338
321.577	318
324.13	296
326.684	320
329.236	334
331.787	346
334.337	370
336.887	354
339.435	346
341.983	314
344.529	300
347.075	286
349.621	310
352.165	306
354.708	310
357.251	300
359.793	288
362.334	262
364.874	264
367.413	272
369.951	282
372.489	274
375.026	284
377.562	266
380.097	242
382.631	216
385.164	212
387.697	218
390.229	202
392.76	188
395.29	178
397.819	170
400.346	176
402.873	200
405.4	198
407.926	214
410.451	262
412.976	296
415.499	310
418.02	300
420.542	254
423.063	226
425.583	198
428.101	192
430.619	164
433.137	146
435.654	144
438.169	132
440.684	124
443.198	130
445.712	126
448.223	116
450.735	120
453.246	124
455.755	116
458.264	134
460.771	136
463.279	144
465.786	156
468.291	176
470.796	212
473.301	252
475.803	288
478.306	344
480.807	368
483.308	406
485.807	468
488.307	398
490.804	310
493.302	256
495.798	214
498.294	176
500.788	160
503.283	160
505.775	172
508.269	206
510.759	260
513.251	346
515.74	318
518.23	264
520.718	238
523.204	232
525.692	286
528.177	318
530.663	404
533.147	534
535.629	622
538.113	708
540.594	722
543.074	632
545.555	524
548.034	394
550.512	340
552.989	348
555.467	360
557.942	448
560.417	610
562.892	970
565.365	1578
567.838	2632
570.309	3654
572.78	3654
575.251	2598
577.72	1464
580.189	858
582.656	638
585.123	578
587.589	554
590.055	510
592.52	478
594.983	440
597.446	382
599.908	338
602.369	274
604.829	214
607.289	176
609.747	188
612.205	148
614.663	164
617.119	174
619.574	174
622.029	174
624.483	186
626.936	220
629.389	222
631.84	242
634.291	268
636.741	262
639.19	256
641.639	226
644.086	224
646.533	184
648.979	170
651.424	162
653.869	158
656.313	140
658.754	136
661.196	134
663.638	120
666.078	114
668.518	118
670.957	110
673.394	110
675.831	120
678.268	122
680.703	104
683.137	116
685.571	114
688.005	128
690.437	116
692.868	104
695.299	114
697.729	108
700.159	110
702.586	124
705.014	124
707.441	140
709.866	154
712.292	172
714.716	178
717.14	174
719.563	180
721.984	166
724.406	154
726.825	152
729.246	138
731.665	150
734.082	158
736.5	160
738.916	174
741.332	182
743.746	210
746.161	274
748.574	278
750.987	262
753.398	234
755.81	224
758.219	190
760.629	166
763.037	138
765.445	136
767.852	132
770.258	136
772.664	142
775.068	154
777.472	162
779.876	148
782.278	164
784.679	154
787.08	136
789.48	144
791.879	144
794.278	138
796.675	132
799.072	136
801.467	132
803.864	144
806.258	154
808.651	154
811.044	152
813.437	154
815.828	170
818.218	166
820.608	192
822.997	220
825.385	280
827.773	420
830.16	730
832.546	1076
834.931	1028
837.315	612
839.699	330
842.081	228
844.463	210
846.844	218
849.226	206
851.606	192
853.985	196
856.363	186
858.741	178
861.117	164
863.493	168
865.868	156
868.243	140
870.616	138
872.989	132
875.36	130
877.731	130
880.102	138
882.472	122
884.841	126
887.209	128
889.577	124
891.944	124
894.31	118
896.674	124
899.039	116
901.403	116
903.766	126
906.128	134
908.49	120
910.849	120
913.209	126
915.569	118
917.927	124
920.284	126
922.641	120
924.997	126
927.353	126
929.707	136
932.061	148
934.414	136
936.765	152
939.117	176
941.469	162
943.818	196
946.167	224
948.515	282
950.863	360
953.211	460
955.556	632
957.902	786
960.246	880
962.59	840
964.933	680
967.276	588
969.617	484
971.958	402
974.298	306
976.638	230
978.976	212
981.314	180
983.651	168
985.988	172
988.323	160
990.659	168
992.992	176
995.325	168
997.658	152
999.99	142
1002.32	144
1004.65	150
1006.98	142
1009.31	146
1011.64	148
1013.97	144
1016.29	162
1018.62	168
1020.94	168
1023.27	198
1025.59	188
1027.91	200
1030.24	220
1032.56	230
1034.88	220
1037.2	214
1039.52	214
1041.84	196
1044.15	204
1046.47	186
1048.79	146
1051.1	148
1053.42	148
1055.73	154
1058.04	150
1060.36	148
1062.67	150
1064.98	144
1067.29	142
1069.6	142
1071.91	142
1074.22	146
1076.52	144
1078.83	150
1081.14	144
1083.44	138
1085.75	142
1088.05	146
1090.35	162
1092.65	150
1094.95	156
1097.26	158
1099.56	154
1101.86	186
1104.15	224
1106.45	314
1108.75	494
1111.05	750
1113.34	846
1115.64	676
1117.93	456
1120.22	312
1122.52	270
1124.81	224
1127.1	208
1129.39	202
1131.68	202
1133.97	186
1136.26	192
1138.54	188
1140.83	186
1143.12	182
1145.4	188
1147.69	158
1149.97	172
1152.25	156
1154.54	168
1156.82	186
1159.1	210
1161.38	218
1163.66	222
1165.94	216
1168.22	196
1170.49	186
1172.77	196
1175.05	214
1177.32	242
1179.6	304
1181.87	384
1184.14	496
1186.42	554
1188.69	562
1190.96	452
1193.23	362
1195.5	372
1197.77	366
1200.03	390
1202.3	412
1204.57	408
1206.83	336
1209.1	306
1211.36	234
1213.63	206
1215.89	198
1218.15	190
1220.41	178
1222.67	192
1224.93	234
1227.19	254
1229.45	280
1231.71	290
1233.97	266
1236.22	216
1238.48	184
1240.73	178
1242.99	174
1245.24	164
1247.5	168
1249.75	160
1252	172
1254.25	168
1256.5	178
1258.75	172
1261	164
1263.25	184
1265.49	178
1267.74	196
1269.99	194
1272.23	218
1274.48	198
1276.72	220
1278.96	224
1281.21	268
1283.45	298
1285.69	332
1287.93	342
1290.17	390
1292.41	446
1294.64	530
1296.88	706
1299.12	1014
1301.36	1510
1303.59	1938
1305.82	2132
1308.06	1748
1310.29	1294
1312.52	852
1314.76	688
1316.99	574
1319.22	462
1321.45	450
1323.68	408
1325.9	402
1328.13	400
1330.36	380
1332.58	342
1334.81	280
1337.04	308
1339.26	288
1341.48	274
1343.71	274
1345.93	296
1348.15	344
1350.37	318
1352.59	324
1354.81	284
1357.03	282
1359.24	236
1361.46	260
1363.68	232
1365.89	256
1368.11	276
1370.32	326
1372.54	490
1374.75	706
1376.96	932
1379.17	982
1381.38	978
1383.59	852
1385.8	668
1388.01	452
1390.22	348
1392.43	268
1394.63	230
1396.84	206
1399.05	216
1401.25	204
1403.45	208
1405.66	218
1407.86	210
1410.06	222
1412.26	230
1414.46	238
1416.66	264
1418.86	278
1421.06	310
1423.26	338
1425.46	342
1427.65	340
1429.85	352
1432.04	380
1434.24	420
1436.43	436
1438.62	456
1440.82	422
1443.01	428
1445.2	412
1447.39	382
1449.58	348
1451.77	336
1453.95	336
1456.14	310
1458.33	324
1460.52	322
1462.7	314
1464.89	304
1467.07	300
1469.25	296
1471.44	310
1473.62	310
1475.8	308
1477.98	276
1480.16	270
1482.34	276
1484.52	252
1486.7	254
1488.87	238
1491.05	232
1493.23	220
1495.4	214
1497.58	222
1499.75	224
1501.92	226
1504.1	214
1506.27	230
1508.44	214
1510.61	212
1512.78	202
1514.95	202
1517.12	210
1519.28	222
1521.45	204
1523.62	214
1525.78	206
1527.95	200
1530.11	202
1532.28	208
1534.44	198
1536.6	200
1538.76	204
1540.93	216
1543.09	222
1545.25	212
1547.41	218
1549.56	216
1551.72	208
1553.88	210
1556.03	218
1558.19	244
1560.35	232
1562.5	234
1564.65	244
1566.81	262
1568.96	252
1571.11	276
1573.26	278
1575.41	296
1577.56	312
1579.71	350
1581.86	402
1584.01	450
1586.15	518
1588.3	586
1590.45	710
1592.59	834
1594.74	950
1596.88	1144
1599.02	1296
1601.17	1400
1603.31	1444
1605.45	1308
1607.59	1196
1609.73	1042
1611.87	930
1614.01	790
1616.14	672
1618.28	548
1620.42	460
1622.55	402
1624.69	342
1626.82	316
1628.96	272
1631.09	260
1633.22	244
1635.36	220
1637.49	216
1639.62	200
1641.75	192
1643.88	196
1646	166
1648.13	200
1650.26	186
1652.39	178
1654.51	186
1656.64	182
1658.76	184
1660.89	174
1663.01	176
1665.13	164
1667.26	158
1669.38	184
1671.5	164
1673.62	164
1675.74	164
1677.86	174
1679.97	168
1682.09	160
1684.21	170
1686.33	184
1688.44	184
1690.56	194
1692.67	190
1694.78	188
1696.9	194
1699.01	174
1701.12	192
1703.23	174
1705.34	186
1707.45	176
1709.56	184
1711.67	180
1713.78	174
1715.88	176
1717.99	164
1720.1	172
1722.2	154
1724.31	162
1726.41	160
1728.51	156
1730.62	170
1732.72	160
1734.82	158
1736.92	152
1739.02	158
1741.12	164
1743.22	152
1745.32	158
1747.42	152
1749.51	152
1751.61	150
1753.7	146
1755.8	158
1757.89	160
1759.99	158
1762.08	154
1764.17	146
1766.26	152
1768.36	156
1770.45	158
1772.54	146
1774.62	158
1776.71	156
1778.8	150
1780.89	152
1782.98	152
1785.06	152
1787.15	154
1789.23	154
1791.32	164
1793.4	152
1795.48	156
1797.56	158
1799.65	144
1801.73	154
1803.81	146
1805.89	152
1807.97	158
1810.04	156
1812.12	156
1814.2	160
1816.28	146
1818.35	152
1820.43	156
1822.5	142
1824.58	148
1826.65	148
1828.72	158
1830.79	148
1832.86	138
1834.94	146
1837.01	146
1839.08	154
1841.15	152
1843.21	156
1845.28	136
1847.35	146
1849.41	144
1851.48	156
1853.55	158
1855.61	154
1857.67	150
1859.74	152
1861.8	154
1863.86	154
1865.92	136
1867.98	156
1870.05	150
1872.1	156
1874.16	162
1876.22	154
1878.28	160
1880.34	150
1882.39	154
1884.45	164
1886.5	154
1888.56	160
1890.61	160
1892.67	156
1894.72	150
1896.77	146
1898.82	154
1900.87	148
1902.92	158
1904.97	156
1907.02	140
1909.07	142
1911.12	158
1913.17	154
1915.21	152
1917.26	146
1919.3	154
1921.35	160
1923.39	152
1925.43	164
1927.48	144
1929.52	162
1931.56	152
1933.6	156
1935.64	152
1937.68	150
1939.72	148
1941.76	148
1943.8	154
1945.83	158
1947.87	146
1949.91	166
1951.94	154
1953.98	148
1956.01	156
1958.05	148
1960.08	152
1962.11	158
1964.14	160
1966.17	162
1968.2	150
1970.23	156
1972.26	148
1974.29	150
1976.32	158
1978.35	164
1980.37	156
1982.4	154
1984.43	154
1986.45	162
1988.48	158
1990.5	154
1992.52	152
1994.55	152
1996.57	150
1998.59	148
2000.61	170
2002.63	152
2004.65	158
2006.67	150
2008.69	160
2010.7	158
2012.72	150
2014.74	154
2016.75	162
2018.77	150
2020.78	156
2022.8	164
2024.81	164
2026.83	166
2028.84	168
2030.85	162
2032.86	160
2034.87	154
2036.88	154
2038.89	158
2040.9	156
2042.91	156
2044.91	152
2046.92	156
2048.93	138
2050.93	154
2052.94	152
2054.94	162
2056.95	160
2058.95	150
2060.95	154
2062.95	158
2064.96	154
2066.96	150
2068.96	156
2070.96	162
2072.96	156
2074.95	166
2076.95	158
2078.95	164
2080.95	164
2082.94	158
2084.94	158
2086.93	150
2088.93	142
2090.92	154
2092.91	158
2094.91	160
2096.9	164
2098.89	158
2100.88	156
2102.87	154
2104.86	166
2106.85	156
2108.84	158
2110.83	150
2112.81	168
2114.8	156
2116.78	166
2118.77	156
2120.75	168
2122.74	162
2124.72	160
2126.71	162
2128.69	154
2130.67	160
2132.65	152
2134.63	158
2136.61	156
2138.59	154
2140.57	152
2142.55	154
2144.53	164
2146.5	150
2148.48	156
2150.46	160
2152.43	158
2154.41	160
2156.38	160
2158.35	166
2160.33	162
2162.3	156
2164.27	146
2166.24	146
2168.21	168
2170.18	168
2172.15	156
2174.12	162
2176.09	162
2178.06	156
2180.03	158
2181.99	158
2183.96	158
2185.92	158
2187.89	154
2189.85	150
2191.82	146
2193.78	152
2195.74	166
2197.7	162
2199.67	158
2201.63	152
2203.59	156
2205.55	160
2207.51	158
2209.46	166
2211.42	162
2213.38	170
2215.34	146
2217.29	158
2219.25	158
2221.2	152
2223.16	160
2225.11	164
2227.06	154
2229.02	160
2230.97	170
2232.92	162
2234.87	148
2236.82	166
2238.77	162
2240.72	164
2242.67	158
2244.62	148
2246.57	156
2248.51	148
2250.46	160
2252.4	158
2254.35	160
2256.29	172
2258.24	168
2260.18	162
2262.13	168
2264.07	158
2266.01	166
2267.95	166
2269.89	160
2271.83	168
2273.77	158
2275.71	162
2277.65	176
2279.58	164
2281.52	164
2283.46	168
2285.4	170
2287.33	172
2289.27	162
2291.2	166
2293.13	168
2295.07	162
2297	172
2298.93	162
2300.86	172
2302.79	162
2304.72	176
2306.65	166
2308.58	168
2310.51	170
2312.44	166
2314.37	182
2316.29	170
2318.22	170
2320.15	172
2322.07	180
2324	164
2325.92	176
2327.84	182
2329.77	174
2331.69	176
2333.61	164
2335.53	164
2337.45	168
2339.37	168
2341.29	174
2343.21	178
2345.13	160
2347.05	158
2348.97	158
2350.88	172
2352.8	172
2354.71	180
2356.63	170
2358.54	172
2360.46	166
2362.37	170
2364.28	172
2366.2	168
2368.11	166
2370.02	174
2371.93	180
2373.84	174
2375.75	168
2377.66	170
2379.57	180
2381.47	166
2383.38	178
2385.29	166
2387.2	160
2389.1	180
2391.01	176
2392.91	176
2394.81	164
2396.72	170
2398.62	180
2400.52	168
2402.42	182
2404.33	180
2406.23	176
2408.13	178
2410.03	162
2411.92	164
2413.82	182
2415.72	176
2417.62	162
2419.51	164
2421.41	168
2423.31	166
2425.2	170
2427.1	174
2428.99	178
2430.88	158
2432.78	168
2434.67	160
2436.56	176
2438.45	164
2440.34	172
2442.23	174
2444.12	174
2446.01	176
2447.9	164
2449.79	170