File: Mixture_Classification/Jesse_Dataset_v2/Pure Raman/Polypropylene oxide/633nm/ps-ppo-7jan25-0,0000-map2_Y02_X09.txt
182.393	758
184.993	690
187.593	670
190.193	654
192.79	622
195.387	614
197.983	550
200.578	552
203.174	520
205.766	506
208.36	512
210.951	480
213.542	454
216.131	470
218.721	486
221.309	554
223.897	626
226.483	740
229.069	1012
231.654	1214
234.238	1302
236.821	1316
239.404	1214
241.984	1002
244.566	908
247.145	754
249.723	642
252.302	560
254.878	480
257.455	418
260.03	370
262.604	354
265.178	332
267.75	298
270.322	292
272.893	284
275.463	306
278.032	312
280.601	302
283.168	338
285.734	390
288.301	480
290.866	564
293.429	618
295.992	632
298.556	632
301.117	578
303.677	516
306.236	462
308.795	440
311.354	412
313.911	418
316.467	410
319.022	386
321.577	370
324.13	392
326.684	388
329.236	410
331.787	400
334.337	420
336.887	420
339.435	380
341.983	360
344.529	352
347.075	350
349.621	366
352.165	354
354.708	392
357.251	368
359.793	344
362.334	352
364.874	336
367.413	332
369.951	336
372.489	356
375.026	354
377.562	320
380.097	296
382.631	266
385.164	268
387.697	254
390.229	240
392.76	242
395.29	256
397.819	258
400.346	250
402.873	246
405.4	256
407.926	306
410.451	314
412.976	372
415.499	376
418.02	368
420.542	318
423.063	286
425.583	264
428.101	250
430.619	222
433.137	228
435.654	228
438.169	198
440.684	168
443.198	178
445.712	190
448.223	180
450.735	186
453.246	188
455.755	192
458.264	178
460.771	198
463.279	204
465.786	218
468.291	242
470.796	284
473.301	304
475.803	388
478.306	408
480.807	482
483.308	526
485.807	494
488.307	472
490.804	372
493.302	304
495.798	272
498.294	246
500.788	244
503.283	226
505.775	250
508.269	276
510.759	338
513.251	424
515.74	382
518.23	306
520.718	300
523.204	322
525.692	362
528.177	394
530.663	514
533.147	608
535.629	736
538.113	790
540.594	770
543.074	762
545.555	580
548.034	474
550.512	396
552.989	396
555.467	430
557.942	526
560.417	708
562.892	986
565.365	1680
567.838	2780
570.309	3814
572.78	3774
575.251	2622
577.72	1546
580.189	968
582.656	724
585.123	668
587.589	624
590.055	542
592.52	546
594.983	480
597.446	454
599.908	430
602.369	310
604.829	288
607.289	262
609.747	232
612.205	222
614.663	210
617.119	222
619.574	240
622.029	246
624.483	258
626.936	274
629.389	296
631.84	318
634.291	318
636.741	314
639.19	318
641.639	314
644.086	286
646.533	250
648.979	232
651.424	240
653.869	214
656.313	220
658.754	200
661.196	200
663.638	182
666.078	174
668.518	178
670.957	180
673.394	188
675.831	162
678.268	160
680.703	180
683.137	182
685.571	186
688.005	188
690.437	180
692.868	178
695.299	178
697.729	174
700.159	186
702.586	184
705.014	196
707.441	232
709.866	218
712.292	228
714.716	242
717.14	252
719.563	244
721.984	226
724.406	220
726.825	218
729.246	212
731.665	216
734.082	212
736.5	220
738.916	262
741.332	242
743.746	282
746.161	340
748.574	314
750.987	312
753.398	310
755.81	296
758.219	274
760.629	232
763.037	206
765.445	210
767.852	192
770.258	212
772.664	204
775.068	228
777.472	206
779.876	236
782.278	230
784.679	222
787.08	220
789.48	202
791.879	202
794.278	196
796.675	204
799.072	192
801.467	214
803.864	188
806.258	210
808.651	224
811.044	218
813.437	220
815.828	226
818.218	230
820.608	238
822.997	272
825.385	362
827.773	522
830.16	804
832.546	1222
834.931	1166
837.315	674
839.699	422
842.081	328
844.463	288
846.844	284
849.226	284
851.606	264
853.985	250
856.363	242
858.741	268
861.117	246
863.493	230
865.868	238
868.243	210
870.616	206
872.989	192
875.36	200
877.731	194
880.102	188
882.472	190
884.841	198
887.209	198
889.577	186
891.944	200
894.31	190
896.674	196
899.039	190
901.403	170
903.766	204
906.128	184
908.49	200
910.849	196
913.209	186
915.569	180
917.927	194
920.284	194
922.641	198
924.997	206
927.353	208
929.707	200
932.061	214
934.414	202
936.765	218
939.117	224
941.469	246
943.818	252
946.167	310
948.515	322
950.863	438
953.211	556
955.556	726
957.902	870
960.246	932
962.59	882
964.933	802
967.276	636
969.617	578
971.958	436
974.298	386
976.638	296
978.976	286
981.314	254
983.651	236
985.988	236
988.323	220
990.659	244
992.992	238
995.325	252
997.658	210
999.99	228
1002.32	220
1004.65	208
1006.98	222
1009.31	214
1011.64	216
1013.97	212
1016.29	224
1018.62	228
1020.94	246
1023.27	248
1025.59	250
1027.91	278
1030.24	290
1032.56	286
1034.88	302
1037.2	290
1039.52	282
1041.84	254
1044.15	252
1046.47	246
1048.79	212
1051.1	212
1053.42	226
1055.73	200
1058.04	194
1060.36	204
1062.67	218
1064.98	216
1067.29	228
1069.6	214
1071.91	208
1074.22	208
1076.52	210
1078.83	210
1081.14	194
1083.44	204
1085.75	232
1088.05	230
1090.35	214
1092.65	210
1094.95	206
1097.26	226
1099.56	240
1101.86	254
1104.15	324
1106.45	384
1108.75	550
1111.05	892
1113.34	924
1115.64	742
1117.93	528
1120.22	370
1122.52	334
1124.81	300
1127.1	284
1129.39	280
1131.68	280
1133.97	262
1136.26	268
1138.54	268
1140.83	266
1143.12	240
1145.4	252
1147.69	240
1149.97	204
1152.25	234
1154.54	252
1156.82	260
1159.1	276
1161.38	292
1163.66	274
1165.94	266
1168.22	264
1170.49	254
1172.77	280
1175.05	284
1177.32	326
1179.6	390
1181.87	458
1184.14	572
1186.42	652
1188.69	626
1190.96	524
1193.23	466
1195.5	446
1197.77	450
1200.03	468
1202.3	502
1204.57	486
1206.83	426
1209.1	366
1211.36	320
1213.63	260
1215.89	264
1218.15	240
1220.41	268
1222.67	270
1224.93	292
1227.19	330
1229.45	378
1231.71	366
1233.97	328
1236.22	280
1238.48	248
1240.73	230
1242.99	246
1245.24	220
1247.5	240
1249.75	246
1252	244
1254.25	242
1256.5	240
1258.75	242
1261	242
1263.25	252
1265.49	256
1267.74	270
1269.99	248
1272.23	276
1274.48	270
1276.72	286
1278.96	298
1281.21	356
1283.45	384
1285.69	398
1287.93	428
1290.17	472
1292.41	516
1294.64	640
1296.88	822
1299.12	1146
1301.36	1664
1303.59	2078
1305.82	2270
1308.06	1846
1310.29	1370
1312.52	958
1314.76	756
1316.99	654
1319.22	590
1321.45	498
1323.68	490
1325.9	496
1328.13	458
1330.36	450
1332.58	428
1334.81	376
1337.04	336
1339.26	350
1341.48	344
1343.71	374
1345.93	394
1348.15	398
1350.37	418
1352.59	412
1354.81	396
1357.03	356
1359.24	326
1361.46	326
1363.68	328
1365.89	342
1368.11	338
1370.32	420
1372.54	578
1374.75	790
1376.96	998
1379.17	1108
1381.38	1050
1383.59	944
1385.8	712
1388.01	532
1390.22	424
1392.43	340
1394.63	304
1396.84	308
1399.05	286
1401.25	270
1403.45	268
1405.66	274
1407.86	312
1410.06	282
1412.26	296
1414.46	302
1416.66	328
1418.86	376
1421.06	394
1423.26	406
1425.46	426
1427.65	442
1429.85	460
1432.04	446
1434.24	484
1436.43	506
1438.62	528
1440.82	492
1443.01	504
1445.2	476
1447.39	456
1449.58	460
1451.77	414
1453.95	398
1456.14	384
1458.33	402
1460.52	414
1462.7	384
1464.89	368
1467.07	378
1469.25	382
1471.44	368
1473.62	368
1475.8	366
1477.98	396
1480.16	376
1482.34	340
1484.52	336
1486.7	310
1488.87	328
1491.05	302
1493.23	296
1495.4	308
1497.58	300
1499.75	302
1501.92	282
1504.1	282
1506.27	306
1508.44	282
1510.61	314
1512.78	268
1514.95	282
1517.12	288
1519.28	268
1521.45	278
1523.62	258
1525.78	306
1527.95	274
1530.11	284
1532.28	270
1534.44	298
1536.6	284
1538.76	288
1540.93	276
1543.09	284
1545.25	264
1547.41	294
1549.56	304
1551.72	300
1553.88	302
1556.03	298
1558.19	316
1560.35	294
1562.5	310
1564.65	308
1566.81	312
1568.96	332
1571.11	346
1573.26	376
1575.41	364
1577.56	412
1579.71	440
1581.86	462
1584.01	544
1586.15	616
1588.3	692
1590.45	774
1592.59	924
1594.74	1092
1596.88	1246
1599.02	1408
1601.17	1504
1603.31	1518
1605.45	1434
1607.59	1384
1609.73	1172
1611.87	994
1614.01	888
1616.14	744
1618.28	650
1620.42	552
1622.55	460
1624.69	426
1626.82	376
1628.96	338
1631.09	326
1633.22	314
1635.36	284
1637.49	298
1639.62	260
1641.75	280
1643.88	262
1646	264
1648.13	252
1650.26	234
1652.39	268
1654.51	248
1656.64	252
1658.76	236
1660.89	266
1663.01	260
1665.13	250
1667.26	248
1669.38	244
1671.5	216
1673.62	230
1675.74	234
1677.86	240
1679.97	244
1682.09	244
1684.21	250
1686.33	252
1688.44	250
1690.56	258
1692.67	264
1694.78	280
1696.9	274
1699.01	248
1701.12	252
1703.23	260
1705.34	282
1707.45	252
1709.56	254
1711.67	262
1713.78	242
1715.88	250
1717.99	224
1720.1	226
1722.2	248
1724.31	232
1726.41	240
1728.51	224
1730.62	228
1732.72	234
1734.82	236
1736.92	226
1739.02	214
1741.12	246
1743.22	226
1745.32	218
1747.42	206
1749.51	224
1751.61	230
1753.7	208
1755.8	210
1757.89	240
1759.99	202
1762.08	218
1764.17	232
1766.26	216
1768.36	212
1770.45	224
1772.54	222
1774.62	212
1776.71	212
1778.8	222
1780.89	212
1782.98	234
1785.06	212
1787.15	202
1789.23	198
1791.32	236
1793.4	236
1795.48	238
1797.56	222
1799.65	226
1801.73	228
1803.81	218
1805.89	232
1807.97	224
1810.04	214
1812.12	220
1814.2	220
1816.28	220
1818.35	220
1820.43	216
1822.5	226
1824.58	224
1826.65	220
1828.72	214
1830.79	236
1832.86	248
1834.94	232
1837.01	202
1839.08	224
1841.15	220
1843.21	220
1845.28	212
1847.35	230
1849.41	206
1851.48	216
1853.55	224
1855.61	228
1857.67	222
1859.74	206
1861.8	218
1863.86	216
1865.92	228
1867.98	210
1870.05	244
1872.1	206
1874.16	226
1876.22	222
1878.28	224
1880.34	232
1882.39	234
1884.45	212
1886.5	222
1888.56	228
1890.61	228
1892.67	228
1894.72	218
1896.77	224
1898.82	212
1900.87	220
1902.92	220
1904.97	222
1907.02	226
1909.07	212
1911.12	224
1913.17	232
1915.21	232
1917.26	216
1919.3	232
1921.35	224
1923.39	224
1925.43	242
1927.48	218
1929.52	216
1931.56	212
1933.6	206
1935.64	222
1937.68	212
1939.72	208
1941.76	232
1943.8	220
1945.83	212
1947.87	206
1949.91	216
1951.94	230
1953.98	210
1956.01	212
1958.05	210
1960.08	224
1962.11	212
1964.14	212
1966.17	234
1968.2	234
1970.23	226
1972.26	192
1974.29	210
1976.32	216
1978.35	202
1980.37	224
1982.4	224
1984.43	228
1986.45	228
1988.48	230
1990.5	214
1992.52	220
1994.55	206
1996.57	218
1998.59	238
2000.61	212
2002.63	214
2004.65	218
2006.67	218
2008.69	226
2010.7	236
2012.72	228
2014.74	218
2016.75	220
2018.77	228
2020.78	224
2022.8	212
2024.81	226
2026.83	210
2028.84	216
2030.85	220
2032.86	202
2034.87	236
2036.88	232
2038.89	214
2040.9	216
2042.91	204
2044.91	216
2046.92	220
2048.93	220
2050.93	218
2052.94	208
2054.94	230
2056.95	228
2058.95	228
2060.95	214
2062.95	226
2064.96	218
2066.96	232
2068.96	236
2070.96	214
2072.96	210
2074.95	210
2076.95	224
2078.95	226
2080.95	230
2082.94	214
2084.94	220
2086.93	228
2088.93	218
2090.92	220
2092.91	214
2094.91	228
2096.9	216
2098.89	230
2100.88	216
2102.87	234
2104.86	220
2106.85	210
2108.84	218
2110.83	216
2112.81	200
2114.8	200
2116.78	210
2118.77	226
2120.75	204
2122.74	210
2124.72	232
2126.71	220
2128.69	226
2130.67	216
2132.65	210
2134.63	218
2136.61	214
2138.59	218
2140.57	216
2142.55	204
2144.53	224
2146.5	224
2148.48	232
2150.46	240
2152.43	228
2154.41	226
2156.38	228
2158.35	198
2160.33	222
2162.3	224
2164.27	228
2166.24	218
2168.21	216
2170.18	228
2172.15	228
2174.12	222
2176.09	224
2178.06	216
2180.03	218
2181.99	214
2183.96	216
2185.92	214
2187.89	218
2189.85	212
2191.82	220
2193.78	208
2195.74	220
2197.7	228
2199.67	206
2201.63	218
2203.59	208
2205.55	226
2207.51	218
2209.46	198
2211.42	214
2213.38	206
2215.34	200
2217.29	210
2219.25	216
2221.2	218
2223.16	224
2225.11	230
2227.06	214
2229.02	230
2230.97	208
2232.92	234
2234.87	216
2236.82	218
2238.77	230
2240.72	222
2242.67	220
2244.62	218
2246.57	220
2248.51	230
2250.46	214
2252.4	216
2254.35	216
2256.29	224
2258.24	232
2260.18	224
2262.13	218
2264.07	214
2266.01	216
2267.95	212
2269.89	216
2271.83	208
2273.77	216
2275.71	212
2277.65	224
2279.58	218
2281.52	208
2283.46	224
2285.4	212
2287.33	216
2289.27	226
2291.2	218
2293.13	228
2295.07	222
2297	222
2298.93	212
2300.86	216
2302.79	218
2304.72	222
2306.65	226
2308.58	224
2310.51	214
2312.44	222
2314.37	244
2316.29	228
2318.22	228
2320.15	232
2322.07	234
2324	238
2325.92	228
2327.84	232
2329.77	220
2331.69	218
2333.61	224
2335.53	220
2337.45	238
2339.37	222
2341.29	224
2343.21	230
2345.13	246
2347.05	228
2348.97	206
2350.88	224
2352.8	222
2354.71	222
2356.63	220
2358.54	224
2360.46	206
2362.37	220
2364.28	230
2366.2	214
2368.11	192
2370.02	208
2371.93	224
2373.84	212
2375.75	226
2377.66	220
2379.57	224
2381.47	216
2383.38	212
2385.29	238
2387.2	230
2389.1	218
2391.01	234
2392.91	226
2394.81	220
2396.72	240
2398.62	218
2400.52	236
2402.42	248
2404.33	246
2406.23	228
2408.13	212
2410.03	218
2411.92	226
2413.82	236
2415.72	226
2417.62	234
2419.51	228
2421.41	210
2423.31	202
2425.2	228
2427.1	224
2428.99	216
2430.88	208
2432.78	222
2434.67	212
2436.56	218
2438.45	226
2440.34	226
2442.23	204
2444.12	218
2446.01	206
2447.9	230
2449.79	212