File: Mixture_Classification/Jesse_Dataset_v2/Pure Raman/Polypropylene oxide/633nm/ps-ppo-7jan25-0,0000-map2_Y02_X07.txt
182.393	690
184.993	680
187.593	646
190.193	602
192.79	612
195.387	590
197.983	550
200.578	534
203.174	534
205.766	512
208.36	486
210.951	480
213.542	458
216.131	460
218.721	462
221.309	524
223.897	596
226.483	780
229.069	972
231.654	1210
234.238	1296
236.821	1260
239.404	1158
241.984	1022
244.566	886
247.145	750
249.723	662
252.302	542
254.878	496
257.455	392
260.03	372
262.604	330
265.178	322
267.75	308
270.322	286
272.893	296
275.463	280
278.032	284
280.601	298
283.168	326
285.734	372
288.301	472
290.866	552
293.429	618
295.992	636
298.556	604
301.117	550
303.677	484
306.236	472
308.795	424
311.354	402
313.911	384
316.467	374
319.022	392
321.577	372
324.13	362
326.684	370
329.236	402
331.787	402
334.337	424
336.887	408
339.435	378
341.983	372
344.529	344
347.075	344
349.621	346
352.165	374
354.708	366
357.251	370
359.793	344
362.334	346
364.874	324
367.413	326
369.951	324
372.489	336
375.026	328
377.562	306
380.097	286
382.631	286
385.164	272
387.697	240
390.229	236
392.76	248
395.29	234
397.819	222
400.346	256
402.873	264
405.4	258
407.926	294
410.451	330
412.976	372
415.499	384
418.02	370
420.542	316
423.063	288
425.583	252
428.101	234
430.619	220
433.137	204
435.654	194
438.169	202
440.684	184
443.198	182
445.712	186
448.223	180
450.735	186
453.246	182
455.755	170
458.264	174
460.771	188
463.279	214
465.786	206
468.291	228
470.796	252
473.301	306
475.803	378
478.306	412
480.807	454
483.308	482
485.807	512
488.307	438
490.804	376
493.302	302
495.798	266
498.294	240
500.788	232
503.283	216
505.775	240
508.269	250
510.759	340
513.251	402
515.74	400
518.23	328
520.718	314
523.204	308
525.692	342
528.177	378
530.663	480
533.147	604
535.629	736
538.113	772
540.594	780
543.074	680
545.555	590
548.034	462
550.512	396
552.989	370
555.467	450
557.942	506
560.417	680
562.892	1026
565.365	1720
567.838	2720
570.309	3742
572.78	3774
575.251	2676
577.72	1606
580.189	946
582.656	706
585.123	650
587.589	628
590.055	572
592.52	524
594.983	492
597.446	442
599.908	374
602.369	314
604.829	270
607.289	254
609.747	236
612.205	228
614.663	234
617.119	216
619.574	230
622.029	244
624.483	278
626.936	274
629.389	276
631.84	304
634.291	334
636.741	316
639.19	300
641.639	286
644.086	274
646.533	256
648.979	248
651.424	222
653.869	240
656.313	200
658.754	204
661.196	190
663.638	184
666.078	180
668.518	182
670.957	174
673.394	166
675.831	162
678.268	198
680.703	174
683.137	172
685.571	164
688.005	178
690.437	180
692.868	186
695.299	176
697.729	170
700.159	162
702.586	174
705.014	190
707.441	192
709.866	224
712.292	238
714.716	252
717.14	228
719.563	234
721.984	210
724.406	218
726.825	198
729.246	218
731.665	220
734.082	216
736.5	224
738.916	230
741.332	238
743.746	278
746.161	360
748.574	326
750.987	306
753.398	300
755.81	288
758.219	262
760.629	234
763.037	212
765.445	198
767.852	210
770.258	196
772.664	202
775.068	216
777.472	206
779.876	230
782.278	218
784.679	204
787.08	210
789.48	212
791.879	210
794.278	196
796.675	200
799.072	196
801.467	194
803.864	212
806.258	212
808.651	222
811.044	218
813.437	220
815.828	226
818.218	230
820.608	232
822.997	290
825.385	360
827.773	520
830.16	798
832.546	1206
834.931	1076
837.315	676
839.699	378
842.081	320
844.463	280
846.844	272
849.226	270
851.606	276
853.985	250
856.363	258
858.741	244
861.117	234
863.493	230
865.868	216
868.243	182
870.616	208
872.989	190
875.36	184
877.731	180
880.102	202
882.472	186
884.841	198
887.209	188
889.577	196
891.944	168
894.31	178
896.674	182
899.039	202
901.403	186
903.766	180
906.128	194
908.49	166
910.849	190
913.209	198
915.569	194
917.927	180
920.284	184
922.641	204
924.997	176
927.353	186
929.707	208
932.061	204
934.414	206
936.765	218
939.117	214
941.469	210
943.818	250
946.167	302
948.515	374
950.863	428
953.211	550
955.556	716
957.902	858
960.246	934
962.59	906
964.933	766
967.276	646
969.617	554
971.958	446
974.298	368
976.638	320
978.976	282
981.314	248
983.651	238
985.988	224
988.323	232
990.659	242
992.992	234
995.325	230
997.658	212
999.99	212
1002.32	204
1004.65	202
1006.98	208
1009.31	202
1011.64	212
1013.97	216
1016.29	202
1018.62	228
1020.94	242
1023.27	270
1025.59	268
1027.91	288
1030.24	284
1032.56	276
1034.88	312
1037.2	304
1039.52	266
1041.84	262
1044.15	242
1046.47	224
1048.79	228
1051.1	204
1053.42	210
1055.73	202
1058.04	220
1060.36	198
1062.67	198
1064.98	200
1067.29	204
1069.6	204
1071.91	200
1074.22	212
1076.52	206
1078.83	210
1081.14	204
1083.44	204
1085.75	204
1088.05	206
1090.35	212
1092.65	218
1094.95	206
1097.26	224
1099.56	234
1101.86	250
1104.15	278
1106.45	396
1108.75	592
1111.05	806
1113.34	942
1115.64	732
1117.93	502
1120.22	370
1122.52	344
1124.81	284
1127.1	280
1129.39	264
1131.68	252
1133.97	230
1136.26	228
1138.54	252
1140.83	278
1143.12	250
1145.4	240
1147.69	240
1149.97	246
1152.25	224
1154.54	228
1156.82	246
1159.1	270
1161.38	292
1163.66	296
1165.94	268
1168.22	260
1170.49	270
1172.77	254
1175.05	294
1177.32	306
1179.6	356
1181.87	454
1184.14	570
1186.42	622
1188.69	610
1190.96	518
1193.23	460
1195.5	444
1197.77	430
1200.03	448
1202.3	496
1204.57	456
1206.83	446
1209.1	376
1211.36	310
1213.63	272
1215.89	250
1218.15	246
1220.41	254
1222.67	270
1224.93	270
1227.19	332
1229.45	350
1231.71	338
1233.97	314
1236.22	280
1238.48	232
1240.73	226
1242.99	236
1245.24	238
1247.5	218
1249.75	236
1252	238
1254.25	226
1256.5	228
1258.75	236
1261	234
1263.25	256
1265.49	230
1267.74	268
1269.99	248
1272.23	260
1274.48	272
1276.72	286
1278.96	326
1281.21	328
1283.45	366
1285.69	382
1287.93	406
1290.17	432
1292.41	526
1294.64	610
1296.88	812
1299.12	1134
1301.36	1612
1303.59	2056
1305.82	2218
1308.06	1792
1310.29	1356
1312.52	956
1314.76	734
1316.99	650
1319.22	554
1321.45	498
1323.68	454
1325.9	484
1328.13	474
1330.36	452
1332.58	424
1334.81	368
1337.04	350
1339.26	348
1341.48	342
1343.71	364
1345.93	362
1348.15	382
1350.37	390
1352.59	358
1354.81	372
1357.03	366
1359.24	312
1361.46	320
1363.68	320
1365.89	340
1368.11	346
1370.32	410
1372.54	534
1374.75	786
1376.96	1024
1379.17	1056
1381.38	1048
1383.59	922
1385.8	712
1388.01	524
1390.22	402
1392.43	318
1394.63	302
1396.84	282
1399.05	292
1401.25	256
1403.45	276
1405.66	290
1407.86	274
1410.06	294
1412.26	288
1414.46	304
1416.66	316
1418.86	350
1421.06	382
1423.26	410
1425.46	416
1427.65	422
1429.85	432
1432.04	468
1434.24	466
1436.43	512
1438.62	526
1440.82	536
1443.01	510
1445.2	468
1447.39	456
1449.58	426
1451.77	398
1453.95	386
1456.14	420
1458.33	392
1460.52	374
1462.7	376
1464.89	352
1467.07	382
1469.25	372
1471.44	366
1473.62	388
1475.8	378
1477.98	354
1480.16	364
1482.34	354
1484.52	308
1486.7	296
1488.87	294
1491.05	292
1493.23	290
1495.4	288
1497.58	292
1499.75	272
1501.92	276
1504.1	290
1506.27	274
1508.44	296
1510.61	278
1512.78	282
1514.95	276
1517.12	264
1519.28	260
1521.45	284
1523.62	278
1525.78	254
1527.95	274
1530.11	280
1532.28	262
1534.44	276
1536.6	264
1538.76	276
1540.93	276
1543.09	290
1545.25	274
1547.41	296
1549.56	290
1551.72	280
1553.88	284
1556.03	294
1558.19	284
1560.35	290
1562.5	314
1564.65	296
1566.81	314
1568.96	302
1571.11	318
1573.26	366
1575.41	378
1577.56	420
1579.71	418
1581.86	438
1584.01	526
1586.15	576
1588.3	678
1590.45	772
1592.59	898
1594.74	1020
1596.88	1214
1599.02	1390
1601.17	1526
1603.31	1532
1605.45	1452
1607.59	1260
1609.73	1192
1611.87	1040
1614.01	858
1616.14	752
1618.28	650
1620.42	552
1622.55	480
1624.69	376
1626.82	370
1628.96	322
1631.09	316
1633.22	292
1635.36	290
1637.49	266
1639.62	282
1641.75	264
1643.88	240
1646	268
1648.13	276
1650.26	244
1652.39	242
1654.51	250
1656.64	244
1658.76	226
1660.89	228
1663.01	230
1665.13	242
1667.26	232
1669.38	216
1671.5	224
1673.62	214
1675.74	218
1677.86	220
1679.97	226
1682.09	232
1684.21	230
1686.33	242
1688.44	234
1690.56	228
1692.67	250
1694.78	270
1696.9	250
1699.01	246
1701.12	250
1703.23	252
1705.34	238
1707.45	244
1709.56	232
1711.67	264
1713.78	226
1715.88	236
1717.99	228
1720.1	214
1722.2	226
1724.31	228
1726.41	218
1728.51	224
1730.62	222
1732.72	218
1734.82	206
1736.92	206
1739.02	214
1741.12	226
1743.22	210
1745.32	222
1747.42	206
1749.51	222
1751.61	228
1753.7	220
1755.8	226
1757.89	208
1759.99	210
1762.08	218
1764.17	208
1766.26	216
1768.36	202
1770.45	202
1772.54	208
1774.62	222
1776.71	228
1778.8	210
1780.89	228
1782.98	212
1785.06	216
1787.15	218
1789.23	226
1791.32	214
1793.4	226
1795.48	200
1797.56	222
1799.65	206
1801.73	216
1803.81	228
1805.89	202
1807.97	220
1810.04	210
1812.12	214
1814.2	194
1816.28	214
1818.35	206
1820.43	212
1822.5	210
1824.58	218
1826.65	194
1828.72	198
1830.79	224
1832.86	220
1834.94	202
1837.01	210
1839.08	224
1841.15	194
1843.21	208
1845.28	194
1847.35	228
1849.41	202
1851.48	204
1853.55	226
1855.61	220
1857.67	218
1859.74	204
1861.8	218
1863.86	222
1865.92	206
1867.98	198
1870.05	186
1872.1	204
1874.16	210
1876.22	218
1878.28	222
1880.34	200
1882.39	222
1884.45	214
1886.5	208
1888.56	224
1890.61	218
1892.67	230
1894.72	220
1896.77	218
1898.82	214
1900.87	210
1902.92	198
1904.97	202
1907.02	208
1909.07	196
1911.12	208
1913.17	238
1915.21	212
1917.26	208
1919.3	214
1921.35	204
1923.39	220
1925.43	214
1927.48	210
1929.52	234
1931.56	216
1933.6	222
1935.64	208
1937.68	218
1939.72	200
1941.76	216
1943.8	218
1945.83	204
1947.87	206
1949.91	210
1951.94	208
1953.98	204
1956.01	212
1958.05	202
1960.08	222
1962.11	208
1964.14	198
1966.17	198
1968.2	212
1970.23	208
1972.26	216
1974.29	188
1976.32	224
1978.35	212
1980.37	202
1982.4	202
1984.43	214
1986.45	222
1988.48	210
1990.5	200
1992.52	208
1994.55	196
1996.57	200
1998.59	198
2000.61	228
2002.63	214
2004.65	192
2006.67	210
2008.69	216
2010.7	218
2012.72	230
2014.74	210
2016.75	218
2018.77	212
2020.78	202
2022.8	208
2024.81	210
2026.83	200
2028.84	210
2030.85	204
2032.86	216
2034.87	200
2036.88	210
2038.89	200
2040.9	214
2042.91	204
2044.91	214
2046.92	232
2048.93	218
2050.93	208
2052.94	218
2054.94	216
2056.95	200
2058.95	232
2060.95	198
2062.95	218
2064.96	216
2066.96	206
2068.96	198
2070.96	216
2072.96	220
2074.95	208
2076.95	214
2078.95	224
2080.95	208
2082.94	216
2084.94	204
2086.93	198
2088.93	210
2090.92	208
2092.91	220
2094.91	200
2096.9	206
2098.89	220
2100.88	214
2102.87	222
2104.86	230
2106.85	186
2108.84	208
2110.83	198
2112.81	212
2114.8	218
2116.78	206
2118.77	198
2120.75	214
2122.74	194
2124.72	202
2126.71	210
2128.69	206
2130.67	216
2132.65	204
2134.63	206
2136.61	216
2138.59	224
2140.57	194
2142.55	200
2144.53	208
2146.5	212
2148.48	220
2150.46	200
2152.43	218
2154.41	202
2156.38	224
2158.35	220
2160.33	210
2162.3	222
2164.27	198
2166.24	214
2168.21	198
2170.18	200
2172.15	220
2174.12	216
2176.09	212
2178.06	208
2180.03	218
2181.99	218
2183.96	208
2185.92	224
2187.89	218
2189.85	194
2191.82	218
2193.78	228
2195.74	206
2197.7	218
2199.67	214
2201.63	204
2203.59	202
2205.55	216
2207.51	210
2209.46	192
2211.42	202
2213.38	200
2215.34	210
2217.29	210
2219.25	206
2221.2	202
2223.16	210
2225.11	204
2227.06	208
2229.02	222
2230.97	216
2232.92	194
2234.87	190
2236.82	216
2238.77	204
2240.72	218
2242.67	194
2244.62	214
2246.57	208
2248.51	206
2250.46	210
2252.4	216
2254.35	206
2256.29	202
2258.24	204
2260.18	206
2262.13	226
2264.07	208
2266.01	218
2267.95	218
2269.89	208
2271.83	222
2273.77	198
2275.71	230
2277.65	222
2279.58	220
2281.52	212
2283.46	208
2285.4	208
2287.33	204
2289.27	214
2291.2	188
2293.13	208
2295.07	206
2297	210
2298.93	214
2300.86	216
2302.79	208
2304.72	210
2306.65	222
2308.58	234
2310.51	212
2312.44	214
2314.37	230
2316.29	222
2318.22	222
2320.15	224
2322.07	208
2324	238
2325.92	198
2327.84	210
2329.77	208
2331.69	220
2333.61	240
2335.53	218
2337.45	216
2339.37	210
2341.29	228
2343.21	210
2345.13	196
2347.05	220
2348.97	198
2350.88	222
2352.8	214
2354.71	206
2356.63	198
2358.54	210
2360.46	196
2362.37	224
2364.28	208
2366.2	216
2368.11	216
2370.02	218
2371.93	228
2373.84	230
2375.75	222
2377.66	232
2379.57	226
2381.47	222
2383.38	224
2385.29	222
2387.2	216
2389.1	212
2391.01	218
2392.91	208
2394.81	218
2396.72	234
2398.62	224
2400.52	222
2402.42	222
2404.33	228
2406.23	220
2408.13	224
2410.03	210
2411.92	214
2413.82	230
2415.72	216
2417.62	216
2419.51	230
2421.41	210
2423.31	208
2425.2	204
2427.1	206
2428.99	216
2430.88	216
2432.78	202
2434.67	218
2436.56	200
2438.45	210
2440.34	216
2442.23	214
2444.12	202
2446.01	214
2447.9	204
2449.79	212