File: Mixture_Classification/Jesse_Dataset_v2/Pure Raman/Polypropylene oxide/633nm/ps-ppo-7jan25-0,0000-map2_Y08_X06.txt
182.393	676
184.993	654
187.593	646
190.193	630
192.79	592
195.387	568
197.983	536
200.578	518
203.174	506
205.766	520
208.36	486
210.951	470
213.542	454
216.131	456
218.721	468
221.309	504
223.897	584
226.483	750
229.069	968
231.654	1152
234.238	1274
236.821	1224
239.404	1144
241.984	1014
244.566	870
247.145	770
249.723	666
252.302	538
254.878	472
257.455	426
260.03	354
262.604	328
265.178	318
267.75	320
270.322	294
272.893	280
275.463	302
278.032	306
280.601	298
283.168	344
285.734	378
288.301	468
290.866	502
293.429	628
295.992	628
298.556	608
301.117	544
303.677	534
306.236	446
308.795	438
311.354	422
313.911	380
316.467	362
319.022	354
321.577	366
324.13	360
326.684	368
329.236	386
331.787	418
334.337	398
336.887	408
339.435	396
341.983	358
344.529	348
347.075	352
349.621	354
352.165	364
354.708	370
357.251	376
359.793	366
362.334	344
364.874	332
367.413	328
369.951	344
372.489	332
375.026	346
377.562	332
380.097	296
382.631	268
385.164	278
387.697	246
390.229	296
392.76	244
395.29	238
397.819	242
400.346	244
402.873	242
405.4	276
407.926	274
410.451	316
412.976	354
415.499	380
418.02	338
420.542	304
423.063	260
425.583	262
428.101	240
430.619	212
433.137	202
435.654	206
438.169	200
440.684	184
443.198	186
445.712	188
448.223	180
450.735	186
453.246	168
455.755	186
458.264	182
460.771	214
463.279	202
465.786	216
468.291	238
470.796	266
473.301	322
475.803	368
478.306	376
480.807	440
483.308	486
485.807	490
488.307	442
490.804	364
493.302	304
495.798	262
498.294	232
500.788	220
503.283	218
505.775	236
508.269	264
510.759	308
513.251	380
515.74	410
518.23	324
520.718	286
523.204	308
525.692	328
528.177	390
530.663	480
533.147	578
535.629	728
538.113	770
540.594	766
543.074	688
545.555	578
548.034	452
550.512	428
552.989	380
555.467	402
557.942	516
560.417	678
562.892	996
565.365	1628
567.838	2526
570.309	3688
572.78	3612
575.251	2652
577.72	1598
580.189	916
582.656	694
585.123	644
587.589	592
590.055	554
592.52	534
594.983	504
597.446	420
599.908	390
602.369	306
604.829	280
607.289	250
609.747	226
612.205	208
614.663	228
617.119	216
619.574	214
622.029	246
624.483	254
626.936	260
629.389	298
631.84	306
634.291	296
636.741	344
639.19	314
641.639	276
644.086	280
646.533	252
648.979	228
651.424	218
653.869	218
656.313	216
658.754	192
661.196	200
663.638	172
666.078	190
668.518	182
670.957	182
673.394	176
675.831	166
678.268	178
680.703	166
683.137	178
685.571	180
688.005	162
690.437	176
692.868	160
695.299	158
697.729	168
700.159	170
702.586	180
705.014	196
707.441	210
709.866	228
712.292	232
714.716	244
717.14	256
719.563	224
721.984	224
724.406	214
726.825	204
729.246	204
731.665	218
734.082	218
736.5	232
738.916	216
741.332	228
743.746	264
746.161	296
748.574	340
750.987	310
753.398	286
755.81	272
758.219	248
760.629	218
763.037	212
765.445	184
767.852	196
770.258	186
772.664	200
775.068	212
777.472	230
779.876	230
782.278	206
784.679	214
787.08	204
789.48	208
791.879	204
794.278	202
796.675	190
799.072	204
801.467	188
803.864	180
806.258	204
808.651	222
811.044	204
813.437	212
815.828	218
818.218	210
820.608	242
822.997	274
825.385	328
827.773	488
830.16	758
832.546	1124
834.931	1074
837.315	670
839.699	398
842.081	328
844.463	280
846.844	260
849.226	274
851.606	256
853.985	254
856.363	252
858.741	230
861.117	240
863.493	234
865.868	218
868.243	178
870.616	196
872.989	192
875.36	194
877.731	186
880.102	202
882.472	194
884.841	190
887.209	192
889.577	170
891.944	176
894.31	186
896.674	178
899.039	208
901.403	170
903.766	180
906.128	178
908.49	178
910.849	188
913.209	186
915.569	172
917.927	184
920.284	180
922.641	190
924.997	186
927.353	188
929.707	190
932.061	180
934.414	204
936.765	212
939.117	210
941.469	242
943.818	248
946.167	304
948.515	334
950.863	422
953.211	514
955.556	682
957.902	848
960.246	924
962.59	858
964.933	758
967.276	626
969.617	560
971.958	432
974.298	382
976.638	288
978.976	270
981.314	252
983.651	220
985.988	224
988.323	206
990.659	226
992.992	216
995.325	198
997.658	206
999.99	212
1002.32	218
1004.65	204
1006.98	200
1009.31	190
1011.64	206
1013.97	224
1016.29	238
1018.62	238
1020.94	224
1023.27	272
1025.59	254
1027.91	260
1030.24	268
1032.56	290
1034.88	286
1037.2	298
1039.52	256
1041.84	268
1044.15	264
1046.47	222
1048.79	236
1051.1	220
1053.42	200
1055.73	204
1058.04	206
1060.36	222
1062.67	200
1064.98	204
1067.29	204
1069.6	206
1071.91	208
1074.22	204
1076.52	214
1078.83	208
1081.14	206
1083.44	214
1085.75	206
1088.05	218
1090.35	208
1092.65	210
1094.95	226
1097.26	218
1099.56	268
1101.86	258
1104.15	282
1106.45	364
1108.75	534
1111.05	816
1113.34	920
1115.64	748
1117.93	482
1120.22	382
1122.52	340
1124.81	300
1127.1	264
1129.39	252
1131.68	240
1133.97	240
1136.26	240
1138.54	282
1140.83	252
1143.12	260
1145.4	236
1147.69	236
1149.97	218
1152.25	204
1154.54	228
1156.82	232
1159.1	288
1161.38	288
1163.66	284
1165.94	282
1168.22	258
1170.49	262
1172.77	252
1175.05	278
1177.32	316
1179.6	346
1181.87	438
1184.14	528
1186.42	610
1188.69	598
1190.96	518
1193.23	476
1195.5	456
1197.77	420
1200.03	460
1202.3	470
1204.57	470
1206.83	428
1209.1	368
1211.36	312
1213.63	280
1215.89	252
1218.15	246
1220.41	250
1222.67	258
1224.93	288
1227.19	330
1229.45	350
1231.71	342
1233.97	326
1236.22	276
1238.48	248
1240.73	222
1242.99	226
1245.24	232
1247.5	236
1249.75	220
1252	234
1254.25	232
1256.5	218
1258.75	244
1261	256
1263.25	266
1265.49	264
1267.74	254
1269.99	260
1272.23	260
1274.48	272
1276.72	274
1278.96	298
1281.21	338
1283.45	360
1285.69	346
1287.93	420
1290.17	446
1292.41	492
1294.64	606
1296.88	780
1299.12	1086
1301.36	1540
1303.59	2010
1305.82	2168
1308.06	1864
1310.29	1326
1312.52	898
1314.76	718
1316.99	642
1319.22	556
1321.45	488
1323.68	488
1325.9	490
1328.13	454
1330.36	454
1332.58	440
1334.81	374
1337.04	334
1339.26	308
1341.48	334
1343.71	378
1345.93	368
1348.15	390
1350.37	392
1352.59	400
1354.81	358
1357.03	324
1359.24	312
1361.46	332
1363.68	306
1365.89	316
1368.11	360
1370.32	422
1372.54	534
1374.75	736
1376.96	936
1379.17	1086
1381.38	1068
1383.59	880
1385.8	732
1388.01	530
1390.22	384
1392.43	352
1394.63	286
1396.84	288
1399.05	276
1401.25	266
1403.45	284
1405.66	302
1407.86	282
1410.06	286
1412.26	288
1414.46	306
1416.66	334
1418.86	354
1421.06	372
1423.26	424
1425.46	414
1427.65	422
1429.85	448
1432.04	444
1434.24	490
1436.43	478
1438.62	526
1440.82	494
1443.01	502
1445.2	470
1447.39	452
1449.58	428
1451.77	396
1453.95	380
1456.14	388
1458.33	388
1460.52	368
1462.7	376
1464.89	386
1467.07	362
1469.25	360
1471.44	378
1473.62	370
1475.8	368
1477.98	370
1480.16	348
1482.34	334
1484.52	332
1486.7	312
1488.87	316
1491.05	300
1493.23	292
1495.4	294
1497.58	300
1499.75	284
1501.92	284
1504.1	300
1506.27	290
1508.44	312
1510.61	308
1512.78	292
1514.95	266
1517.12	278
1519.28	290
1521.45	288
1523.62	278
1525.78	292
1527.95	262
1530.11	284
1532.28	278
1534.44	274
1536.6	270
1538.76	294
1540.93	288
1543.09	292
1545.25	288
1547.41	298
1549.56	300
1551.72	300
1553.88	286
1556.03	280
1558.19	316
1560.35	292
1562.5	302
1564.65	304
1566.81	302
1568.96	334
1571.11	328
1573.26	362
1575.41	352
1577.56	392
1579.71	424
1581.86	468
1584.01	486
1586.15	578
1588.3	670
1590.45	776
1592.59	884
1594.74	1036
1596.88	1198
1599.02	1374
1601.17	1468
1603.31	1450
1605.45	1400
1607.59	1238
1609.73	1138
1611.87	1012
1614.01	876
1616.14	762
1618.28	608
1620.42	530
1622.55	452
1624.69	426
1626.82	378
1628.96	344
1631.09	320
1633.22	306
1635.36	298
1637.49	284
1639.62	272
1641.75	278
1643.88	264
1646	252
1648.13	260
1650.26	254
1652.39	248
1654.51	266
1656.64	248
1658.76	252
1660.89	236
1663.01	258
1665.13	240
1667.26	246
1669.38	242
1671.5	220
1673.62	252
1675.74	246
1677.86	228
1679.97	224
1682.09	226
1684.21	244
1686.33	234
1688.44	250
1690.56	236
1692.67	266
1694.78	262
1696.9	256
1699.01	246
1701.12	258
1703.23	248
1705.34	264
1707.45	242
1709.56	242
1711.67	248
1713.78	244
1715.88	242
1717.99	242
1720.1	214
1722.2	242
1724.31	220
1726.41	224
1728.51	234
1730.62	230
1732.72	220
1734.82	250
1736.92	206
1739.02	206
1741.12	210
1743.22	226
1745.32	228
1747.42	244
1749.51	206
1751.61	224
1753.7	220
1755.8	226
1757.89	232
1759.99	244
1762.08	212
1764.17	216
1766.26	200
1768.36	224
1770.45	226
1772.54	218
1774.62	226
1776.71	216
1778.8	222
1780.89	234
1782.98	230
1785.06	196
1787.15	222
1789.23	210
1791.32	196
1793.4	238
1795.48	224
1797.56	214
1799.65	208
1801.73	210
1803.81	234
1805.89	216
1807.97	224
1810.04	222
1812.12	222
1814.2	222
1816.28	226
1818.35	222
1820.43	218
1822.5	210
1824.58	218
1826.65	216
1828.72	218
1830.79	230
1832.86	222
1834.94	216
1837.01	214
1839.08	220
1841.15	216
1843.21	222
1845.28	210
1847.35	224
1849.41	218
1851.48	210
1853.55	216
1855.61	224
1857.67	230
1859.74	198
1861.8	224
1863.86	214
1865.92	220
1867.98	214
1870.05	212
1872.1	230
1874.16	224
1876.22	218
1878.28	222
1880.34	222
1882.39	240
1884.45	224
1886.5	212
1888.56	236
1890.61	214
1892.67	212
1894.72	226
1896.77	204
1898.82	234
1900.87	224
1902.92	222
1904.97	216
1907.02	196
1909.07	208
1911.12	218
1913.17	216
1915.21	224
1917.26	210
1919.3	232
1921.35	226
1923.39	224
1925.43	220
1927.48	230
1929.52	234
1931.56	222
1933.6	222
1935.64	228
1937.68	216
1939.72	234
1941.76	222
1943.8	222
1945.83	218
1947.87	222
1949.91	216
1951.94	228
1953.98	224
1956.01	232
1958.05	212
1960.08	222
1962.11	232
1964.14	212
1966.17	230
1968.2	216
1970.23	216
1972.26	220
1974.29	214
1976.32	218
1978.35	224
1980.37	212
1982.4	220
1984.43	224
1986.45	212
1988.48	220
1990.5	212
1992.52	220
1994.55	210
1996.57	222
1998.59	236
2000.61	210
2002.63	208
2004.65	218
2006.67	228
2008.69	228
2010.7	194
2012.72	226
2014.74	214
2016.75	224
2018.77	212
2020.78	220
2022.8	226
2024.81	200
2026.83	222
2028.84	216
2030.85	228
2032.86	214
2034.87	220
2036.88	230
2038.89	240
2040.9	220
2042.91	222
2044.91	228
2046.92	216
2048.93	220
2050.93	208
2052.94	244
2054.94	216
2056.95	208
2058.95	224
2060.95	210
2062.95	214
2064.96	218
2066.96	216
2068.96	226
2070.96	212
2072.96	220
2074.95	204
2076.95	230
2078.95	212
2080.95	226
2082.94	234
2084.94	216
2086.93	222
2088.93	218
2090.92	196
2092.91	216
2094.91	228
2096.9	212
2098.89	222
2100.88	208
2102.87	210
2104.86	204
2106.85	206
2108.84	220
2110.83	218
2112.81	224
2114.8	236
2116.78	206
2118.77	230
2120.75	234
2122.74	224
2124.72	214
2126.71	228
2128.69	224
2130.67	222
2132.65	218
2134.63	232
2136.61	220
2138.59	204
2140.57	226
2142.55	230
2144.53	216
2146.5	224
2148.48	226
2150.46	226
2152.43	222
2154.41	210
2156.38	218
2158.35	224
2160.33	228
2162.3	216
2164.27	210
2166.24	220
2168.21	202
2170.18	212
2172.15	214
2174.12	204
2176.09	238
2178.06	236
2180.03	206
2181.99	214
2183.96	226
2185.92	216
2187.89	216
2189.85	224
2191.82	222
2193.78	230
2195.74	212
2197.7	214
2199.67	200
2201.63	196
2203.59	204
2205.55	216
2207.51	212
2209.46	200
2211.42	208
2213.38	232
2215.34	214
2217.29	232
2219.25	208
2221.2	200
2223.16	208
2225.11	232
2227.06	210
2229.02	214
2230.97	216
2232.92	210
2234.87	210
2236.82	220
2238.77	216
2240.72	206
2242.67	212
2244.62	220
2246.57	216
2248.51	226
2250.46	216
2252.4	232
2254.35	222
2256.29	230
2258.24	226
2260.18	228
2262.13	222
2264.07	206
2266.01	222
2267.95	226
2269.89	210
2271.83	214
2273.77	202
2275.71	220
2277.65	218
2279.58	222
2281.52	218
2283.46	226
2285.4	208
2287.33	212
2289.27	214
2291.2	214
2293.13	224
2295.07	224
2297	218
2298.93	200
2300.86	214
2302.79	212
2304.72	214
2306.65	224
2308.58	238
2310.51	232
2312.44	220
2314.37	222
2316.29	232
2318.22	234
2320.15	238
2322.07	220
2324	226
2325.92	238
2327.84	228
2329.77	212
2331.69	238
2333.61	216
2335.53	234
2337.45	214
2339.37	226
2341.29	224
2343.21	208
2345.13	218
2347.05	224
2348.97	222
2350.88	220
2352.8	202
2354.71	224
2356.63	196
2358.54	196
2360.46	228
2362.37	220
2364.28	232
2366.2	216
2368.11	210
2370.02	214
2371.93	220
2373.84	224
2375.75	220
2377.66	234
2379.57	218
2381.47	226
2383.38	228
2385.29	228
2387.2	230
2389.1	220
2391.01	230
2392.91	234
2394.81	224
2396.72	208
2398.62	248
2400.52	224
2402.42	238
2404.33	226
2406.23	218
2408.13	228
2410.03	232
2411.92	218
2413.82	224
2415.72	224
2417.62	210
2419.51	220
2421.41	196
2423.31	218
2425.2	208
2427.1	230
2428.99	214
2430.88	226
2432.78	218
2434.67	206
2436.56	222
2438.45	204
2440.34	216
2442.23	226
2444.12	198
2446.01	212
2447.9	214
2449.79	222