File: Mixture_Classification/Jesse_Dataset_v2/Pure Raman/Polypropylene oxide/633nm/ps-ppo-7jan25-0,0000-map2_Y00_X06.txt
182.393	774
184.993	720
187.593	688
190.193	686
192.79	650
195.387	614
197.983	574
200.578	574
203.174	532
205.766	540
208.36	536
210.951	536
213.542	520
216.131	488
218.721	548
221.309	556
223.897	644
226.483	796
229.069	1022
231.654	1254
234.238	1320
236.821	1306
239.404	1222
241.984	1042
244.566	902
247.145	798
249.723	692
252.302	604
254.878	480
257.455	456
260.03	428
262.604	388
265.178	338
267.75	352
270.322	316
272.893	306
275.463	330
278.032	328
280.601	354
283.168	382
285.734	410
288.301	472
290.866	572
293.429	676
295.992	668
298.556	672
301.117	596
303.677	556
306.236	508
308.795	506
311.354	424
313.911	450
316.467	414
319.022	422
321.577	400
324.13	394
326.684	448
329.236	432
331.787	452
334.337	506
336.887	432
339.435	428
341.983	414
344.529	414
347.075	404
349.621	382
352.165	416
354.708	402
357.251	402
359.793	400
362.334	398
364.874	370
367.413	368
369.951	368
372.489	386
375.026	378
377.562	390
380.097	330
382.631	316
385.164	306
387.697	282
390.229	270
392.76	286
395.29	274
397.819	294
400.346	296
402.873	290
405.4	296
407.926	340
410.451	360
412.976	408
415.499	444
418.02	390
420.542	364
423.063	310
425.583	294
428.101	280
430.619	272
433.137	254
435.654	252
438.169	220
440.684	218
443.198	208
445.712	224
448.223	226
450.735	210
453.246	208
455.755	228
458.264	214
460.771	234
463.279	238
465.786	260
468.291	274
470.796	336
473.301	354
475.803	410
478.306	444
480.807	494
483.308	554
485.807	532
488.307	488
490.804	416
493.302	354
495.798	324
498.294	288
500.788	272
503.283	252
505.775	266
508.269	314
510.759	396
513.251	458
515.74	430
518.23	350
520.718	334
523.204	346
525.692	380
528.177	438
530.663	550
533.147	650
535.629	732
538.113	828
540.594	852
543.074	750
545.555	616
548.034	490
550.512	466
552.989	430
555.467	488
557.942	580
560.417	722
562.892	1078
565.365	1748
567.838	2846
570.309	3864
572.78	3720
575.251	2724
577.72	1582
580.189	1020
582.656	766
585.123	686
587.589	660
590.055	586
592.52	548
594.983	548
597.446	518
599.908	454
602.369	378
604.829	314
607.289	294
609.747	270
612.205	272
614.663	266
617.119	258
619.574	264
622.029	298
624.483	332
626.936	328
629.389	338
631.84	378
634.291	358
636.741	370
639.19	366
641.639	332
644.086	322
646.533	282
648.979	308
651.424	272
653.869	260
656.313	260
658.754	256
661.196	252
663.638	216
666.078	216
668.518	242
670.957	230
673.394	210
675.831	238
678.268	214
680.703	208
683.137	216
685.571	222
688.005	222
690.437	212
692.868	226
695.299	224
697.729	226
700.159	224
702.586	218
705.014	248
707.441	236
709.866	268
712.292	284
714.716	282
717.14	288
719.563	280
721.984	262
724.406	252
726.825	254
729.246	254
731.665	250
734.082	272
736.5	264
738.916	276
741.332	294
743.746	312
746.161	390
748.574	380
750.987	364
753.398	344
755.81	342
758.219	292
760.629	268
763.037	270
765.445	246
767.852	248
770.258	236
772.664	266
775.068	270
777.472	262
779.876	268
782.278	274
784.679	270
787.08	246
789.48	252
791.879	238
794.278	242
796.675	252
799.072	250
801.467	246
803.864	258
806.258	268
808.651	264
811.044	262
813.437	262
815.828	268
818.218	288
820.608	296
822.997	314
825.385	410
827.773	560
830.16	858
832.546	1232
834.931	1134
837.315	720
839.699	464
842.081	344
844.463	322
846.844	342
849.226	322
851.606	292
853.985	298
856.363	294
858.741	294
861.117	288
863.493	276
865.868	254
868.243	232
870.616	258
872.989	244
875.36	242
877.731	250
880.102	244
882.472	248
884.841	212
887.209	244
889.577	238
891.944	234
894.31	236
896.674	236
899.039	234
901.403	228
903.766	234
906.128	240
908.49	240
910.849	246
913.209	236
915.569	226
917.927	234
920.284	246
922.641	238
924.997	226
927.353	242
929.707	262
932.061	252
934.414	256
936.765	264
939.117	252
941.469	282
943.818	292
946.167	362
948.515	412
950.863	470
953.211	604
955.556	764
957.902	904
960.246	986
962.59	932
964.933	820
967.276	696
969.617	594
971.958	510
974.298	436
976.638	368
978.976	314
981.314	304
983.651	290
985.988	272
988.323	274
990.659	296
992.992	302
995.325	274
997.658	274
999.99	252
1002.32	244
1004.65	268
1006.98	254
1009.31	260
1011.64	270
1013.97	282
1016.29	264
1018.62	286
1020.94	296
1023.27	308
1025.59	274
1027.91	312
1030.24	312
1032.56	340
1034.88	354
1037.2	340
1039.52	340
1041.84	332
1044.15	312
1046.47	322
1048.79	300
1051.1	270
1053.42	272
1055.73	264
1058.04	244
1060.36	254
1062.67	240
1064.98	280
1067.29	256
1069.6	252
1071.91	278
1074.22	248
1076.52	250
1078.83	264
1081.14	268
1083.44	260
1085.75	252
1088.05	278
1090.35	254
1092.65	272
1094.95	254
1097.26	252
1099.56	280
1101.86	318
1104.15	362
1106.45	438
1108.75	620
1111.05	906
1113.34	962
1115.64	780
1117.93	562
1120.22	448
1122.52	386
1124.81	342
1127.1	360
1129.39	314
1131.68	310
1133.97	324
1136.26	306
1138.54	316
1140.83	318
1143.12	270
1145.4	298
1147.69	266
1149.97	268
1152.25	280
1154.54	290
1156.82	302
1159.1	320
1161.38	336
1163.66	324
1165.94	318
1168.22	310
1170.49	302
1172.77	326
1175.05	348
1177.32	376
1179.6	432
1181.87	522
1184.14	632
1186.42	702
1188.69	654
1190.96	568
1193.23	516
1195.5	480
1197.77	510
1200.03	538
1202.3	540
1204.57	542
1206.83	482
1209.1	424
1211.36	354
1213.63	316
1215.89	316
1218.15	300
1220.41	294
1222.67	308
1224.93	338
1227.19	382
1229.45	412
1231.71	400
1233.97	368
1236.22	322
1238.48	310
1240.73	310
1242.99	278
1245.24	318
1247.5	302
1249.75	266
1252	290
1254.25	302
1256.5	296
1258.75	268
1261	282
1263.25	306
1265.49	290
1267.74	310
1269.99	310
1272.23	314
1274.48	340
1276.72	344
1278.96	366
1281.21	408
1283.45	416
1285.69	426
1287.93	456
1290.17	494
1292.41	548
1294.64	688
1296.88	884
1299.12	1218
1301.36	1648
1303.59	2126
1305.82	2302
1308.06	1958
1310.29	1378
1312.52	970
1314.76	806
1316.99	662
1319.22	588
1321.45	548
1323.68	550
1325.9	544
1328.13	548
1330.36	530
1332.58	470
1334.81	420
1337.04	394
1339.26	396
1341.48	412
1343.71	392
1345.93	422
1348.15	456
1350.37	462
1352.59	432
1354.81	434
1357.03	398
1359.24	376
1361.46	386
1363.68	382
1365.89	382
1368.11	386
1370.32	484
1372.54	596
1374.75	826
1376.96	1074
1379.17	1108
1381.38	1130
1383.59	996
1385.8	780
1388.01	560
1390.22	438
1392.43	372
1394.63	354
1396.84	320
1399.05	348
1401.25	328
1403.45	346
1405.66	332
1407.86	368
1410.06	352
1412.26	356
1414.46	368
1416.66	366
1418.86	410
1421.06	428
1423.26	476
1425.46	500
1427.65	492
1429.85	516
1432.04	492
1434.24	504
1436.43	584
1438.62	540
1440.82	562
1443.01	556
1445.2	520
1447.39	510
1449.58	510
1451.77	468
1453.95	466
1456.14	464
1458.33	462
1460.52	434
1462.7	442
1464.89	452
1467.07	442
1469.25	454
1471.44	426
1473.62	440
1475.8	424
1477.98	434
1480.16	412
1482.34	406
1484.52	386
1486.7	370
1488.87	360
1491.05	320
1493.23	346
1495.4	358
1497.58	332
1499.75	344
1501.92	318
1504.1	342
1506.27	346
1508.44	340
1510.61	354
1512.78	334
1514.95	336
1517.12	324
1519.28	342
1521.45	332
1523.62	340
1525.78	320
1527.95	324
1530.11	326
1532.28	340
1534.44	326
1536.6	338
1538.76	328
1540.93	356
1543.09	336
1545.25	332
1547.41	354
1549.56	354
1551.72	354
1553.88	356
1556.03	350
1558.19	364
1560.35	354
1562.5	364
1564.65	384
1566.81	356
1568.96	372
1571.11	392
1573.26	434
1575.41	434
1577.56	458
1579.71	498
1581.86	522
1584.01	584
1586.15	628
1588.3	730
1590.45	852
1592.59	1018
1594.74	1134
1596.88	1270
1599.02	1440
1601.17	1534
1603.31	1570
1605.45	1492
1607.59	1408
1609.73	1186
1611.87	1064
1614.01	932
1616.14	788
1618.28	692
1620.42	590
1622.55	496
1624.69	468
1626.82	420
1628.96	410
1631.09	368
1633.22	350
1635.36	354
1637.49	342
1639.62	314
1641.75	310
1643.88	310
1646	314
1648.13	302
1650.26	304
1652.39	290
1654.51	294
1656.64	294
1658.76	304
1660.89	300
1663.01	320
1665.13	264
1667.26	306
1669.38	288
1671.5	286
1673.62	290
1675.74	284
1677.86	280
1679.97	286
1682.09	292
1684.21	296
1686.33	294
1688.44	322
1690.56	302
1692.67	312
1694.78	324
1696.9	306
1699.01	332
1701.12	308
1703.23	308
1705.34	292
1707.45	300
1709.56	274
1711.67	278
1713.78	290
1715.88	292
1717.99	298
1720.1	288
1722.2	266
1724.31	258
1726.41	280
1728.51	282
1730.62	276
1732.72	276
1734.82	268
1736.92	276
1739.02	272
1741.12	286
1743.22	274
1745.32	264
1747.42	254
1749.51	274
1751.61	284
1753.7	244
1755.8	262
1757.89	252
1759.99	266
1762.08	286
1764.17	274
1766.26	264
1768.36	260
1770.45	276
1772.54	284
1774.62	266
1776.71	276
1778.8	270
1780.89	260
1782.98	272
1785.06	276
1787.15	280
1789.23	264
1791.32	280
1793.4	270
1795.48	268
1797.56	272
1799.65	270
1801.73	270
1803.81	272
1805.89	276
1807.97	270
1810.04	266
1812.12	280
1814.2	262
1816.28	274
1818.35	278
1820.43	250
1822.5	258
1824.58	254
1826.65	254
1828.72	272
1830.79	278
1832.86	254
1834.94	266
1837.01	258
1839.08	272
1841.15	264
1843.21	272
1845.28	248
1847.35	260
1849.41	288
1851.48	270
1853.55	270
1855.61	248
1857.67	264
1859.74	276
1861.8	256
1863.86	260
1865.92	262
1867.98	254
1870.05	274
1872.1	264
1874.16	256
1876.22	262
1878.28	264
1880.34	258
1882.39	252
1884.45	276
1886.5	282
1888.56	260
1890.61	270
1892.67	258
1894.72	282
1896.77	272
1898.82	260
1900.87	270
1902.92	264
1904.97	266
1907.02	264
1909.07	268
1911.12	262
1913.17	262
1915.21	248
1917.26	264
1919.3	252
1921.35	272
1923.39	274
1925.43	262
1927.48	288
1929.52	250
1931.56	288
1933.6	272
1935.64	282
1937.68	262
1939.72	256
1941.76	270
1943.8	266
1945.83	262
1947.87	282
1949.91	266
1951.94	280
1953.98	260
1956.01	260
1958.05	280
1960.08	262
1962.11	274
1964.14	276
1966.17	250
1968.2	270
1970.23	254
1972.26	284
1974.29	254
1976.32	272
1978.35	262
1980.37	272
1982.4	280
1984.43	264
1986.45	268
1988.48	272
1990.5	272
1992.52	268
1994.55	258
1996.57	262
1998.59	262
2000.61	270
2002.63	266
2004.65	268
2006.67	270
2008.69	268
2010.7	258
2012.72	278
2014.74	258
2016.75	256
2018.77	274
2020.78	262
2022.8	252
2024.81	268
2026.83	274
2028.84	282
2030.85	266
2032.86	264
2034.87	248
2036.88	260
2038.89	272
2040.9	276
2042.91	268
2044.91	266
2046.92	264
2048.93	278
2050.93	278
2052.94	260
2054.94	274
2056.95	278
2058.95	272
2060.95	284
2062.95	270
2064.96	270
2066.96	268
2068.96	284
2070.96	258
2072.96	260
2074.95	274
2076.95	294
2078.95	278
2080.95	274
2082.94	280
2084.94	278
2086.93	268
2088.93	284
2090.92	266
2092.91	254
2094.91	260
2096.9	238
2098.89	264
2100.88	268
2102.87	244
2104.86	284
2106.85	268
2108.84	288
2110.83	256
2112.81	248
2114.8	252
2116.78	244
2118.77	268
2120.75	276
2122.74	264
2124.72	278
2126.71	240
2128.69	272
2130.67	248
2132.65	252
2134.63	260
2136.61	266
2138.59	258
2140.57	252
2142.55	258
2144.53	254
2146.5	248
2148.48	254
2150.46	250
2152.43	250
2154.41	262
2156.38	270
2158.35	278
2160.33	236
2162.3	242
2164.27	256
2166.24	256
2168.21	272
2170.18	266
2172.15	256
2174.12	258
2176.09	262
2178.06	266
2180.03	258
2181.99	258
2183.96	270
2185.92	266
2187.89	262
2189.85	258
2191.82	254
2193.78	252
2195.74	246
2197.7	248
2199.67	236
2201.63	252
2203.59	256
2205.55	266
2207.51	254
2209.46	272
2211.42	258
2213.38	276
2215.34	246
2217.29	268
2219.25	280
2221.2	266
2223.16	262
2225.11	256
2227.06	258
2229.02	258
2230.97	272
2232.92	266
2234.87	256
2236.82	264
2238.77	256
2240.72	248
2242.67	252
2244.62	250
2246.57	246
2248.51	272
2250.46	248
2252.4	262
2254.35	264
2256.29	266
2258.24	254
2260.18	258
2262.13	252
2264.07	250
2266.01	268
2267.95	254
2269.89	244
2271.83	266
2273.77	256
2275.71	254
2277.65	250
2279.58	272
2281.52	262
2283.46	264
2285.4	248
2287.33	256
2289.27	266
2291.2	254
2293.13	262
2295.07	252
2297	262
2298.93	252
2300.86	272
2302.79	264
2304.72	268
2306.65	278
2308.58	280
2310.51	252
2312.44	264
2314.37	258
2316.29	268
2318.22	262
2320.15	276
2322.07	262
2324	270
2325.92	262
2327.84	262
2329.77	262
2331.69	246
2333.61	278
2335.53	268
2337.45	278
2339.37	286
2341.29	278
2343.21	272
2345.13	250
2347.05	250
2348.97	254
2350.88	272
2352.8	258
2354.71	252
2356.63	262
2358.54	252
2360.46	254
2362.37	248
2364.28	256
2366.2	234
2368.11	264
2370.02	260
2371.93	250
2373.84	274
2375.75	254
2377.66	264
2379.57	264
2381.47	252
2383.38	264
2385.29	244
2387.2	256
2389.1	266
2391.01	262
2392.91	262
2394.81	248
2396.72	254
2398.62	268
2400.52	274
2402.42	258
2404.33	278
2406.23	272
2408.13	268
2410.03	276
2411.92	268
2413.82	252
2415.72	246
2417.62	254
2419.51	244
2421.41	272
2423.31	256
2425.2	232
2427.1	260
2428.99	262
2430.88	252
2432.78	244
2434.67	240
2436.56	238
2438.45	260
2440.34	258
2442.23	266
2444.12	260
2446.01	242
2447.9	246
2449.79	262