File: Mixture_Classification/Jesse_Dataset_v2/Pure Raman/Polypropylene oxide/633nm/ps-ppo-7jan25-0,0000-map2_Y02_X05.txt
182.393	712
184.993	668
187.593	626
190.193	622
192.79	640
195.387	564
197.983	538
200.578	528
203.174	504
205.766	488
208.36	486
210.951	492
213.542	476
216.131	462
218.721	488
221.309	522
223.897	610
226.483	772
229.069	1002
231.654	1204
234.238	1312
236.821	1278
239.404	1150
241.984	1004
244.566	882
247.145	764
249.723	636
252.302	552
254.878	480
257.455	426
260.03	368
262.604	322
265.178	334
267.75	316
270.322	278
272.893	284
275.463	294
278.032	298
280.601	314
283.168	354
285.734	384
288.301	450
290.866	536
293.429	634
295.992	602
298.556	612
301.117	556
303.677	526
306.236	444
308.795	442
311.354	400
313.911	382
316.467	384
319.022	382
321.577	368
324.13	368
326.684	392
329.236	380
331.787	388
334.337	392
336.887	430
339.435	400
341.983	374
344.529	368
347.075	338
349.621	342
352.165	366
354.708	350
357.251	356
359.793	342
362.334	352
364.874	330
367.413	328
369.951	330
372.489	332
375.026	328
377.562	300
380.097	298
382.631	278
385.164	242
387.697	274
390.229	234
392.76	224
395.29	262
397.819	240
400.346	258
402.873	230
405.4	274
407.926	266
410.451	328
412.976	350
415.499	366
418.02	362
420.542	308
423.063	272
425.583	248
428.101	220
430.619	218
433.137	208
435.654	186
438.169	188
440.684	170
443.198	174
445.712	180
448.223	170
450.735	174
453.246	180
455.755	164
458.264	180
460.771	196
463.279	190
465.786	200
468.291	230
470.796	274
473.301	322
475.803	370
478.306	400
480.807	468
483.308	508
485.807	528
488.307	462
490.804	366
493.302	300
495.798	270
498.294	254
500.788	208
503.283	220
505.775	236
508.269	256
510.759	354
513.251	398
515.74	390
518.23	316
520.718	300
523.204	300
525.692	338
528.177	372
530.663	478
533.147	596
535.629	722
538.113	806
540.594	784
543.074	672
545.555	540
548.034	452
550.512	426
552.989	378
555.467	430
557.942	530
560.417	698
562.892	1078
565.365	1676
567.838	2722
570.309	3752
572.78	3650
575.251	2654
577.72	1530
580.189	954
582.656	726
585.123	638
587.589	614
590.055	590
592.52	492
594.983	524
597.446	436
599.908	358
602.369	308
604.829	278
607.289	252
609.747	234
612.205	210
614.663	222
617.119	206
619.574	228
622.029	240
624.483	256
626.936	288
629.389	302
631.84	308
634.291	322
636.741	322
639.19	308
641.639	306
644.086	264
646.533	266
648.979	254
651.424	216
653.869	200
656.313	218
658.754	204
661.196	192
663.638	186
666.078	182
668.518	174
670.957	166
673.394	170
675.831	158
678.268	162
680.703	174
683.137	180
685.571	176
688.005	162
690.437	178
692.868	178
695.299	186
697.729	158
700.159	180
702.586	182
705.014	204
707.441	194
709.866	226
712.292	248
714.716	258
717.14	252
719.563	244
721.984	208
724.406	208
726.825	214
729.246	192
731.665	204
734.082	218
736.5	220
738.916	242
741.332	244
743.746	292
746.161	332
748.574	326
750.987	308
753.398	300
755.81	288
758.219	260
760.629	220
763.037	202
765.445	206
767.852	188
770.258	212
772.664	224
775.068	216
777.472	216
779.876	210
782.278	222
784.679	242
787.08	200
789.48	192
791.879	202
794.278	186
796.675	190
799.072	202
801.467	188
803.864	202
806.258	202
808.651	226
811.044	212
813.437	200
815.828	212
818.218	236
820.608	246
822.997	288
825.385	360
827.773	498
830.16	804
832.546	1198
834.931	1136
837.315	648
839.699	366
842.081	322
844.463	264
846.844	274
849.226	284
851.606	286
853.985	258
856.363	252
858.741	234
861.117	226
863.493	244
865.868	212
868.243	204
870.616	194
872.989	204
875.36	190
877.731	198
880.102	186
882.472	184
884.841	188
887.209	186
889.577	174
891.944	192
894.31	184
896.674	174
899.039	178
901.403	188
903.766	174
906.128	170
908.49	188
910.849	192
913.209	180
915.569	174
917.927	200
920.284	190
922.641	186
924.997	198
927.353	196
929.707	194
932.061	204
934.414	208
936.765	212
939.117	222
941.469	232
943.818	260
946.167	294
948.515	342
950.863	450
953.211	550
955.556	702
957.902	880
960.246	922
962.59	906
964.933	754
967.276	630
969.617	534
971.958	480
974.298	372
976.638	302
978.976	266
981.314	244
983.651	234
985.988	224
988.323	232
990.659	230
992.992	224
995.325	200
997.658	208
999.99	194
1002.32	196
1004.65	218
1006.98	206
1009.31	206
1011.64	218
1013.97	220
1016.29	236
1018.62	228
1020.94	240
1023.27	270
1025.59	258
1027.91	278
1030.24	310
1032.56	278
1034.88	292
1037.2	298
1039.52	270
1041.84	254
1044.15	250
1046.47	232
1048.79	248
1051.1	220
1053.42	222
1055.73	212
1058.04	210
1060.36	206
1062.67	200
1064.98	208
1067.29	208
1069.6	200
1071.91	204
1074.22	204
1076.52	190
1078.83	220
1081.14	206
1083.44	212
1085.75	228
1088.05	204
1090.35	202
1092.65	234
1094.95	218
1097.26	224
1099.56	262
1101.86	252
1104.15	294
1106.45	372
1108.75	572
1111.05	828
1113.34	916
1115.64	728
1117.93	526
1120.22	398
1122.52	320
1124.81	304
1127.1	254
1129.39	254
1131.68	248
1133.97	246
1136.26	244
1138.54	246
1140.83	276
1143.12	266
1145.4	248
1147.69	244
1149.97	242
1152.25	236
1154.54	232
1156.82	260
1159.1	266
1161.38	268
1163.66	288
1165.94	278
1168.22	254
1170.49	272
1172.77	262
1175.05	286
1177.32	320
1179.6	404
1181.87	446
1184.14	558
1186.42	680
1188.69	610
1190.96	536
1193.23	452
1195.5	416
1197.77	474
1200.03	456
1202.3	460
1204.57	464
1206.83	436
1209.1	380
1211.36	310
1213.63	266
1215.89	258
1218.15	254
1220.41	242
1222.67	258
1224.93	298
1227.19	332
1229.45	370
1231.71	390
1233.97	302
1236.22	280
1238.48	254
1240.73	240
1242.99	240
1245.24	226
1247.5	230
1249.75	228
1252	232
1254.25	210
1256.5	238
1258.75	238
1261	236
1263.25	262
1265.49	258
1267.74	268
1269.99	248
1272.23	260
1274.48	280
1276.72	304
1278.96	318
1281.21	320
1283.45	360
1285.69	388
1287.93	430
1290.17	476
1292.41	524
1294.64	640
1296.88	810
1299.12	1130
1301.36	1604
1303.59	2032
1305.82	2216
1308.06	1900
1310.29	1358
1312.52	974
1314.76	758
1316.99	646
1319.22	566
1321.45	524
1323.68	466
1325.9	472
1328.13	468
1330.36	448
1332.58	402
1334.81	392
1337.04	334
1339.26	352
1341.48	346
1343.71	350
1345.93	392
1348.15	370
1350.37	398
1352.59	400
1354.81	364
1357.03	334
1359.24	322
1361.46	340
1363.68	316
1365.89	338
1368.11	360
1370.32	422
1372.54	558
1374.75	772
1376.96	992
1379.17	1028
1381.38	1076
1383.59	924
1385.8	700
1388.01	516
1390.22	402
1392.43	328
1394.63	296
1396.84	290
1399.05	288
1401.25	276
1403.45	292
1405.66	286
1407.86	290
1410.06	302
1412.26	336
1414.46	328
1416.66	346
1418.86	380
1421.06	358
1423.26	422
1425.46	406
1427.65	420
1429.85	462
1432.04	458
1434.24	456
1436.43	490
1438.62	540
1440.82	524
1443.01	510
1445.2	452
1447.39	468
1449.58	442
1451.77	388
1453.95	412
1456.14	400
1458.33	404
1460.52	398
1462.7	396
1464.89	386
1467.07	378
1469.25	392
1471.44	370
1473.62	366
1475.8	374
1477.98	374
1480.16	374
1482.34	326
1484.52	328
1486.7	328
1488.87	308
1491.05	306
1493.23	288
1495.4	306
1497.58	294
1499.75	288
1501.92	294
1504.1	288
1506.27	276
1508.44	282
1510.61	292
1512.78	314
1514.95	280
1517.12	292
1519.28	272
1521.45	280
1523.62	284
1525.78	272
1527.95	290
1530.11	286
1532.28	280
1534.44	276
1536.6	266
1538.76	268
1540.93	286
1543.09	294
1545.25	284
1547.41	280
1549.56	302
1551.72	294
1553.88	280
1556.03	290
1558.19	294
1560.35	326
1562.5	316
1564.65	322
1566.81	322
1568.96	344
1571.11	342
1573.26	360
1575.41	372
1577.56	410
1579.71	454
1581.86	482
1584.01	514
1586.15	618
1588.3	658
1590.45	774
1592.59	938
1594.74	1078
1596.88	1300
1599.02	1326
1601.17	1492
1603.31	1508
1605.45	1414
1607.59	1280
1609.73	1176
1611.87	984
1614.01	874
1616.14	736
1618.28	618
1620.42	556
1622.55	460
1624.69	420
1626.82	366
1628.96	344
1631.09	312
1633.22	308
1635.36	296
1637.49	274
1639.62	288
1641.75	266
1643.88	270
1646	248
1648.13	270
1650.26	256
1652.39	242
1654.51	242
1656.64	244
1658.76	236
1660.89	242
1663.01	240
1665.13	236
1667.26	230
1669.38	230
1671.5	230
1673.62	234
1675.74	234
1677.86	238
1679.97	220
1682.09	234
1684.21	254
1686.33	232
1688.44	256
1690.56	256
1692.67	262
1694.78	264
1696.9	268
1699.01	258
1701.12	256
1703.23	250
1705.34	256
1707.45	250
1709.56	242
1711.67	252
1713.78	236
1715.88	242
1717.99	216
1720.1	246
1722.2	226
1724.31	210
1726.41	250
1728.51	224
1730.62	240
1732.72	222
1734.82	218
1736.92	230
1739.02	228
1741.12	212
1743.22	220
1745.32	222
1747.42	204
1749.51	210
1751.61	218
1753.7	236
1755.8	232
1757.89	230
1759.99	222
1762.08	224
1764.17	228
1766.26	230
1768.36	218
1770.45	212
1772.54	224
1774.62	218
1776.71	230
1778.8	224
1780.89	222
1782.98	226
1785.06	220
1787.15	212
1789.23	208
1791.32	230
1793.4	226
1795.48	222
1797.56	222
1799.65	206
1801.73	242
1803.81	228
1805.89	218
1807.97	216
1810.04	206
1812.12	212
1814.2	220
1816.28	220
1818.35	226
1820.43	218
1822.5	222
1824.58	218
1826.65	222
1828.72	214
1830.79	224
1832.86	232
1834.94	230
1837.01	214
1839.08	234
1841.15	210
1843.21	222
1845.28	218
1847.35	226
1849.41	224
1851.48	214
1853.55	212
1855.61	210
1857.67	216
1859.74	206
1861.8	210
1863.86	194
1865.92	204
1867.98	218
1870.05	216
1872.1	222
1874.16	232
1876.22	216
1878.28	220
1880.34	214
1882.39	230
1884.45	230
1886.5	228
1888.56	230
1890.61	220
1892.67	238
1894.72	206
1896.77	224
1898.82	230
1900.87	216
1902.92	218
1904.97	224
1907.02	230
1909.07	216
1911.12	210
1913.17	226
1915.21	224
1917.26	226
1919.3	230
1921.35	228
1923.39	234
1925.43	236
1927.48	228
1929.52	218
1931.56	242
1933.6	232
1935.64	222
1937.68	226
1939.72	210
1941.76	226
1943.8	234
1945.83	222
1947.87	230
1949.91	224
1951.94	218
1953.98	228
1956.01	228
1958.05	248
1960.08	232
1962.11	220
1964.14	226
1966.17	210
1968.2	216
1970.23	206
1972.26	216
1974.29	212
1976.32	212
1978.35	238
1980.37	230
1982.4	228
1984.43	218
1986.45	206
1988.48	222
1990.5	224
1992.52	226
1994.55	208
1996.57	218
1998.59	234
2000.61	232
2002.63	228
2004.65	206
2006.67	234
2008.69	228
2010.7	232
2012.72	214
2014.74	232
2016.75	222
2018.77	210
2020.78	220
2022.8	220
2024.81	236
2026.83	228
2028.84	218
2030.85	222
2032.86	222
2034.87	220
2036.88	220
2038.89	214
2040.9	224
2042.91	214
2044.91	224
2046.92	218
2048.93	216
2050.93	204
2052.94	214
2054.94	238
2056.95	206
2058.95	226
2060.95	216
2062.95	220
2064.96	222
2066.96	232
2068.96	214
2070.96	206
2072.96	214
2074.95	214
2076.95	218
2078.95	228
2080.95	196
2082.94	226
2084.94	224
2086.93	224
2088.93	194
2090.92	232
2092.91	226
2094.91	204
2096.9	224
2098.89	208
2100.88	226
2102.87	214
2104.86	230
2106.85	206
2108.84	212
2110.83	218
2112.81	208
2114.8	238
2116.78	198
2118.77	210
2120.75	206
2122.74	236
2124.72	216
2126.71	216
2128.69	222
2130.67	212
2132.65	240
2134.63	224
2136.61	222
2138.59	204
2140.57	218
2142.55	236
2144.53	236
2146.5	230
2148.48	216
2150.46	224
2152.43	214
2154.41	204
2156.38	228
2158.35	216
2160.33	222
2162.3	230
2164.27	230
2166.24	210
2168.21	224
2170.18	200
2172.15	224
2174.12	226
2176.09	212
2178.06	210
2180.03	212
2181.99	216
2183.96	224
2185.92	208
2187.89	212
2189.85	216
2191.82	226
2193.78	196
2195.74	208
2197.7	216
2199.67	206
2201.63	224
2203.59	222
2205.55	210
2207.51	212
2209.46	206
2211.42	206
2213.38	214
2215.34	216
2217.29	214
2219.25	218
2221.2	222
2223.16	204
2225.11	210
2227.06	212
2229.02	214
2230.97	216
2232.92	230
2234.87	218
2236.82	204
2238.77	210
2240.72	210
2242.67	224
2244.62	222
2246.57	220
2248.51	224
2250.46	214
2252.4	212
2254.35	212
2256.29	222
2258.24	218
2260.18	202
2262.13	214
2264.07	210
2266.01	236
2267.95	212
2269.89	226
2271.83	236
2273.77	216
2275.71	226
2277.65	228
2279.58	224
2281.52	228
2283.46	216
2285.4	212
2287.33	222
2289.27	212
2291.2	216
2293.13	216
2295.07	226
2297	230
2298.93	214
2300.86	210
2302.79	214
2304.72	222
2306.65	224
2308.58	238
2310.51	232
2312.44	228
2314.37	230
2316.29	220
2318.22	242
2320.15	210
2322.07	238
2324	236
2325.92	214
2327.84	228
2329.77	238
2331.69	232
2333.61	220
2335.53	220
2337.45	222
2339.37	226
2341.29	216
2343.21	224
2345.13	232
2347.05	222
2348.97	220
2350.88	236
2352.8	228
2354.71	222
2356.63	220
2358.54	240
2360.46	222
2362.37	216
2364.28	218
2366.2	228
2368.11	220
2370.02	230
2371.93	234
2373.84	246
2375.75	226
2377.66	218
2379.57	234
2381.47	216
2383.38	218
2385.29	222
2387.2	224
2389.1	236
2391.01	214
2392.91	212
2394.81	232
2396.72	228
2398.62	220
2400.52	236
2402.42	228
2404.33	222
2406.23	224
2408.13	228
2410.03	236
2411.92	234
2413.82	240
2415.72	228
2417.62	224
2419.51	210
2421.41	214
2423.31	216
2425.2	216
2427.1	230
2428.99	208
2430.88	224
2432.78	210
2434.67	204
2436.56	206
2438.45	210
2440.34	208
2442.23	206
2444.12	214
2446.01	208
2447.9	212
2449.79	228