File: Mixture_Classification/Jesse_Dataset_v2/Pure Raman/Polypropylene oxide/633nm/ps-ppo-7jan25-0,0000-map2_Y09_X02.txt
182.393	652
184.993	654
187.593	628
190.193	608
192.79	588
195.387	600
197.983	550
200.578	522
203.174	492
205.766	488
208.36	458
210.951	452
213.542	436
216.131	422
218.721	436
221.309	508
223.897	576
226.483	716
229.069	896
231.654	1114
234.238	1220
236.821	1184
239.404	1098
241.984	1024
244.566	864
247.145	748
249.723	612
252.302	534
254.878	464
257.455	410
260.03	374
262.604	322
265.178	328
267.75	292
270.322	286
272.893	292
275.463	256
278.032	298
280.601	304
283.168	314
285.734	372
288.301	444
290.866	506
293.429	582
295.992	624
298.556	602
301.117	522
303.677	484
306.236	450
308.795	404
311.354	376
313.911	348
316.467	356
319.022	370
321.577	348
324.13	360
326.684	348
329.236	354
331.787	408
334.337	412
336.887	412
339.435	352
341.983	366
344.529	332
347.075	354
349.621	348
352.165	332
354.708	354
357.251	352
359.793	360
362.334	324
364.874	328
367.413	312
369.951	302
372.489	314
375.026	312
377.562	286
380.097	288
382.631	276
385.164	264
387.697	244
390.229	240
392.76	234
395.29	236
397.819	224
400.346	234
402.873	242
405.4	268
407.926	252
410.451	296
412.976	370
415.499	366
418.02	330
420.542	300
423.063	272
425.583	236
428.101	240
430.619	220
433.137	202
435.654	188
438.169	180
440.684	170
443.198	182
445.712	174
448.223	174
450.735	176
453.246	170
455.755	158
458.264	176
460.771	182
463.279	184
465.786	200
468.291	256
470.796	254
473.301	290
475.803	346
478.306	380
480.807	446
483.308	458
485.807	492
488.307	434
490.804	338
493.302	312
495.798	262
498.294	238
500.788	202
503.283	220
505.775	208
508.269	250
510.759	320
513.251	380
515.74	374
518.23	320
520.718	300
523.204	298
525.692	354
528.177	388
530.663	450
533.147	568
535.629	692
538.113	750
540.594	770
543.074	698
545.555	552
548.034	462
550.512	348
552.989	364
555.467	418
557.942	524
560.417	646
562.892	956
565.365	1610
567.838	2602
570.309	3634
572.78	3670
575.251	2652
577.72	1552
580.189	906
582.656	672
585.123	632
587.589	596
590.055	538
592.52	488
594.983	462
597.446	430
599.908	380
602.369	298
604.829	270
607.289	210
609.747	214
612.205	228
614.663	214
617.119	206
619.574	238
622.029	236
624.483	260
626.936	262
629.389	296
631.84	296
634.291	302
636.741	322
639.19	320
641.639	302
644.086	248
646.533	252
648.979	218
651.424	214
653.869	218
656.313	210
658.754	198
661.196	168
663.638	164
666.078	186
668.518	164
670.957	158
673.394	162
675.831	170
678.268	146
680.703	158
683.137	172
685.571	164
688.005	168
690.437	164
692.868	156
695.299	170
697.729	156
700.159	150
702.586	178
705.014	168
707.441	190
709.866	204
712.292	208
714.716	260
717.14	238
719.563	220
721.984	208
724.406	224
726.825	200
729.246	194
731.665	198
734.082	190
736.5	224
738.916	222
741.332	222
743.746	268
746.161	302
748.574	334
750.987	316
753.398	264
755.81	272
758.219	258
760.629	222
763.037	186
765.445	182
767.852	198
770.258	192
772.664	200
775.068	204
777.472	204
779.876	218
782.278	208
784.679	214
787.08	200
789.48	192
791.879	184
794.278	198
796.675	190
799.072	172
801.467	184
803.864	188
806.258	212
808.651	202
811.044	196
813.437	198
815.828	184
818.218	184
820.608	222
822.997	258
825.385	324
827.773	480
830.16	746
832.546	1128
834.931	1110
837.315	654
839.699	390
842.081	284
844.463	260
846.844	246
849.226	252
851.606	222
853.985	248
856.363	250
858.741	220
861.117	218
863.493	200
865.868	202
868.243	182
870.616	202
872.989	184
875.36	180
877.731	186
880.102	166
882.472	184
884.841	186
887.209	176
889.577	172
891.944	156
894.31	188
896.674	176
899.039	182
901.403	174
903.766	162
906.128	172
908.49	174
910.849	174
913.209	178
915.569	166
917.927	168
920.284	178
922.641	178
924.997	172
927.353	172
929.707	194
932.061	192
934.414	190
936.765	200
939.117	208
941.469	242
943.818	240
946.167	258
948.515	340
950.863	406
953.211	524
955.556	706
957.902	836
960.246	916
962.59	870
964.933	764
967.276	626
969.617	514
971.958	434
974.298	370
976.638	298
978.976	260
981.314	234
983.651	226
985.988	220
988.323	208
990.659	198
992.992	218
995.325	194
997.658	190
999.99	200
1002.32	190
1004.65	184
1006.98	196
1009.31	184
1011.64	198
1013.97	214
1016.29	210
1018.62	214
1020.94	246
1023.27	240
1025.59	268
1027.91	260
1030.24	276
1032.56	276
1034.88	286
1037.2	282
1039.52	272
1041.84	256
1044.15	236
1046.47	220
1048.79	216
1051.1	202
1053.42	206
1055.73	186
1058.04	192
1060.36	182
1062.67	202
1064.98	184
1067.29	184
1069.6	196
1071.91	194
1074.22	190
1076.52	184
1078.83	184
1081.14	190
1083.44	194
1085.75	168
1088.05	202
1090.35	206
1092.65	196
1094.95	210
1097.26	200
1099.56	224
1101.86	252
1104.15	292
1106.45	364
1108.75	568
1111.05	802
1113.34	902
1115.64	702
1117.93	504
1120.22	384
1122.52	294
1124.81	290
1127.1	270
1129.39	254
1131.68	226
1133.97	242
1136.26	236
1138.54	248
1140.83	264
1143.12	248
1145.4	226
1147.69	216
1149.97	214
1152.25	206
1154.54	222
1156.82	250
1159.1	262
1161.38	266
1163.66	284
1165.94	264
1168.22	236
1170.49	238
1172.77	252
1175.05	254
1177.32	282
1179.6	340
1181.87	414
1184.14	542
1186.42	622
1188.69	580
1190.96	510
1193.23	450
1195.5	426
1197.77	410
1200.03	446
1202.3	482
1204.57	452
1206.83	418
1209.1	348
1211.36	282
1213.63	254
1215.89	232
1218.15	234
1220.41	252
1222.67	262
1224.93	256
1227.19	314
1229.45	328
1231.71	340
1233.97	308
1236.22	260
1238.48	248
1240.73	240
1242.99	220
1245.24	232
1247.5	222
1249.75	212
1252	222
1254.25	214
1256.5	232
1258.75	228
1261	222
1263.25	222
1265.49	236
1267.74	236
1269.99	264
1272.23	244
1274.48	252
1276.72	298
1278.96	298
1281.21	320
1283.45	330
1285.69	388
1287.93	406
1290.17	426
1292.41	472
1294.64	582
1296.88	774
1299.12	1024
1301.36	1550
1303.59	2020
1305.82	2172
1308.06	1816
1310.29	1324
1312.52	910
1314.76	718
1316.99	630
1319.22	550
1321.45	488
1323.68	478
1325.9	456
1328.13	460
1330.36	442
1332.58	404
1334.81	354
1337.04	346
1339.26	326
1341.48	312
1343.71	336
1345.93	358
1348.15	362
1350.37	370
1352.59	392
1354.81	376
1357.03	310
1359.24	310
1361.46	296
1363.68	300
1365.89	318
1368.11	330
1370.32	386
1372.54	530
1374.75	772
1376.96	962
1379.17	1046
1381.38	1020
1383.59	870
1385.8	710
1388.01	544
1390.22	372
1392.43	328
1394.63	296
1396.84	256
1399.05	252
1401.25	266
1403.45	268
1405.66	262
1407.86	274
1410.06	262
1412.26	288
1414.46	294
1416.66	324
1418.86	364
1421.06	390
1423.26	366
1425.46	388
1427.65	384
1429.85	398
1432.04	410
1434.24	460
1436.43	494
1438.62	496
1440.82	526
1443.01	458
1445.2	484
1447.39	422
1449.58	398
1451.77	400
1453.95	368
1456.14	382
1458.33	412
1460.52	384
1462.7	368
1464.89	348
1467.07	360
1469.25	360
1471.44	350
1473.62	344
1475.8	354
1477.98	354
1480.16	314
1482.34	336
1484.52	348
1486.7	306
1488.87	310
1491.05	288
1493.23	264
1495.4	262
1497.58	272
1499.75	276
1501.92	268
1504.1	296
1506.27	278
1508.44	248
1510.61	268
1512.78	278
1514.95	250
1517.12	262
1519.28	270
1521.45	262
1523.62	274
1525.78	278
1527.95	264
1530.11	266
1532.28	266
1534.44	246
1536.6	260
1538.76	260
1540.93	250
1543.09	254
1545.25	288
1547.41	276
1549.56	272
1551.72	266
1553.88	286
1556.03	290
1558.19	302
1560.35	282
1562.5	274
1564.65	300
1566.81	286
1568.96	308
1571.11	314
1573.26	324
1575.41	324
1577.56	388
1579.71	404
1581.86	416
1584.01	502
1586.15	562
1588.3	634
1590.45	728
1592.59	896
1594.74	1032
1596.88	1166
1599.02	1380
1601.17	1440
1603.31	1448
1605.45	1330
1607.59	1292
1609.73	1136
1611.87	1022
1614.01	882
1616.14	704
1618.28	616
1620.42	528
1622.55	438
1624.69	392
1626.82	346
1628.96	322
1631.09	294
1633.22	300
1635.36	264
1637.49	256
1639.62	262
1641.75	264
1643.88	250
1646	224
1648.13	244
1650.26	244
1652.39	240
1654.51	220
1656.64	240
1658.76	240
1660.89	224
1663.01	214
1665.13	218
1667.26	236
1669.38	226
1671.5	240
1673.62	204
1675.74	218
1677.86	238
1679.97	212
1682.09	220
1684.21	220
1686.33	222
1688.44	254
1690.56	260
1692.67	238
1694.78	250
1696.9	256
1699.01	236
1701.12	248
1703.23	234
1705.34	232
1707.45	236
1709.56	232
1711.67	232
1713.78	214
1715.88	222
1717.99	206
1720.1	232
1722.2	218
1724.31	212
1726.41	210
1728.51	204
1730.62	210
1732.72	214
1734.82	204
1736.92	216
1739.02	198
1741.12	212
1743.22	200
1745.32	204
1747.42	186
1749.51	206
1751.61	222
1753.7	200
1755.8	202
1757.89	210
1759.99	206
1762.08	210
1764.17	188
1766.26	216
1768.36	198
1770.45	202
1772.54	192
1774.62	192
1776.71	188
1778.8	212
1780.89	208
1782.98	214
1785.06	214
1787.15	210
1789.23	224
1791.32	208
1793.4	210
1795.48	198
1797.56	194
1799.65	214
1801.73	208
1803.81	210
1805.89	218
1807.97	200
1810.04	216
1812.12	212
1814.2	204
1816.28	196
1818.35	208
1820.43	180
1822.5	186
1824.58	202
1826.65	210
1828.72	196
1830.79	196
1832.86	196
1834.94	206
1837.01	198
1839.08	194
1841.15	200
1843.21	184
1845.28	202
1847.35	218
1849.41	216
1851.48	214
1853.55	196
1855.61	202
1857.67	196
1859.74	194
1861.8	208
1863.86	196
1865.92	200
1867.98	186
1870.05	210
1872.1	194
1874.16	214
1876.22	198
1878.28	200
1880.34	204
1882.39	202
1884.45	200
1886.5	196
1888.56	212
1890.61	206
1892.67	210
1894.72	206
1896.77	184
1898.82	204
1900.87	206
1902.92	210
1904.97	214
1907.02	190
1909.07	192
1911.12	206
1913.17	194
1915.21	200
1917.26	204
1919.3	204
1921.35	212
1923.39	214
1925.43	206
1927.48	202
1929.52	212
1931.56	208
1933.6	208
1935.64	208
1937.68	202
1939.72	206
1941.76	200
1943.8	188
1945.83	196
1947.87	218
1949.91	200
1951.94	216
1953.98	196
1956.01	212
1958.05	184
1960.08	214
1962.11	198
1964.14	202
1966.17	214
1968.2	208
1970.23	204
1972.26	224
1974.29	182
1976.32	196
1978.35	200
1980.37	214
1982.4	202
1984.43	200
1986.45	210
1988.48	198
1990.5	202
1992.52	206
1994.55	220
1996.57	222
1998.59	216
2000.61	198
2002.63	218
2004.65	220
2006.67	198
2008.69	190
2010.7	208
2012.72	200
2014.74	204
2016.75	214
2018.77	218
2020.78	202
2022.8	214
2024.81	212
2026.83	192
2028.84	204
2030.85	192
2032.86	208
2034.87	212
2036.88	202
2038.89	190
2040.9	218
2042.91	216
2044.91	218
2046.92	206
2048.93	220
2050.93	208
2052.94	218
2054.94	206
2056.95	202
2058.95	206
2060.95	210
2062.95	220
2064.96	222
2066.96	220
2068.96	216
2070.96	206
2072.96	210
2074.95	216
2076.95	208
2078.95	204
2080.95	216
2082.94	200
2084.94	212
2086.93	220
2088.93	200
2090.92	206
2092.91	202
2094.91	200
2096.9	200
2098.89	202
2100.88	186
2102.87	214
2104.86	222
2106.85	194
2108.84	214
2110.83	198
2112.81	196
2114.8	210
2116.78	182
2118.77	210
2120.75	190
2122.74	216
2124.72	218
2126.71	196
2128.69	208
2130.67	206
2132.65	186
2134.63	206
2136.61	202
2138.59	206
2140.57	214
2142.55	206
2144.53	202
2146.5	206
2148.48	214
2150.46	200
2152.43	184
2154.41	218
2156.38	212
2158.35	192
2160.33	212
2162.3	198
2164.27	194
2166.24	214
2168.21	218
2170.18	200
2172.15	212
2174.12	200
2176.09	204
2178.06	204
2180.03	204
2181.99	212
2183.96	212
2185.92	212
2187.89	212
2189.85	198
2191.82	194
2193.78	208
2195.74	186
2197.7	204
2199.67	198
2201.63	210
2203.59	208
2205.55	216
2207.51	202
2209.46	202
2211.42	200
2213.38	200
2215.34	210
2217.29	204
2219.25	222
2221.2	190
2223.16	194
2225.11	204
2227.06	206
2229.02	208
2230.97	196
2232.92	204
2234.87	206
2236.82	200
2238.77	192
2240.72	206
2242.67	186
2244.62	194
2246.57	178
2248.51	222
2250.46	198
2252.4	214
2254.35	206
2256.29	208
2258.24	200
2260.18	202
2262.13	196
2264.07	196
2266.01	206
2267.95	206
2269.89	214
2271.83	208
2273.77	198
2275.71	210
2277.65	206
2279.58	204
2281.52	208
2283.46	208
2285.4	204
2287.33	198
2289.27	208
2291.2	196
2293.13	218
2295.07	200
2297	194
2298.93	204
2300.86	198
2302.79	210
2304.72	204
2306.65	216
2308.58	226
2310.51	202
2312.44	230
2314.37	218
2316.29	228
2318.22	216
2320.15	220
2322.07	210
2324	216
2325.92	224
2327.84	208
2329.77	210
2331.69	204
2333.61	210
2335.53	184
2337.45	210
2339.37	198
2341.29	218
2343.21	198
2345.13	214
2347.05	206
2348.97	216
2350.88	210
2352.8	216
2354.71	208
2356.63	210
2358.54	204
2360.46	224
2362.37	206
2364.28	220
2366.2	198
2368.11	208
2370.02	220
2371.93	202
2373.84	224
2375.75	214
2377.66	206
2379.57	198
2381.47	216
2383.38	212
2385.29	220
2387.2	218
2389.1	210
2391.01	222
2392.91	214
2394.81	220
2396.72	210
2398.62	240
2400.52	212
2402.42	214
2404.33	196
2406.23	228
2408.13	218
2410.03	234
2411.92	228
2413.82	188
2415.72	212
2417.62	200
2419.51	214
2421.41	196
2423.31	186
2425.2	212
2427.1	188
2428.99	194
2430.88	208
2432.78	202
2434.67	212
2436.56	192
2438.45	202
2440.34	214
2442.23	192
2444.12	186
2446.01	208
2447.9	210
2449.79	198