File: Mixture_Classification/Jesse_Dataset_v2/Pure Raman/Polypropylene oxide/633nm/ps-ppo-7jan25-0,0000-map2_Y10_X02.txt
182.393	690
184.993	644
187.593	622
190.193	622
192.79	578
195.387	576
197.983	558
200.578	530
203.174	466
205.766	486
208.36	478
210.951	458
213.542	432
216.131	444
218.721	462
221.309	502
223.897	590
226.483	696
229.069	906
231.654	1116
234.238	1226
236.821	1204
239.404	1112
241.984	998
244.566	838
247.145	740
249.723	634
252.302	530
254.878	470
257.455	392
260.03	362
262.604	316
265.178	296
267.75	284
270.322	276
272.893	264
275.463	282
278.032	270
280.601	300
283.168	308
285.734	380
288.301	426
290.866	514
293.429	584
295.992	630
298.556	594
301.117	558
303.677	488
306.236	414
308.795	406
311.354	370
313.911	376
316.467	364
319.022	340
321.577	366
324.13	370
326.684	346
329.236	384
331.787	402
334.337	390
336.887	368
339.435	364
341.983	354
344.529	352
347.075	312
349.621	340
352.165	330
354.708	372
357.251	354
359.793	334
362.334	336
364.874	312
367.413	320
369.951	334
372.489	344
375.026	328
377.562	328
380.097	270
382.631	254
385.164	242
387.697	226
390.229	256
392.76	224
395.29	240
397.819	214
400.346	228
402.873	232
405.4	240
407.926	268
410.451	296
412.976	344
415.499	342
418.02	342
420.542	294
423.063	266
425.583	246
428.101	210
430.619	192
433.137	210
435.654	212
438.169	174
440.684	184
443.198	162
445.712	154
448.223	154
450.735	156
453.246	160
455.755	178
458.264	180
460.771	178
463.279	178
465.786	214
468.291	226
470.796	256
473.301	302
475.803	314
478.306	388
480.807	408
483.308	486
485.807	522
488.307	426
490.804	348
493.302	288
495.798	282
498.294	222
500.788	216
503.283	216
505.775	214
508.269	242
510.759	312
513.251	380
515.74	388
518.23	294
520.718	282
523.204	266
525.692	318
528.177	376
530.663	446
533.147	584
535.629	664
538.113	766
540.594	714
543.074	672
545.555	530
548.034	454
550.512	376
552.989	364
555.467	410
557.942	518
560.417	658
562.892	958
565.365	1592
567.838	2610
570.309	3572
572.78	3646
575.251	2624
577.72	1594
580.189	946
582.656	678
585.123	608
587.589	588
590.055	566
592.52	488
594.983	506
597.446	436
599.908	384
602.369	314
604.829	258
607.289	226
609.747	202
612.205	202
614.663	204
617.119	212
619.574	206
622.029	230
624.483	238
626.936	268
629.389	278
631.84	298
634.291	314
636.741	308
639.19	296
641.639	276
644.086	244
646.533	254
648.979	224
651.424	206
653.869	198
656.313	194
658.754	198
661.196	188
663.638	166
666.078	162
668.518	170
670.957	172
673.394	168
675.831	146
678.268	164
680.703	148
683.137	160
685.571	152
688.005	160
690.437	156
692.868	148
695.299	170
697.729	154
700.159	184
702.586	154
705.014	168
707.441	206
709.866	184
712.292	218
714.716	226
717.14	224
719.563	214
721.984	196
724.406	196
726.825	206
729.246	196
731.665	202
734.082	198
736.5	198
738.916	216
741.332	218
743.746	284
746.161	302
748.574	330
750.987	298
753.398	298
755.81	262
758.219	264
760.629	202
763.037	196
765.445	200
767.852	174
770.258	202
772.664	184
775.068	208
777.472	214
779.876	224
782.278	186
784.679	200
787.08	196
789.48	194
791.879	188
794.278	192
796.675	178
799.072	184
801.467	188
803.864	196
806.258	214
808.651	206
811.044	212
813.437	210
815.828	216
818.218	200
820.608	214
822.997	266
825.385	334
827.773	462
830.16	734
832.546	1108
834.931	1106
837.315	666
839.699	370
842.081	296
844.463	262
846.844	272
849.226	266
851.606	240
853.985	228
856.363	254
858.741	240
861.117	224
863.493	214
865.868	208
868.243	206
870.616	186
872.989	186
875.36	184
877.731	174
880.102	174
882.472	184
884.841	178
887.209	178
889.577	162
891.944	166
894.31	172
896.674	174
899.039	170
901.403	188
903.766	188
906.128	178
908.49	172
910.849	172
913.209	170
915.569	174
917.927	182
920.284	174
922.641	178
924.997	188
927.353	172
929.707	184
932.061	190
934.414	198
936.765	204
939.117	226
941.469	230
943.818	252
946.167	272
948.515	320
950.863	396
953.211	514
955.556	684
957.902	840
960.246	916
962.59	826
964.933	728
967.276	618
969.617	532
971.958	440
974.298	368
976.638	272
978.976	262
981.314	232
983.651	220
985.988	222
988.323	212
990.659	226
992.992	232
995.325	212
997.658	200
999.99	210
1002.32	190
1004.65	200
1006.98	210
1009.31	212
1011.64	210
1013.97	212
1016.29	218
1018.62	226
1020.94	230
1023.27	248
1025.59	262
1027.91	262
1030.24	280
1032.56	282
1034.88	292
1037.2	280
1039.52	284
1041.84	254
1044.15	260
1046.47	234
1048.79	230
1051.1	204
1053.42	202
1055.73	206
1058.04	188
1060.36	204
1062.67	198
1064.98	206
1067.29	208
1069.6	196
1071.91	200
1074.22	198
1076.52	196
1078.83	188
1081.14	196
1083.44	206
1085.75	198
1088.05	202
1090.35	210
1092.65	206
1094.95	212
1097.26	240
1099.56	220
1101.86	248
1104.15	272
1106.45	372
1108.75	572
1111.05	800
1113.34	902
1115.64	762
1117.93	500
1120.22	374
1122.52	314
1124.81	294
1127.1	288
1129.39	250
1131.68	268
1133.97	236
1136.26	258
1138.54	242
1140.83	256
1143.12	262
1145.4	240
1147.69	232
1149.97	214
1152.25	228
1154.54	232
1156.82	246
1159.1	270
1161.38	276
1163.66	272
1165.94	258
1168.22	236
1170.49	234
1172.77	258
1175.05	266
1177.32	300
1179.6	350
1181.87	436
1184.14	548
1186.42	634
1188.69	592
1190.96	520
1193.23	456
1195.5	426
1197.77	412
1200.03	438
1202.3	462
1204.57	462
1206.83	424
1209.1	380
1211.36	318
1213.63	268
1215.89	240
1218.15	232
1220.41	244
1222.67	254
1224.93	272
1227.19	320
1229.45	362
1231.71	334
1233.97	310
1236.22	286
1238.48	264
1240.73	244
1242.99	220
1245.24	230
1247.5	228
1249.75	208
1252	232
1254.25	232
1256.5	216
1258.75	244
1261	224
1263.25	246
1265.49	268
1267.74	242
1269.99	260
1272.23	238
1274.48	262
1276.72	278
1278.96	304
1281.21	346
1283.45	336
1285.69	386
1287.93	398
1290.17	412
1292.41	502
1294.64	580
1296.88	734
1299.12	1040
1301.36	1538
1303.59	1972
1305.82	2170
1308.06	1830
1310.29	1288
1312.52	974
1314.76	754
1316.99	616
1319.22	528
1321.45	456
1323.68	486
1325.9	478
1328.13	474
1330.36	454
1332.58	414
1334.81	370
1337.04	350
1339.26	326
1341.48	322
1343.71	346
1345.93	342
1348.15	394
1350.37	406
1352.59	374
1354.81	366
1357.03	334
1359.24	332
1361.46	322
1363.68	284
1365.89	312
1368.11	344
1370.32	394
1372.54	520
1374.75	716
1376.96	920
1379.17	1044
1381.38	988
1383.59	884
1385.8	716
1388.01	508
1390.22	400
1392.43	322
1394.63	308
1396.84	294
1399.05	270
1401.25	280
1403.45	276
1405.66	266
1407.86	272
1410.06	276
1412.26	306
1414.46	314
1416.66	314
1418.86	350
1421.06	356
1423.26	402
1425.46	404
1427.65	406
1429.85	438
1432.04	442
1434.24	432
1436.43	490
1438.62	496
1440.82	502
1443.01	506
1445.2	464
1447.39	470
1449.58	438
1451.77	396
1453.95	394
1456.14	378
1458.33	390
1460.52	382
1462.7	372
1464.89	370
1467.07	346
1469.25	366
1471.44	386
1473.62	366
1475.8	366
1477.98	372
1480.16	358
1482.34	330
1484.52	328
1486.7	312
1488.87	298
1491.05	296
1493.23	302
1495.4	296
1497.58	264
1499.75	264
1501.92	284
1504.1	272
1506.27	286
1508.44	268
1510.61	294
1512.78	280
1514.95	270
1517.12	286
1519.28	270
1521.45	276
1523.62	258
1525.78	286
1527.95	272
1530.11	256
1532.28	280
1534.44	282
1536.6	260
1538.76	284
1540.93	274
1543.09	276
1545.25	282
1547.41	288
1549.56	298
1551.72	282
1553.88	288
1556.03	296
1558.19	286
1560.35	302
1562.5	298
1564.65	310
1566.81	308
1568.96	330
1571.11	324
1573.26	334
1575.41	356
1577.56	384
1579.71	424
1581.86	452
1584.01	484
1586.15	576
1588.3	650
1590.45	736
1592.59	870
1594.74	1050
1596.88	1188
1599.02	1346
1601.17	1442
1603.31	1476
1605.45	1376
1607.59	1236
1609.73	1142
1611.87	1004
1614.01	872
1616.14	730
1618.28	632
1620.42	528
1622.55	422
1624.69	392
1626.82	354
1628.96	334
1631.09	316
1633.22	304
1635.36	278
1637.49	290
1639.62	266
1641.75	264
1643.88	262
1646	246
1648.13	252
1650.26	254
1652.39	240
1654.51	244
1656.64	250
1658.76	242
1660.89	244
1663.01	248
1665.13	238
1667.26	230
1669.38	240
1671.5	244
1673.62	238
1675.74	226
1677.86	236
1679.97	232
1682.09	242
1684.21	250
1686.33	248
1688.44	238
1690.56	248
1692.67	262
1694.78	258
1696.9	238
1699.01	252
1701.12	236
1703.23	244
1705.34	232
1707.45	232
1709.56	228
1711.67	234
1713.78	230
1715.88	224
1717.99	254
1720.1	232
1722.2	230
1724.31	218
1726.41	218
1728.51	212
1730.62	230
1732.72	216
1734.82	236
1736.92	194
1739.02	218
1741.12	210
1743.22	242
1745.32	230
1747.42	222
1749.51	226
1751.61	216
1753.7	230
1755.8	222
1757.89	216
1759.99	222
1762.08	218
1764.17	210
1766.26	214
1768.36	214
1770.45	204
1772.54	194
1774.62	218
1776.71	220
1778.8	232
1780.89	240
1782.98	204
1785.06	208
1787.15	218
1789.23	216
1791.32	222
1793.4	240
1795.48	210
1797.56	210
1799.65	210
1801.73	224
1803.81	200
1805.89	214
1807.97	226
1810.04	222
1812.12	212
1814.2	206
1816.28	218
1818.35	204
1820.43	210
1822.5	214
1824.58	204
1826.65	210
1828.72	206
1830.79	224
1832.86	212
1834.94	200
1837.01	204
1839.08	206
1841.15	218
1843.21	196
1845.28	212
1847.35	202
1849.41	218
1851.48	202
1853.55	226
1855.61	200
1857.67	218
1859.74	222
1861.8	212
1863.86	214
1865.92	206
1867.98	206
1870.05	216
1872.1	218
1874.16	224
1876.22	206
1878.28	204
1880.34	238
1882.39	190
1884.45	218
1886.5	212
1888.56	208
1890.61	210
1892.67	214
1894.72	228
1896.77	212
1898.82	214
1900.87	212
1902.92	234
1904.97	206
1907.02	210
1909.07	208
1911.12	218
1913.17	222
1915.21	196
1917.26	218
1919.3	210
1921.35	204
1923.39	226
1925.43	210
1927.48	228
1929.52	212
1931.56	210
1933.6	234
1935.64	220
1937.68	208
1939.72	212
1941.76	222
1943.8	214
1945.83	204
1947.87	210
1949.91	210
1951.94	186
1953.98	208
1956.01	222
1958.05	198
1960.08	214
1962.11	206
1964.14	206
1966.17	220
1968.2	232
1970.23	206
1972.26	204
1974.29	198
1976.32	190
1978.35	206
1980.37	206
1982.4	202
1984.43	214
1986.45	218
1988.48	202
1990.5	206
1992.52	206
1994.55	228
1996.57	218
1998.59	216
2000.61	208
2002.63	202
2004.65	204
2006.67	184
2008.69	222
2010.7	196
2012.72	220
2014.74	206
2016.75	210
2018.77	214
2020.78	204
2022.8	198
2024.81	214
2026.83	224
2028.84	218
2030.85	222
2032.86	222
2034.87	200
2036.88	212
2038.89	218
2040.9	222
2042.91	220
2044.91	222
2046.92	212
2048.93	202
2050.93	216
2052.94	228
2054.94	216
2056.95	214
2058.95	212
2060.95	212
2062.95	198
2064.96	206
2066.96	216
2068.96	198
2070.96	200
2072.96	216
2074.95	212
2076.95	188
2078.95	228
2080.95	208
2082.94	200
2084.94	208
2086.93	196
2088.93	214
2090.92	208
2092.91	206
2094.91	204
2096.9	218
2098.89	210
2100.88	216
2102.87	198
2104.86	218
2106.85	204
2108.84	218
2110.83	228
2112.81	210
2114.8	202
2116.78	202
2118.77	214
2120.75	218
2122.74	208
2124.72	228
2126.71	198
2128.69	200
2130.67	208
2132.65	198
2134.63	226
2136.61	202
2138.59	202
2140.57	218
2142.55	214
2144.53	204
2146.5	216
2148.48	216
2150.46	200
2152.43	212
2154.41	202
2156.38	208
2158.35	216
2160.33	210
2162.3	194
2164.27	206
2166.24	224
2168.21	212
2170.18	208
2172.15	214
2174.12	208
2176.09	208
2178.06	202
2180.03	220
2181.99	224
2183.96	206
2185.92	202
2187.89	202
2189.85	210
2191.82	186
2193.78	206
2195.74	216
2197.7	212
2199.67	210
2201.63	206
2203.59	198
2205.55	192
2207.51	218
2209.46	200
2211.42	206
2213.38	184
2215.34	222
2217.29	192
2219.25	214
2221.2	200
2223.16	212
2225.11	214
2227.06	212
2229.02	224
2230.97	214
2232.92	214
2234.87	218
2236.82	206
2238.77	220
2240.72	220
2242.67	200
2244.62	208
2246.57	206
2248.51	230
2250.46	206
2252.4	204
2254.35	212
2256.29	206
2258.24	206
2260.18	228
2262.13	218
2264.07	196
2266.01	216
2267.95	212
2269.89	212
2271.83	206
2273.77	196
2275.71	210
2277.65	218
2279.58	212
2281.52	212
2283.46	206
2285.4	202
2287.33	202
2289.27	216
2291.2	210
2293.13	220
2295.07	214
2297	222
2298.93	198
2300.86	208
2302.79	216
2304.72	236
2306.65	214
2308.58	222
2310.51	220
2312.44	208
2314.37	216
2316.29	228
2318.22	216
2320.15	224
2322.07	216
2324	218
2325.92	234
2327.84	214
2329.77	218
2331.69	230
2333.61	234
2335.53	242
2337.45	204
2339.37	216
2341.29	216
2343.21	224
2345.13	216
2347.05	212
2348.97	220
2350.88	194
2352.8	212
2354.71	206
2356.63	218
2358.54	224
2360.46	198
2362.37	202
2364.28	220
2366.2	212
2368.11	212
2370.02	226
2371.93	214
2373.84	212
2375.75	216
2377.66	216
2379.57	208
2381.47	220
2383.38	220
2385.29	218
2387.2	224
2389.1	228
2391.01	222
2392.91	218
2394.81	204
2396.72	218
2398.62	216
2400.52	216
2402.42	236
2404.33	198
2406.23	238
2408.13	214
2410.03	226
2411.92	218
2413.82	214
2415.72	194
2417.62	216
2419.51	210
2421.41	218
2423.31	204
2425.2	208
2427.1	214
2428.99	214
2430.88	210
2432.78	208
2434.67	194
2436.56	214
2438.45	204
2440.34	216
2442.23	230
2444.12	220
2446.01	206
2447.9	220
2449.79	204