File: Mixture_Classification/Jesse_Dataset_v2/Pure Raman/Polypropylene oxide/633nm/ps-ppo-7jan25-0,0000-map2_Y10_X04.txt
182.393	656
184.993	648
187.593	606
190.193	586
192.79	568
195.387	574
197.983	508
200.578	510
203.174	488
205.766	506
208.36	460
210.951	452
213.542	432
216.131	424
218.721	462
221.309	488
223.897	584
226.483	688
229.069	888
231.654	1130
234.238	1228
236.821	1188
239.404	1106
241.984	982
244.566	840
247.145	712
249.723	602
252.302	516
254.878	478
257.455	394
260.03	352
262.604	320
265.178	304
267.75	260
270.322	278
272.893	274
275.463	262
278.032	276
280.601	284
283.168	308
285.734	386
288.301	428
290.866	506
293.429	588
295.992	612
298.556	574
301.117	546
303.677	494
306.236	460
308.795	418
311.354	356
313.911	382
316.467	348
319.022	344
321.577	342
324.13	320
326.684	356
329.236	402
331.787	386
334.337	412
336.887	406
339.435	364
341.983	344
344.529	360
347.075	338
349.621	328
352.165	344
354.708	358
357.251	338
359.793	348
362.334	308
364.874	314
367.413	304
369.951	318
372.489	334
375.026	324
377.562	306
380.097	266
382.631	262
385.164	254
387.697	240
390.229	230
392.76	226
395.29	234
397.819	214
400.346	224
402.873	236
405.4	254
407.926	262
410.451	298
412.976	324
415.499	344
418.02	330
420.542	294
423.063	272
425.583	244
428.101	244
430.619	206
433.137	186
435.654	176
438.169	194
440.684	180
443.198	164
445.712	168
448.223	166
450.735	180
453.246	172
455.755	170
458.264	174
460.771	182
463.279	180
465.786	200
468.291	226
470.796	242
473.301	304
475.803	338
478.306	378
480.807	446
483.308	476
485.807	514
488.307	438
490.804	330
493.302	316
495.798	282
498.294	224
500.788	204
503.283	212
505.775	246
508.269	246
510.759	336
513.251	386
515.74	380
518.23	312
520.718	274
523.204	282
525.692	310
528.177	378
530.663	462
533.147	524
535.629	660
538.113	748
540.594	712
543.074	704
545.555	566
548.034	448
550.512	382
552.989	374
555.467	408
557.942	472
560.417	680
562.892	958
565.365	1518
567.838	2484
570.309	3568
572.78	3624
575.251	2584
577.72	1554
580.189	926
582.656	708
585.123	656
587.589	570
590.055	532
592.52	498
594.983	498
597.446	442
599.908	376
602.369	324
604.829	292
607.289	228
609.747	214
612.205	202
614.663	206
617.119	202
619.574	230
622.029	220
624.483	234
626.936	266
629.389	254
631.84	294
634.291	328
636.741	308
639.19	308
641.639	300
644.086	258
646.533	248
648.979	222
651.424	220
653.869	204
656.313	212
658.754	184
661.196	190
663.638	176
666.078	152
668.518	182
670.957	170
673.394	164
675.831	170
678.268	152
680.703	152
683.137	170
685.571	182
688.005	166
690.437	170
692.868	146
695.299	142
697.729	162
700.159	170
702.586	172
705.014	170
707.441	186
709.866	210
712.292	220
714.716	234
717.14	220
719.563	226
721.984	216
724.406	202
726.825	184
729.246	194
731.665	194
734.082	206
736.5	212
738.916	234
741.332	238
743.746	272
746.161	316
748.574	324
750.987	300
753.398	308
755.81	268
758.219	246
760.629	208
763.037	202
765.445	214
767.852	190
770.258	178
772.664	202
775.068	194
777.472	212
779.876	232
782.278	218
784.679	200
787.08	204
789.48	194
791.879	192
794.278	196
796.675	172
799.072	190
801.467	200
803.864	198
806.258	206
808.651	222
811.044	204
813.437	206
815.828	212
818.218	218
820.608	236
822.997	268
825.385	342
827.773	460
830.16	752
832.546	1184
834.931	1086
837.315	688
839.699	390
842.081	292
844.463	256
846.844	252
849.226	248
851.606	226
853.985	254
856.363	244
858.741	244
861.117	222
863.493	212
865.868	202
868.243	192
870.616	184
872.989	190
875.36	188
877.731	200
880.102	206
882.472	196
884.841	180
887.209	196
889.577	182
891.944	184
894.31	172
896.674	166
899.039	188
901.403	176
903.766	164
906.128	182
908.49	186
910.849	172
913.209	160
915.569	172
917.927	180
920.284	172
922.641	164
924.997	174
927.353	188
929.707	172
932.061	180
934.414	180
936.765	202
939.117	206
941.469	222
943.818	254
946.167	274
948.515	322
950.863	418
953.211	534
955.556	666
957.902	828
960.246	906
962.59	890
964.933	748
967.276	624
969.617	506
971.958	460
974.298	376
976.638	288
978.976	244
981.314	254
983.651	236
985.988	218
988.323	220
990.659	222
992.992	202
995.325	202
997.658	198
999.99	184
1002.32	200
1004.65	182
1006.98	206
1009.31	180
1011.64	196
1013.97	194
1016.29	222
1018.62	200
1020.94	230
1023.27	242
1025.59	250
1027.91	234
1030.24	260
1032.56	262
1034.88	268
1037.2	282
1039.52	280
1041.84	252
1044.15	246
1046.47	224
1048.79	210
1051.1	210
1053.42	212
1055.73	192
1058.04	190
1060.36	202
1062.67	200
1064.98	186
1067.29	192
1069.6	222
1071.91	198
1074.22	200
1076.52	174
1078.83	194
1081.14	194
1083.44	206
1085.75	192
1088.05	220
1090.35	196
1092.65	208
1094.95	210
1097.26	234
1099.56	228
1101.86	258
1104.15	264
1106.45	328
1108.75	558
1111.05	784
1113.34	906
1115.64	706
1117.93	492
1120.22	384
1122.52	314
1124.81	276
1127.1	268
1129.39	238
1131.68	242
1133.97	224
1136.26	234
1138.54	244
1140.83	258
1143.12	246
1145.4	214
1147.69	220
1149.97	200
1152.25	208
1154.54	214
1156.82	248
1159.1	242
1161.38	272
1163.66	266
1165.94	274
1168.22	260
1170.49	242
1172.77	248
1175.05	252
1177.32	280
1179.6	316
1181.87	420
1184.14	528
1186.42	628
1188.69	562
1190.96	502
1193.23	432
1195.5	410
1197.77	432
1200.03	474
1202.3	448
1204.57	444
1206.83	406
1209.1	364
1211.36	272
1213.63	254
1215.89	260
1218.15	248
1220.41	220
1222.67	242
1224.93	286
1227.19	292
1229.45	346
1231.71	336
1233.97	304
1236.22	254
1238.48	234
1240.73	230
1242.99	200
1245.24	218
1247.5	228
1249.75	220
1252	220
1254.25	208
1256.5	218
1258.75	218
1261	218
1263.25	222
1265.49	244
1267.74	226
1269.99	242
1272.23	252
1274.48	248
1276.72	272
1278.96	296
1281.21	312
1283.45	342
1285.69	386
1287.93	420
1290.17	432
1292.41	488
1294.64	572
1296.88	766
1299.12	1044
1301.36	1514
1303.59	1998
1305.82	2114
1308.06	1848
1310.29	1304
1312.52	934
1314.76	746
1316.99	620
1319.22	546
1321.45	532
1323.68	430
1325.9	448
1328.13	464
1330.36	420
1332.58	402
1334.81	374
1337.04	352
1339.26	336
1341.48	316
1343.71	332
1345.93	362
1348.15	348
1350.37	386
1352.59	380
1354.81	342
1357.03	334
1359.24	326
1361.46	304
1363.68	324
1365.89	316
1368.11	332
1370.32	400
1372.54	490
1374.75	710
1376.96	948
1379.17	1058
1381.38	990
1383.59	918
1385.8	694
1388.01	488
1390.22	408
1392.43	326
1394.63	276
1396.84	266
1399.05	256
1401.25	272
1403.45	250
1405.66	256
1407.86	272
1410.06	276
1412.26	290
1414.46	292
1416.66	296
1418.86	342
1421.06	378
1423.26	348
1425.46	394
1427.65	414
1429.85	408
1432.04	436
1434.24	460
1436.43	498
1438.62	474
1440.82	484
1443.01	474
1445.2	460
1447.39	436
1449.58	430
1451.77	402
1453.95	374
1456.14	356
1458.33	374
1460.52	356
1462.7	368
1464.89	374
1467.07	362
1469.25	364
1471.44	368
1473.62	342
1475.8	346
1477.98	346
1480.16	342
1482.34	328
1484.52	322
1486.7	308
1488.87	288
1491.05	284
1493.23	294
1495.4	286
1497.58	272
1499.75	280
1501.92	266
1504.1	266
1506.27	276
1508.44	270
1510.61	266
1512.78	272
1514.95	276
1517.12	260
1519.28	280
1521.45	260
1523.62	264
1525.78	262
1527.95	258
1530.11	266
1532.28	252
1534.44	268
1536.6	266
1538.76	256
1540.93	262
1543.09	272
1545.25	282
1547.41	270
1549.56	262
1551.72	266
1553.88	278
1556.03	290
1558.19	280
1560.35	304
1562.5	280
1564.65	302
1566.81	310
1568.96	276
1571.11	318
1573.26	340
1575.41	364
1577.56	414
1579.71	406
1581.86	418
1584.01	488
1586.15	560
1588.3	622
1590.45	750
1592.59	884
1594.74	1024
1596.88	1174
1599.02	1356
1601.17	1406
1603.31	1462
1605.45	1392
1607.59	1260
1609.73	1104
1611.87	998
1614.01	832
1616.14	738
1618.28	628
1620.42	514
1622.55	444
1624.69	382
1626.82	344
1628.96	326
1631.09	320
1633.22	278
1635.36	266
1637.49	264
1639.62	254
1641.75	258
1643.88	266
1646	240
1648.13	226
1650.26	252
1652.39	228
1654.51	234
1656.64	228
1658.76	248
1660.89	230
1663.01	222
1665.13	248
1667.26	220
1669.38	224
1671.5	230
1673.62	234
1675.74	234
1677.86	230
1679.97	226
1682.09	228
1684.21	218
1686.33	238
1688.44	234
1690.56	246
1692.67	248
1694.78	242
1696.9	242
1699.01	234
1701.12	240
1703.23	234
1705.34	242
1707.45	238
1709.56	226
1711.67	228
1713.78	224
1715.88	216
1717.99	226
1720.1	220
1722.2	212
1724.31	222
1726.41	208
1728.51	216
1730.62	208
1732.72	196
1734.82	220
1736.92	212
1739.02	196
1741.12	202
1743.22	222
1745.32	204
1747.42	210
1749.51	216
1751.61	216
1753.7	216
1755.8	196
1757.89	210
1759.99	206
1762.08	208
1764.17	200
1766.26	208
1768.36	214
1770.45	196
1772.54	192
1774.62	206
1776.71	218
1778.8	206
1780.89	216
1782.98	204
1785.06	194
1787.15	210
1789.23	202
1791.32	206
1793.4	224
1795.48	216
1797.56	196
1799.65	198
1801.73	204
1803.81	202
1805.89	194
1807.97	180
1810.04	200
1812.12	200
1814.2	200
1816.28	198
1818.35	204
1820.43	198
1822.5	208
1824.58	212
1826.65	204
1828.72	202
1830.79	206
1832.86	218
1834.94	212
1837.01	194
1839.08	216
1841.15	188
1843.21	220
1845.28	226
1847.35	224
1849.41	226
1851.48	232
1853.55	196
1855.61	206
1857.67	200
1859.74	228
1861.8	208
1863.86	190
1865.92	206
1867.98	202
1870.05	216
1872.1	208
1874.16	198
1876.22	214
1878.28	212
1880.34	196
1882.39	200
1884.45	212
1886.5	196
1888.56	224
1890.61	214
1892.67	216
1894.72	202
1896.77	216
1898.82	208
1900.87	206
1902.92	208
1904.97	194
1907.02	202
1909.07	198
1911.12	216
1913.17	222
1915.21	216
1917.26	204
1919.3	210
1921.35	206
1923.39	220
1925.43	216
1927.48	208
1929.52	212
1931.56	196
1933.6	208
1935.64	224
1937.68	194
1939.72	196
1941.76	210
1943.8	214
1945.83	202
1947.87	210
1949.91	210
1951.94	212
1953.98	200
1956.01	206
1958.05	200
1960.08	202
1962.11	210
1964.14	194
1966.17	204
1968.2	216
1970.23	212
1972.26	198
1974.29	202
1976.32	228
1978.35	206
1980.37	192
1982.4	192
1984.43	214
1986.45	196
1988.48	214
1990.5	192
1992.52	200
1994.55	186
1996.57	228
1998.59	212
2000.61	196
2002.63	212
2004.65	204
2006.67	206
2008.69	216
2010.7	214
2012.72	184
2014.74	202
2016.75	216
2018.77	204
2020.78	218
2022.8	214
2024.81	194
2026.83	226
2028.84	208
2030.85	206
2032.86	202
2034.87	206
2036.88	202
2038.89	204
2040.9	186
2042.91	210
2044.91	228
2046.92	196
2048.93	212
2050.93	202
2052.94	208
2054.94	212
2056.95	198
2058.95	204
2060.95	212
2062.95	208
2064.96	206
2066.96	220
2068.96	200
2070.96	198
2072.96	192
2074.95	214
2076.95	212
2078.95	212
2080.95	202
2082.94	184
2084.94	194
2086.93	194
2088.93	200
2090.92	186
2092.91	208
2094.91	198
2096.9	210
2098.89	208
2100.88	216
2102.87	204
2104.86	182
2106.85	218
2108.84	202
2110.83	198
2112.81	210
2114.8	198
2116.78	194
2118.77	194
2120.75	214
2122.74	192
2124.72	226
2126.71	196
2128.69	202
2130.67	202
2132.65	212
2134.63	206
2136.61	184
2138.59	202
2140.57	196
2142.55	198
2144.53	204
2146.5	200
2148.48	216
2150.46	214
2152.43	196
2154.41	204
2156.38	218
2158.35	214
2160.33	210
2162.3	202
2164.27	198
2166.24	216
2168.21	198
2170.18	218
2172.15	192
2174.12	218
2176.09	188
2178.06	208
2180.03	202
2181.99	212
2183.96	206
2185.92	218
2187.89	198
2189.85	198
2191.82	214
2193.78	200
2195.74	212
2197.7	222
2199.67	182
2201.63	198
2203.59	200
2205.55	198
2207.51	202
2209.46	202
2211.42	196
2213.38	214
2215.34	198
2217.29	196
2219.25	208
2221.2	206
2223.16	194
2225.11	206
2227.06	196
2229.02	202
2230.97	186
2232.92	226
2234.87	216
2236.82	222
2238.77	196
2240.72	216
2242.67	202
2244.62	200
2246.57	200
2248.51	214
2250.46	214
2252.4	208
2254.35	202
2256.29	202
2258.24	200
2260.18	220
2262.13	200
2264.07	206
2266.01	212
2267.95	210
2269.89	220
2271.83	206
2273.77	210
2275.71	208
2277.65	208
2279.58	216
2281.52	210
2283.46	196
2285.4	204
2287.33	208
2289.27	208
2291.2	204
2293.13	216
2295.07	194
2297	234
2298.93	214
2300.86	198
2302.79	206
2304.72	214
2306.65	192
2308.58	228
2310.51	196
2312.44	228
2314.37	214
2316.29	222
2318.22	226
2320.15	198
2322.07	212
2324	210
2325.92	236
2327.84	212
2329.77	234
2331.69	212
2333.61	222
2335.53	220
2337.45	214
2339.37	206
2341.29	200
2343.21	216
2345.13	204
2347.05	208
2348.97	198
2350.88	204
2352.8	190
2354.71	184
2356.63	208
2358.54	208
2360.46	198
2362.37	194
2364.28	198
2366.2	202
2368.11	210
2370.02	204
2371.93	202
2373.84	208
2375.75	208
2377.66	210
2379.57	194
2381.47	208
2383.38	218
2385.29	210
2387.2	222
2389.1	216
2391.01	216
2392.91	188
2394.81	196
2396.72	220
2398.62	210
2400.52	210
2402.42	214
2404.33	222
2406.23	218
2408.13	218
2410.03	204
2411.92	218
2413.82	210
2415.72	208
2417.62	206
2419.51	216
2421.41	202
2423.31	190
2425.2	210
2427.1	210
2428.99	204
2430.88	204
2432.78	220
2434.67	198
2436.56	200
2438.45	218
2440.34	214
2442.23	210
2444.12	192
2446.01	192
2447.9	200
2449.79	220