File: Mixture_Classification/Jesse_Dataset_v2/Pure Raman/Polypropylene oxide/633nm/ps-ppo-7jan25-0,0000-map2_Y03_X01.txt
182.393	714
184.993	704
187.593	650
190.193	638
192.79	600
195.387	602
197.983	568
200.578	536
203.174	508
205.766	520
208.36	486
210.951	496
213.542	472
216.131	472
218.721	478
221.309	506
223.897	614
226.483	752
229.069	964
231.654	1166
234.238	1340
236.821	1254
239.404	1174
241.984	1038
244.566	910
247.145	784
249.723	656
252.302	540
254.878	472
257.455	422
260.03	400
262.604	342
265.178	336
267.75	328
270.322	300
272.893	272
275.463	304
278.032	304
280.601	328
283.168	332
285.734	420
288.301	468
290.866	544
293.429	620
295.992	642
298.556	628
301.117	550
303.677	544
306.236	462
308.795	448
311.354	428
313.911	384
316.467	392
319.022	382
321.577	394
324.13	390
326.684	380
329.236	386
331.787	392
334.337	384
336.887	416
339.435	384
341.983	376
344.529	368
347.075	352
349.621	366
352.165	388
354.708	384
357.251	358
359.793	340
362.334	334
364.874	350
367.413	352
369.951	368
372.489	364
375.026	362
377.562	330
380.097	282
382.631	280
385.164	268
387.697	256
390.229	236
392.76	242
395.29	260
397.819	238
400.346	250
402.873	252
405.4	280
407.926	294
410.451	324
412.976	374
415.499	358
418.02	364
420.542	314
423.063	288
425.583	254
428.101	236
430.619	220
433.137	202
435.654	204
438.169	214
440.684	188
443.198	190
445.712	190
448.223	172
450.735	178
453.246	194
455.755	194
458.264	188
460.771	204
463.279	206
465.786	226
468.291	238
470.796	284
473.301	312
475.803	386
478.306	406
480.807	440
483.308	480
485.807	514
488.307	458
490.804	382
493.302	328
495.798	254
498.294	254
500.788	238
503.283	248
505.775	246
508.269	282
510.759	328
513.251	398
515.74	388
518.23	328
520.718	316
523.204	326
525.692	344
528.177	392
530.663	502
533.147	608
535.629	736
538.113	778
540.594	818
543.074	732
545.555	558
548.034	448
550.512	402
552.989	394
555.467	426
557.942	526
560.417	712
562.892	1072
565.365	1676
567.838	2754
570.309	3726
572.78	3790
575.251	2656
577.72	1546
580.189	912
582.656	702
585.123	624
587.589	614
590.055	572
592.52	530
594.983	492
597.446	466
599.908	408
602.369	360
604.829	276
607.289	244
609.747	228
612.205	224
614.663	224
617.119	232
619.574	240
622.029	248
624.483	284
626.936	280
629.389	292
631.84	330
634.291	352
636.741	346
639.19	336
641.639	300
644.086	296
646.533	262
648.979	244
651.424	242
653.869	228
656.313	210
658.754	208
661.196	214
663.638	200
666.078	186
668.518	184
670.957	182
673.394	180
675.831	174
678.268	182
680.703	186
683.137	180
685.571	176
688.005	174
690.437	194
692.868	194
695.299	188
697.729	178
700.159	176
702.586	202
705.014	198
707.441	210
709.866	220
712.292	236
714.716	272
717.14	256
719.563	226
721.984	210
724.406	196
726.825	222
729.246	194
731.665	212
734.082	204
736.5	230
738.916	242
741.332	258
743.746	290
746.161	342
748.574	342
750.987	320
753.398	302
755.81	308
758.219	260
760.629	232
763.037	220
765.445	212
767.852	202
770.258	216
772.664	200
775.068	220
777.472	222
779.876	248
782.278	216
784.679	220
787.08	214
789.48	220
791.879	216
794.278	210
796.675	206
799.072	212
801.467	188
803.864	206
806.258	216
808.651	218
811.044	214
813.437	236
815.828	218
818.218	244
820.608	244
822.997	284
825.385	356
827.773	512
830.16	826
832.546	1188
834.931	1124
837.315	676
839.699	418
842.081	322
844.463	298
846.844	284
849.226	288
851.606	288
853.985	234
856.363	266
858.741	246
861.117	248
863.493	228
865.868	214
868.243	212
870.616	218
872.989	202
875.36	198
877.731	204
880.102	226
882.472	200
884.841	194
887.209	204
889.577	192
891.944	192
894.31	186
896.674	202
899.039	196
901.403	198
903.766	192
906.128	202
908.49	184
910.849	188
913.209	186
915.569	186
917.927	190
920.284	186
922.641	196
924.997	196
927.353	192
929.707	202
932.061	210
934.414	216
936.765	216
939.117	232
941.469	248
943.818	278
946.167	310
948.515	348
950.863	446
953.211	580
955.556	706
957.902	876
960.246	978
962.59	890
964.933	810
967.276	634
969.617	544
971.958	472
974.298	378
976.638	284
978.976	290
981.314	244
983.651	240
985.988	228
988.323	242
990.659	246
992.992	240
995.325	222
997.658	236
999.99	214
1002.32	208
1004.65	226
1006.98	214
1009.31	218
1011.64	216
1013.97	228
1016.29	238
1018.62	236
1020.94	268
1023.27	278
1025.59	246
1027.91	262
1030.24	304
1032.56	298
1034.88	298
1037.2	298
1039.52	278
1041.84	276
1044.15	276
1046.47	262
1048.79	238
1051.1	230
1053.42	240
1055.73	218
1058.04	224
1060.36	240
1062.67	232
1064.98	214
1067.29	208
1069.6	220
1071.91	230
1074.22	228
1076.52	214
1078.83	206
1081.14	232
1083.44	214
1085.75	198
1088.05	236
1090.35	220
1092.65	220
1094.95	234
1097.26	220
1099.56	234
1101.86	268
1104.15	320
1106.45	362
1108.75	564
1111.05	832
1113.34	984
1115.64	742
1117.93	516
1120.22	414
1122.52	326
1124.81	316
1127.1	288
1129.39	264
1131.68	264
1133.97	274
1136.26	250
1138.54	270
1140.83	252
1143.12	280
1145.4	242
1147.69	226
1149.97	254
1152.25	230
1154.54	224
1156.82	254
1159.1	272
1161.38	290
1163.66	298
1165.94	278
1168.22	266
1170.49	234
1172.77	288
1175.05	304
1177.32	298
1179.6	380
1181.87	466
1184.14	608
1186.42	662
1188.69	628
1190.96	516
1193.23	426
1195.5	468
1197.77	444
1200.03	458
1202.3	486
1204.57	504
1206.83	430
1209.1	368
1211.36	304
1213.63	264
1215.89	268
1218.15	258
1220.41	260
1222.67	266
1224.93	292
1227.19	342
1229.45	346
1231.71	380
1233.97	314
1236.22	294
1238.48	270
1240.73	254
1242.99	248
1245.24	250
1247.5	244
1249.75	250
1252	224
1254.25	224
1256.5	264
1258.75	242
1261	252
1263.25	258
1265.49	274
1267.74	278
1269.99	250
1272.23	292
1274.48	276
1276.72	282
1278.96	326
1281.21	338
1283.45	354
1285.69	380
1287.93	432
1290.17	452
1292.41	502
1294.64	622
1296.88	824
1299.12	1144
1301.36	1592
1303.59	2032
1305.82	2222
1308.06	1874
1310.29	1368
1312.52	946
1314.76	778
1316.99	662
1319.22	600
1321.45	528
1323.68	504
1325.9	474
1328.13	502
1330.36	456
1332.58	438
1334.81	364
1337.04	332
1339.26	370
1341.48	350
1343.71	356
1345.93	384
1348.15	414
1350.37	402
1352.59	402
1354.81	396
1357.03	370
1359.24	354
1361.46	308
1363.68	318
1365.89	344
1368.11	364
1370.32	430
1372.54	546
1374.75	788
1376.96	1016
1379.17	1070
1381.38	1046
1383.59	918
1385.8	718
1388.01	518
1390.22	426
1392.43	358
1394.63	318
1396.84	318
1399.05	302
1401.25	286
1403.45	316
1405.66	284
1407.86	286
1410.06	304
1412.26	324
1414.46	312
1416.66	374
1418.86	372
1421.06	356
1423.26	394
1425.46	432
1427.65	450
1429.85	430
1432.04	494
1434.24	478
1436.43	520
1438.62	536
1440.82	528
1443.01	504
1445.2	510
1447.39	452
1449.58	468
1451.77	388
1453.95	430
1456.14	406
1458.33	412
1460.52	404
1462.7	402
1464.89	390
1467.07	400
1469.25	362
1471.44	398
1473.62	358
1475.8	388
1477.98	364
1480.16	376
1482.34	376
1484.52	332
1486.7	326
1488.87	320
1491.05	292
1493.23	294
1495.4	310
1497.58	304
1499.75	310
1501.92	308
1504.1	296
1506.27	290
1508.44	302
1510.61	298
1512.78	302
1514.95	292
1517.12	286
1519.28	270
1521.45	292
1523.62	304
1525.78	302
1527.95	300
1530.11	306
1532.28	292
1534.44	294
1536.6	268
1538.76	306
1540.93	304
1543.09	294
1545.25	282
1547.41	308
1549.56	304
1551.72	278
1553.88	304
1556.03	310
1558.19	300
1560.35	302
1562.5	302
1564.65	330
1566.81	316
1568.96	334
1571.11	346
1573.26	350
1575.41	380
1577.56	416
1579.71	428
1581.86	474
1584.01	554
1586.15	576
1588.3	682
1590.45	842
1592.59	908
1594.74	1078
1596.88	1204
1599.02	1414
1601.17	1464
1603.31	1462
1605.45	1446
1607.59	1288
1609.73	1190
1611.87	1010
1614.01	878
1616.14	782
1618.28	624
1620.42	534
1622.55	472
1624.69	414
1626.82	370
1628.96	322
1631.09	348
1633.22	330
1635.36	312
1637.49	286
1639.62	282
1641.75	272
1643.88	256
1646	260
1648.13	256
1650.26	262
1652.39	254
1654.51	248
1656.64	252
1658.76	258
1660.89	260
1663.01	246
1665.13	250
1667.26	244
1669.38	242
1671.5	238
1673.62	248
1675.74	238
1677.86	254
1679.97	236
1682.09	244
1684.21	260
1686.33	250
1688.44	248
1690.56	254
1692.67	274
1694.78	262
1696.9	262
1699.01	266
1701.12	258
1703.23	258
1705.34	288
1707.45	256
1709.56	258
1711.67	240
1713.78	246
1715.88	242
1717.99	236
1720.1	236
1722.2	244
1724.31	238
1726.41	222
1728.51	256
1730.62	232
1732.72	238
1734.82	230
1736.92	232
1739.02	224
1741.12	226
1743.22	228
1745.32	232
1747.42	240
1749.51	216
1751.61	224
1753.7	232
1755.8	224
1757.89	216
1759.99	230
1762.08	230
1764.17	228
1766.26	224
1768.36	234
1770.45	216
1772.54	214
1774.62	222
1776.71	230
1778.8	244
1780.89	234
1782.98	216
1785.06	232
1787.15	244
1789.23	220
1791.32	236
1793.4	230
1795.48	230
1797.56	232
1799.65	220
1801.73	214
1803.81	250
1805.89	220
1807.97	216
1810.04	240
1812.12	216
1814.2	242
1816.28	232
1818.35	226
1820.43	246
1822.5	228
1824.58	232
1826.65	222
1828.72	226
1830.79	212
1832.86	240
1834.94	214
1837.01	226
1839.08	224
1841.15	232
1843.21	224
1845.28	212
1847.35	228
1849.41	222
1851.48	226
1853.55	218
1855.61	214
1857.67	216
1859.74	216
1861.8	230
1863.86	216
1865.92	236
1867.98	218
1870.05	224
1872.1	210
1874.16	222
1876.22	232
1878.28	220
1880.34	218
1882.39	216
1884.45	220
1886.5	214
1888.56	232
1890.61	210
1892.67	230
1894.72	212
1896.77	222
1898.82	204
1900.87	234
1902.92	218
1904.97	222
1907.02	230
1909.07	230
1911.12	214
1913.17	232
1915.21	230
1917.26	210
1919.3	230
1921.35	212
1923.39	220
1925.43	242
1927.48	228
1929.52	234
1931.56	228
1933.6	210
1935.64	214
1937.68	224
1939.72	222
1941.76	244
1943.8	224
1945.83	228
1947.87	232
1949.91	224
1951.94	228
1953.98	226
1956.01	226
1958.05	224
1960.08	238
1962.11	224
1964.14	228
1966.17	184
1968.2	212
1970.23	230
1972.26	210
1974.29	220
1976.32	228
1978.35	218
1980.37	210
1982.4	206
1984.43	230
1986.45	196
1988.48	238
1990.5	230
1992.52	228
1994.55	212
1996.57	226
1998.59	248
2000.61	216
2002.63	206
2004.65	224
2006.67	216
2008.69	226
2010.7	230
2012.72	234
2014.74	234
2016.75	232
2018.77	220
2020.78	216
2022.8	234
2024.81	216
2026.83	232
2028.84	240
2030.85	224
2032.86	214
2034.87	220
2036.88	238
2038.89	226
2040.9	216
2042.91	212
2044.91	232
2046.92	216
2048.93	232
2050.93	244
2052.94	216
2054.94	236
2056.95	228
2058.95	222
2060.95	202
2062.95	218
2064.96	228
2066.96	232
2068.96	228
2070.96	236
2072.96	228
2074.95	226
2076.95	232
2078.95	232
2080.95	226
2082.94	222
2084.94	210
2086.93	222
2088.93	208
2090.92	232
2092.91	258
2094.91	220
2096.9	212
2098.89	226
2100.88	238
2102.87	232
2104.86	212
2106.85	222
2108.84	222
2110.83	210
2112.81	212
2114.8	206
2116.78	228
2118.77	236
2120.75	226
2122.74	230
2124.72	246
2126.71	224
2128.69	218
2130.67	226
2132.65	226
2134.63	224
2136.61	214
2138.59	226
2140.57	210
2142.55	222
2144.53	238
2146.5	228
2148.48	234
2150.46	220
2152.43	224
2154.41	222
2156.38	222
2158.35	220
2160.33	230
2162.3	214
2164.27	220
2166.24	214
2168.21	216
2170.18	222
2172.15	222
2174.12	228
2176.09	226
2178.06	216
2180.03	210
2181.99	226
2183.96	216
2185.92	210
2187.89	218
2189.85	214
2191.82	212
2193.78	212
2195.74	198
2197.7	228
2199.67	236
2201.63	220
2203.59	214
2205.55	198
2207.51	216
2209.46	214
2211.42	220
2213.38	202
2215.34	228
2217.29	216
2219.25	204
2221.2	216
2223.16	222
2225.11	216
2227.06	220
2229.02	220
2230.97	206
2232.92	226
2234.87	216
2236.82	218
2238.77	214
2240.72	208
2242.67	226
2244.62	206
2246.57	208
2248.51	238
2250.46	222
2252.4	224
2254.35	236
2256.29	228
2258.24	228
2260.18	236
2262.13	234
2264.07	228
2266.01	216
2267.95	218
2269.89	208
2271.83	212
2273.77	226
2275.71	238
2277.65	226
2279.58	222
2281.52	226
2283.46	228
2285.4	248
2287.33	220
2289.27	214
2291.2	224
2293.13	220
2295.07	216
2297	218
2298.93	218
2300.86	216
2302.79	212
2304.72	220
2306.65	230
2308.58	232
2310.51	212
2312.44	236
2314.37	220
2316.29	230
2318.22	252
2320.15	230
2322.07	230
2324	230
2325.92	236
2327.84	230
2329.77	234
2331.69	226
2333.61	212
2335.53	226
2337.45	232
2339.37	238
2341.29	234
2343.21	230
2345.13	240
2347.05	220
2348.97	230
2350.88	206
2352.8	226
2354.71	216
2356.63	226
2358.54	208
2360.46	216
2362.37	210
2364.28	232
2366.2	224
2368.11	224
2370.02	230
2371.93	214
2373.84	222
2375.75	222
2377.66	228
2379.57	226
2381.47	198
2383.38	240
2385.29	224
2387.2	228
2389.1	214
2391.01	244
2392.91	234
2394.81	244
2396.72	234
2398.62	234
2400.52	226
2402.42	222
2404.33	232
2406.23	232
2408.13	238
2410.03	232
2411.92	242
2413.82	242
2415.72	214
2417.62	226
2419.51	210
2421.41	232
2423.31	216
2425.2	224
2427.1	220
2428.99	214
2430.88	208
2432.78	222
2434.67	204
2436.56	204
2438.45	218
2440.34	232
2442.23	240
2444.12	240
2446.01	202
2447.9	218
2449.79	238