File: Mixture_Classification/Jesse_Dataset_v2/Pure Raman/Polypropylene oxide/633nm/ps-ppo-7jan25-0,0000-map2_Y05_X07.txt
182.393	664
184.993	650
187.593	594
190.193	570
192.79	536
195.387	550
197.983	522
200.578	494
203.174	478
205.766	488
208.36	432
210.951	466
213.542	416
216.131	416
218.721	434
221.309	470
223.897	564
226.483	690
229.069	916
231.654	1090
234.238	1218
236.821	1178
239.404	1124
241.984	962
244.566	858
247.145	714
249.723	614
252.302	496
254.878	460
257.455	372
260.03	316
262.604	306
265.178	268
267.75	262
270.322	242
272.893	260
275.463	246
278.032	254
280.601	284
283.168	288
285.734	340
288.301	422
290.866	504
293.429	560
295.992	608
298.556	572
301.117	508
303.677	476
306.236	416
308.795	408
311.354	382
313.911	354
316.467	342
319.022	334
321.577	332
324.13	326
326.684	346
329.236	358
331.787	362
334.337	372
336.887	376
339.435	348
341.983	308
344.529	316
347.075	320
349.621	326
352.165	312
354.708	330
357.251	334
359.793	318
362.334	296
364.874	298
367.413	306
369.951	300
372.489	298
375.026	280
377.562	268
380.097	252
382.631	214
385.164	224
387.697	232
390.229	220
392.76	210
395.29	206
397.819	216
400.346	206
402.873	216
405.4	224
407.926	260
410.451	274
412.976	312
415.499	348
418.02	294
420.542	270
423.063	256
425.583	218
428.101	194
430.619	178
433.137	172
435.654	156
438.169	164
440.684	154
443.198	152
445.712	140
448.223	130
450.735	146
453.246	146
455.755	148
458.264	138
460.771	150
463.279	158
465.786	182
468.291	204
470.796	230
473.301	274
475.803	314
478.306	360
480.807	418
483.308	446
485.807	474
488.307	408
490.804	342
493.302	270
495.798	244
498.294	212
500.788	182
503.283	174
505.775	188
508.269	228
510.759	290
513.251	362
515.74	366
518.23	284
520.718	242
523.204	268
525.692	290
528.177	340
530.663	446
533.147	552
535.629	646
538.113	720
540.594	736
543.074	644
545.555	552
548.034	408
550.512	352
552.989	362
555.467	382
557.942	494
560.417	644
562.892	964
565.365	1614
567.838	2626
570.309	3692
572.78	3642
575.251	2594
577.72	1514
580.189	886
582.656	664
585.123	568
587.589	580
590.055	530
592.52	494
594.983	462
597.446	420
599.908	336
602.369	300
604.829	232
607.289	208
609.747	188
612.205	186
614.663	182
617.119	188
619.574	186
622.029	202
624.483	208
626.936	266
629.389	240
631.84	284
634.291	292
636.741	290
639.19	300
641.639	250
644.086	238
646.533	204
648.979	190
651.424	194
653.869	190
656.313	182
658.754	160
661.196	154
663.638	134
666.078	146
668.518	126
670.957	136
673.394	140
675.831	132
678.268	134
680.703	116
683.137	124
685.571	142
688.005	130
690.437	138
692.868	136
695.299	132
697.729	132
700.159	134
702.586	150
705.014	144
707.441	152
709.866	186
712.292	216
714.716	206
717.14	208
719.563	188
721.984	176
724.406	156
726.825	156
729.246	172
731.665	180
734.082	172
736.5	186
738.916	194
741.332	208
743.746	230
746.161	280
748.574	318
750.987	268
753.398	238
755.81	246
758.219	224
760.629	190
763.037	172
765.445	158
767.852	154
770.258	158
772.664	150
775.068	166
777.472	170
779.876	186
782.278	178
784.679	170
787.08	164
789.48	162
791.879	160
794.278	160
796.675	144
799.072	156
801.467	172
803.864	160
806.258	168
808.651	174
811.044	166
813.437	162
815.828	178
818.218	194
820.608	192
822.997	238
825.385	298
827.773	460
830.16	756
832.546	1126
834.931	1068
837.315	634
839.699	372
842.081	286
844.463	242
846.844	226
849.226	224
851.606	202
853.985	216
856.363	210
858.741	206
861.117	204
863.493	190
865.868	164
868.243	162
870.616	156
872.989	162
875.36	152
877.731	156
880.102	156
882.472	158
884.841	160
887.209	158
889.577	154
891.944	150
894.31	138
896.674	134
899.039	136
901.403	140
903.766	136
906.128	136
908.49	142
910.849	138
913.209	124
915.569	134
917.927	136
920.284	136
922.641	156
924.997	152
927.353	152
929.707	148
932.061	158
934.414	164
936.765	176
939.117	180
941.469	194
943.818	212
946.167	242
948.515	294
950.863	376
953.211	480
955.556	654
957.902	822
960.246	894
962.59	856
964.933	698
967.276	568
969.617	500
971.958	404
974.298	340
976.638	268
978.976	232
981.314	204
983.651	180
985.988	184
988.323	186
990.659	182
992.992	184
995.325	164
997.658	178
999.99	150
1002.32	146
1004.65	162
1006.98	160
1009.31	158
1011.64	160
1013.97	174
1016.29	170
1018.62	180
1020.94	206
1023.27	214
1025.59	208
1027.91	208
1030.24	228
1032.56	240
1034.88	252
1037.2	232
1039.52	220
1041.84	206
1044.15	220
1046.47	200
1048.79	190
1051.1	178
1053.42	162
1055.73	162
1058.04	164
1060.36	168
1062.67	152
1064.98	150
1067.29	164
1069.6	166
1071.91	178
1074.22	154
1076.52	150
1078.83	162
1081.14	160
1083.44	182
1085.75	188
1088.05	174
1090.35	174
1092.65	180
1094.95	184
1097.26	198
1099.56	190
1101.86	198
1104.15	266
1106.45	344
1108.75	520
1111.05	762
1113.34	878
1115.64	688
1117.93	476
1120.22	332
1122.52	304
1124.81	262
1127.1	228
1129.39	210
1131.68	200
1133.97	188
1136.26	220
1138.54	214
1140.83	222
1143.12	206
1145.4	190
1147.69	186
1149.97	192
1152.25	188
1154.54	184
1156.82	206
1159.1	220
1161.38	258
1163.66	234
1165.94	228
1168.22	212
1170.49	204
1172.77	208
1175.05	244
1177.32	276
1179.6	302
1181.87	398
1184.14	510
1186.42	588
1188.69	550
1190.96	488
1193.23	420
1195.5	390
1197.77	404
1200.03	400
1202.3	432
1204.57	432
1206.83	350
1209.1	328
1211.36	272
1213.63	202
1215.89	208
1218.15	216
1220.41	210
1222.67	214
1224.93	244
1227.19	282
1229.45	306
1231.71	308
1233.97	280
1236.22	232
1238.48	214
1240.73	194
1242.99	194
1245.24	186
1247.5	194
1249.75	202
1252	186
1254.25	186
1256.5	196
1258.75	194
1261	206
1263.25	222
1265.49	218
1267.74	212
1269.99	210
1272.23	220
1274.48	244
1276.72	236
1278.96	254
1281.21	284
1283.45	306
1285.69	348
1287.93	366
1290.17	422
1292.41	478
1294.64	574
1296.88	752
1299.12	1060
1301.36	1510
1303.59	1978
1305.82	2190
1308.06	1784
1310.29	1234
1312.52	888
1314.76	754
1316.99	584
1319.22	492
1321.45	452
1323.68	430
1325.9	420
1328.13	410
1330.36	412
1332.58	374
1334.81	346
1337.04	298
1339.26	280
1341.48	292
1343.71	314
1345.93	316
1348.15	342
1350.37	328
1352.59	330
1354.81	312
1357.03	280
1359.24	286
1361.46	260
1363.68	272
1365.89	284
1368.11	294
1370.32	362
1372.54	494
1374.75	718
1376.96	902
1379.17	1042
1381.38	1000
1383.59	822
1385.8	688
1388.01	466
1390.22	376
1392.43	304
1394.63	244
1396.84	244
1399.05	232
1401.25	256
1403.45	208
1405.66	244
1407.86	242
1410.06	246
1412.26	236
1414.46	262
1416.66	272
1418.86	308
1421.06	338
1423.26	354
1425.46	366
1427.65	386
1429.85	398
1432.04	400
1434.24	432
1436.43	450
1438.62	452
1440.82	490
1443.01	464
1445.2	432
1447.39	410
1449.58	398
1451.77	350
1453.95	366
1456.14	352
1458.33	342
1460.52	326
1462.7	324
1464.89	322
1467.07	330
1469.25	336
1471.44	322
1473.62	324
1475.8	310
1477.98	310
1480.16	318
1482.34	294
1484.52	280
1486.7	268
1488.87	272
1491.05	252
1493.23	254
1495.4	248
1497.58	250
1499.75	246
1501.92	232
1504.1	244
1506.27	234
1508.44	228
1510.61	226
1512.78	234
1514.95	226
1517.12	256
1519.28	204
1521.45	220
1523.62	240
1525.78	234
1527.95	216
1530.11	222
1532.28	222
1534.44	242
1536.6	244
1538.76	224
1540.93	244
1543.09	240
1545.25	240
1547.41	242
1549.56	242
1551.72	250
1553.88	230
1556.03	236
1558.19	256
1560.35	250
1562.5	262
1564.65	270
1566.81	272
1568.96	290
1571.11	284
1573.26	284
1575.41	336
1577.56	348
1579.71	384
1581.86	404
1584.01	470
1586.15	540
1588.3	632
1590.45	724
1592.59	882
1594.74	1008
1596.88	1162
1599.02	1350
1601.17	1422
1603.31	1460
1605.45	1390
1607.59	1224
1609.73	1098
1611.87	948
1614.01	848
1616.14	686
1618.28	572
1620.42	484
1622.55	416
1624.69	350
1626.82	320
1628.96	298
1631.09	272
1633.22	258
1635.36	258
1637.49	242
1639.62	236
1641.75	216
1643.88	216
1646	216
1648.13	206
1650.26	194
1652.39	214
1654.51	212
1656.64	212
1658.76	192
1660.89	208
1663.01	196
1665.13	208
1667.26	198
1669.38	168
1671.5	184
1673.62	196
1675.74	186
1677.86	188
1679.97	188
1682.09	196
1684.21	194
1686.33	190
1688.44	218
1690.56	208
1692.67	208
1694.78	212
1696.9	222
1699.01	210
1701.12	198
1703.23	222
1705.34	202
1707.45	200
1709.56	180
1711.67	206
1713.78	178
1715.88	204
1717.99	182
1720.1	186
1722.2	196
1724.31	176
1726.41	194
1728.51	176
1730.62	174
1732.72	172
1734.82	188
1736.92	182
1739.02	192
1741.12	176
1743.22	174
1745.32	170
1747.42	166
1749.51	180
1751.61	180
1753.7	176
1755.8	172
1757.89	178
1759.99	172
1762.08	178
1764.17	168
1766.26	162
1768.36	156
1770.45	168
1772.54	162
1774.62	178
1776.71	174
1778.8	174
1780.89	172
1782.98	178
1785.06	186
1787.15	190
1789.23	166
1791.32	174
1793.4	168
1795.48	176
1797.56	168
1799.65	170
1801.73	176
1803.81	170
1805.89	174
1807.97	166
1810.04	186
1812.12	174
1814.2	178
1816.28	168
1818.35	146
1820.43	176
1822.5	182
1824.58	172
1826.65	162
1828.72	182
1830.79	162
1832.86	182
1834.94	160
1837.01	168
1839.08	164
1841.15	184
1843.21	176
1845.28	180
1847.35	174
1849.41	176
1851.48	178
1853.55	172
1855.61	166
1857.67	178
1859.74	184
1861.8	166
1863.86	176
1865.92	176
1867.98	182
1870.05	162
1872.1	182
1874.16	184
1876.22	180
1878.28	182
1880.34	182
1882.39	174
1884.45	170
1886.5	168
1888.56	166
1890.61	166
1892.67	180
1894.72	178
1896.77	180
1898.82	186
1900.87	182
1902.92	182
1904.97	160
1907.02	176
1909.07	176
1911.12	166
1913.17	176
1915.21	174
1917.26	178
1919.3	184
1921.35	180
1923.39	170
1925.43	192
1927.48	186
1929.52	184
1931.56	176
1933.6	178
1935.64	156
1937.68	176
1939.72	188
1941.76	166
1943.8	178
1945.83	186
1947.87	182
1949.91	168
1951.94	172
1953.98	172
1956.01	184
1958.05	178
1960.08	186
1962.11	174
1964.14	168
1966.17	180
1968.2	162
1970.23	168
1972.26	172
1974.29	170
1976.32	174
1978.35	190
1980.37	176
1982.4	174
1984.43	180
1986.45	182
1988.48	178
1990.5	172
1992.52	172
1994.55	192
1996.57	170
1998.59	170
2000.61	166
2002.63	170
2004.65	168
2006.67	164
2008.69	172
2010.7	176
2012.72	174
2014.74	184
2016.75	190
2018.77	176
2020.78	182
2022.8	192
2024.81	180
2026.83	188
2028.84	162
2030.85	166
2032.86	164
2034.87	172
2036.88	176
2038.89	184
2040.9	190
2042.91	188
2044.91	178
2046.92	190
2048.93	174
2050.93	176
2052.94	184
2054.94	182
2056.95	172
2058.95	172
2060.95	166
2062.95	172
2064.96	174
2066.96	172
2068.96	184
2070.96	160
2072.96	172
2074.95	180
2076.95	172
2078.95	186
2080.95	168
2082.94	168
2084.94	176
2086.93	182
2088.93	186
2090.92	166
2092.91	182
2094.91	174
2096.9	166
2098.89	170
2100.88	182
2102.87	176
2104.86	172
2106.85	194
2108.84	168
2110.83	170
2112.81	176
2114.8	178
2116.78	180
2118.77	160
2120.75	186
2122.74	182
2124.72	178
2126.71	174
2128.69	186
2130.67	190
2132.65	156
2134.63	168
2136.61	178
2138.59	176
2140.57	162
2142.55	176
2144.53	182
2146.5	168
2148.48	176
2150.46	172
2152.43	168
2154.41	172
2156.38	180
2158.35	188
2160.33	180
2162.3	186
2164.27	172
2166.24	178
2168.21	176
2170.18	178
2172.15	178
2174.12	186
2176.09	172
2178.06	174
2180.03	168
2181.99	176
2183.96	178
2185.92	184
2187.89	168
2189.85	182
2191.82	172
2193.78	180
2195.74	184
2197.7	186
2199.67	172
2201.63	180
2203.59	184
2205.55	176
2207.51	180
2209.46	178
2211.42	176
2213.38	174
2215.34	176
2217.29	184
2219.25	180
2221.2	192
2223.16	176
2225.11	190
2227.06	178
2229.02	182
2230.97	184
2232.92	176
2234.87	170
2236.82	176
2238.77	180
2240.72	180
2242.67	200
2244.62	166
2246.57	178
2248.51	178
2250.46	182
2252.4	186
2254.35	186
2256.29	180
2258.24	178
2260.18	192
2262.13	190
2264.07	170
2266.01	176
2267.95	176
2269.89	184
2271.83	172
2273.77	212
2275.71	184
2277.65	190
2279.58	192
2281.52	180
2283.46	180
2285.4	170
2287.33	192
2289.27	184
2291.2	168
2293.13	184
2295.07	186
2297	180
2298.93	190
2300.86	186
2302.79	188
2304.72	160
2306.65	176
2308.58	192
2310.51	198
2312.44	194
2314.37	172
2316.29	196
2318.22	184
2320.15	190
2322.07	192
2324	198
2325.92	196
2327.84	190
2329.77	188
2331.69	196
2333.61	180
2335.53	196
2337.45	184
2339.37	192
2341.29	206
2343.21	184
2345.13	186
2347.05	170
2348.97	162
2350.88	170
2352.8	190
2354.71	192
2356.63	172
2358.54	192
2360.46	174
2362.37	190
2364.28	182
2366.2	180
2368.11	186
2370.02	198
2371.93	184
2373.84	188
2375.75	198
2377.66	188
2379.57	190
2381.47	180
2383.38	188
2385.29	178
2387.2	184
2389.1	178
2391.01	198
2392.91	190
2394.81	196
2396.72	196
2398.62	190
2400.52	194
2402.42	200
2404.33	196
2406.23	202
2408.13	184
2410.03	200
2411.92	196
2413.82	188
2415.72	190
2417.62	188
2419.51	202
2421.41	182
2423.31	182
2425.2	180
2427.1	196
2428.99	184
2430.88	182
2432.78	192
2434.67	188
2436.56	172
2438.45	180
2440.34	194
2442.23	184
2444.12	172
2446.01	176
2447.9	166
2449.79	194