File: Mixture_Classification/Jesse_Dataset_v2/Pure Raman/Polypropylene oxide/633nm/ps-ppo-7jan25-0,0000-map2_Y07_X08.txt
182.393	678
184.993	690
187.593	614
190.193	610
192.79	580
195.387	568
197.983	562
200.578	520
203.174	514
205.766	502
208.36	472
210.951	478
213.542	432
216.131	446
218.721	464
221.309	502
223.897	596
226.483	718
229.069	906
231.654	1128
234.238	1246
236.821	1252
239.404	1084
241.984	992
244.566	848
247.145	770
249.723	594
252.302	536
254.878	480
257.455	392
260.03	352
262.604	342
265.178	322
267.75	286
270.322	264
272.893	288
275.463	276
278.032	270
280.601	276
283.168	326
285.734	374
288.301	430
290.866	538
293.429	594
295.992	602
298.556	602
301.117	562
303.677	490
306.236	464
308.795	426
311.354	386
313.911	366
316.467	344
319.022	370
321.577	360
324.13	358
326.684	368
329.236	390
331.787	396
334.337	420
336.887	408
339.435	372
341.983	354
344.529	358
347.075	318
349.621	336
352.165	324
354.708	336
357.251	342
359.793	328
362.334	316
364.874	302
367.413	306
369.951	322
372.489	314
375.026	320
377.562	300
380.097	272
382.631	288
385.164	244
387.697	244
390.229	232
392.76	232
395.29	248
397.819	234
400.346	236
402.873	236
405.4	268
407.926	276
410.451	300
412.976	376
415.499	370
418.02	326
420.542	308
423.063	274
425.583	246
428.101	230
430.619	212
433.137	202
435.654	180
438.169	182
440.684	186
443.198	160
445.712	164
448.223	166
450.735	158
453.246	152
455.755	158
458.264	172
460.771	182
463.279	186
465.786	214
468.291	226
470.796	258
473.301	286
475.803	356
478.306	376
480.807	450
483.308	446
485.807	486
488.307	444
490.804	312
493.302	312
495.798	254
498.294	230
500.788	218
503.283	200
505.775	230
508.269	244
510.759	332
513.251	388
515.74	356
518.23	298
520.718	278
523.204	300
525.692	322
528.177	374
530.663	460
533.147	542
535.629	704
538.113	750
540.594	752
543.074	682
545.555	540
548.034	452
550.512	380
552.989	364
555.467	416
557.942	470
560.417	664
562.892	976
565.365	1582
567.838	2650
570.309	3580
572.78	3622
575.251	2590
577.72	1572
580.189	926
582.656	670
585.123	618
587.589	604
590.055	512
592.52	534
594.983	450
597.446	416
599.908	364
602.369	316
604.829	274
607.289	224
609.747	202
612.205	230
614.663	216
617.119	220
619.574	208
622.029	210
624.483	244
626.936	258
629.389	272
631.84	310
634.291	294
636.741	310
639.19	270
641.639	264
644.086	278
646.533	234
648.979	218
651.424	216
653.869	212
656.313	192
658.754	170
661.196	194
663.638	174
666.078	166
668.518	184
670.957	166
673.394	168
675.831	164
678.268	154
680.703	164
683.137	164
685.571	162
688.005	184
690.437	152
692.868	164
695.299	168
697.729	158
700.159	156
702.586	166
705.014	188
707.441	192
709.866	184
712.292	200
714.716	238
717.14	236
719.563	212
721.984	204
724.406	202
726.825	194
729.246	206
731.665	216
734.082	198
736.5	212
738.916	212
741.332	206
743.746	274
746.161	318
748.574	332
750.987	296
753.398	280
755.81	252
758.219	230
760.629	216
763.037	200
765.445	180
767.852	176
770.258	184
772.664	190
775.068	208
777.472	206
779.876	226
782.278	212
784.679	206
787.08	192
789.48	178
791.879	180
794.278	180
796.675	180
799.072	184
801.467	180
803.864	164
806.258	210
808.651	188
811.044	200
813.437	190
815.828	216
818.218	198
820.608	238
822.997	248
825.385	338
827.773	474
830.16	776
832.546	1132
834.931	1126
837.315	704
839.699	384
842.081	290
844.463	256
846.844	266
849.226	260
851.606	250
853.985	244
856.363	240
858.741	212
861.117	238
863.493	198
865.868	204
868.243	188
870.616	194
872.989	188
875.36	186
877.731	196
880.102	178
882.472	180
884.841	190
887.209	152
889.577	178
891.944	172
894.31	166
896.674	162
899.039	162
901.403	150
903.766	178
906.128	182
908.49	170
910.849	182
913.209	182
915.569	174
917.927	168
920.284	150
922.641	176
924.997	168
927.353	180
929.707	178
932.061	186
934.414	202
936.765	190
939.117	200
941.469	224
943.818	270
946.167	270
948.515	340
950.863	412
953.211	488
955.556	696
957.902	818
960.246	912
962.59	886
964.933	744
967.276	642
969.617	528
971.958	460
974.298	350
976.638	304
978.976	256
981.314	254
983.651	216
985.988	210
988.323	206
990.659	216
992.992	214
995.325	210
997.658	178
999.99	194
1002.32	212
1004.65	190
1006.98	190
1009.31	186
1011.64	188
1013.97	212
1016.29	210
1018.62	230
1020.94	218
1023.27	240
1025.59	222
1027.91	274
1030.24	250
1032.56	266
1034.88	270
1037.2	248
1039.52	274
1041.84	248
1044.15	240
1046.47	228
1048.79	204
1051.1	204
1053.42	190
1055.73	208
1058.04	192
1060.36	198
1062.67	212
1064.98	196
1067.29	204
1069.6	198
1071.91	206
1074.22	196
1076.52	180
1078.83	192
1081.14	194
1083.44	216
1085.75	200
1088.05	200
1090.35	188
1092.65	192
1094.95	214
1097.26	212
1099.56	212
1101.86	228
1104.15	278
1106.45	344
1108.75	544
1111.05	812
1113.34	872
1115.64	736
1117.93	504
1120.22	354
1122.52	322
1124.81	248
1127.1	250
1129.39	240
1131.68	230
1133.97	226
1136.26	246
1138.54	246
1140.83	236
1143.12	250
1145.4	246
1147.69	228
1149.97	224
1152.25	210
1154.54	214
1156.82	246
1159.1	234
1161.38	258
1163.66	286
1165.94	242
1168.22	248
1170.49	228
1172.77	258
1175.05	276
1177.32	308
1179.6	346
1181.87	454
1184.14	546
1186.42	640
1188.69	590
1190.96	510
1193.23	432
1195.5	416
1197.77	432
1200.03	424
1202.3	444
1204.57	442
1206.83	430
1209.1	362
1211.36	296
1213.63	250
1215.89	252
1218.15	238
1220.41	242
1222.67	238
1224.93	252
1227.19	320
1229.45	334
1231.71	348
1233.97	314
1236.22	252
1238.48	248
1240.73	236
1242.99	212
1245.24	216
1247.5	216
1249.75	228
1252	208
1254.25	224
1256.5	228
1258.75	222
1261	230
1263.25	222
1265.49	248
1267.74	244
1269.99	238
1272.23	258
1274.48	246
1276.72	260
1278.96	292
1281.21	320
1283.45	322
1285.69	372
1287.93	372
1290.17	428
1292.41	476
1294.64	600
1296.88	754
1299.12	1048
1301.36	1478
1303.59	1998
1305.82	2176
1308.06	1832
1310.29	1306
1312.52	938
1314.76	734
1316.99	604
1319.22	558
1321.45	478
1323.68	462
1325.9	434
1328.13	460
1330.36	438
1332.58	412
1334.81	344
1337.04	340
1339.26	340
1341.48	322
1343.71	342
1345.93	350
1348.15	352
1350.37	386
1352.59	356
1354.81	360
1357.03	358
1359.24	306
1361.46	294
1363.68	300
1365.89	324
1368.11	330
1370.32	378
1372.54	528
1374.75	720
1376.96	958
1379.17	1050
1381.38	1020
1383.59	900
1385.8	712
1388.01	532
1390.22	408
1392.43	336
1394.63	286
1396.84	264
1399.05	268
1401.25	260
1403.45	272
1405.66	264
1407.86	286
1410.06	260
1412.26	292
1414.46	290
1416.66	316
1418.86	340
1421.06	366
1423.26	376
1425.46	402
1427.65	426
1429.85	418
1432.04	418
1434.24	440
1436.43	474
1438.62	514
1440.82	502
1443.01	484
1445.2	454
1447.39	432
1449.58	434
1451.77	402
1453.95	372
1456.14	362
1458.33	376
1460.52	364
1462.7	350
1464.89	350
1467.07	362
1469.25	362
1471.44	352
1473.62	344
1475.8	376
1477.98	360
1480.16	340
1482.34	318
1484.52	302
1486.7	318
1488.87	286
1491.05	272
1493.23	282
1495.4	282
1497.58	278
1499.75	266
1501.92	260
1504.1	262
1506.27	266
1508.44	272
1510.61	286
1512.78	268
1514.95	260
1517.12	272
1519.28	246
1521.45	272
1523.62	248
1525.78	274
1527.95	264
1530.11	256
1532.28	258
1534.44	268
1536.6	266
1538.76	274
1540.93	264
1543.09	272
1545.25	268
1547.41	268
1549.56	274
1551.72	274
1553.88	270
1556.03	298
1558.19	294
1560.35	294
1562.5	290
1564.65	292
1566.81	284
1568.96	300
1571.11	324
1573.26	354
1575.41	340
1577.56	378
1579.71	414
1581.86	436
1584.01	472
1586.15	560
1588.3	690
1590.45	750
1592.59	882
1594.74	1064
1596.88	1124
1599.02	1362
1601.17	1384
1603.31	1486
1605.45	1396
1607.59	1254
1609.73	1178
1611.87	978
1614.01	866
1616.14	748
1618.28	608
1620.42	528
1622.55	470
1624.69	394
1626.82	348
1628.96	318
1631.09	314
1633.22	276
1635.36	302
1637.49	282
1639.62	250
1641.75	248
1643.88	254
1646	232
1648.13	252
1650.26	226
1652.39	236
1654.51	242
1656.64	228
1658.76	226
1660.89	240
1663.01	238
1665.13	222
1667.26	216
1669.38	218
1671.5	212
1673.62	226
1675.74	216
1677.86	218
1679.97	230
1682.09	204
1684.21	230
1686.33	244
1688.44	248
1690.56	252
1692.67	242
1694.78	218
1696.9	240
1699.01	254
1701.12	230
1703.23	234
1705.34	232
1707.45	250
1709.56	238
1711.67	236
1713.78	232
1715.88	230
1717.99	236
1720.1	232
1722.2	222
1724.31	218
1726.41	220
1728.51	208
1730.62	208
1732.72	228
1734.82	214
1736.92	222
1739.02	192
1741.12	198
1743.22	196
1745.32	218
1747.42	204
1749.51	214
1751.61	230
1753.7	208
1755.8	214
1757.89	234
1759.99	200
1762.08	206
1764.17	210
1766.26	198
1768.36	204
1770.45	210
1772.54	212
1774.62	188
1776.71	194
1778.8	216
1780.89	214
1782.98	210
1785.06	200
1787.15	206
1789.23	212
1791.32	212
1793.4	200
1795.48	204
1797.56	200
1799.65	198
1801.73	196
1803.81	210
1805.89	200
1807.97	200
1810.04	202
1812.12	188
1814.2	208
1816.28	178
1818.35	212
1820.43	204
1822.5	212
1824.58	204
1826.65	200
1828.72	202
1830.79	196
1832.86	190
1834.94	212
1837.01	198
1839.08	218
1841.15	192
1843.21	196
1845.28	206
1847.35	218
1849.41	210
1851.48	200
1853.55	206
1855.61	190
1857.67	208
1859.74	204
1861.8	210
1863.86	192
1865.92	210
1867.98	194
1870.05	196
1872.1	200
1874.16	204
1876.22	202
1878.28	184
1880.34	218
1882.39	180
1884.45	186
1886.5	224
1888.56	208
1890.61	198
1892.67	208
1894.72	206
1896.77	210
1898.82	214
1900.87	200
1902.92	216
1904.97	192
1907.02	220
1909.07	204
1911.12	206
1913.17	212
1915.21	196
1917.26	192
1919.3	200
1921.35	218
1923.39	196
1925.43	194
1927.48	214
1929.52	194
1931.56	206
1933.6	214
1935.64	210
1937.68	208
1939.72	214
1941.76	190
1943.8	204
1945.83	206
1947.87	202
1949.91	200
1951.94	194
1953.98	198
1956.01	194
1958.05	210
1960.08	202
1962.11	222
1964.14	214
1966.17	198
1968.2	210
1970.23	214
1972.26	196
1974.29	218
1976.32	206
1978.35	212
1980.37	200
1982.4	210
1984.43	222
1986.45	194
1988.48	220
1990.5	210
1992.52	196
1994.55	210
1996.57	202
1998.59	198
2000.61	194
2002.63	194
2004.65	210
2006.67	214
2008.69	210
2010.7	200
2012.72	188
2014.74	210
2016.75	206
2018.77	210
2020.78	210
2022.8	198
2024.81	210
2026.83	202
2028.84	200
2030.85	212
2032.86	212
2034.87	208
2036.88	198
2038.89	218
2040.9	206
2042.91	210
2044.91	206
2046.92	194
2048.93	210
2050.93	210
2052.94	218
2054.94	230
2056.95	208
2058.95	212
2060.95	210
2062.95	196
2064.96	210
2066.96	212
2068.96	214
2070.96	216
2072.96	218
2074.95	210
2076.95	206
2078.95	218
2080.95	210
2082.94	198
2084.94	214
2086.93	196
2088.93	206
2090.92	210
2092.91	218
2094.91	202
2096.9	196
2098.89	184
2100.88	204
2102.87	210
2104.86	196
2106.85	198
2108.84	194
2110.83	194
2112.81	214
2114.8	198
2116.78	220
2118.77	208
2120.75	206
2122.74	184
2124.72	184
2126.71	206
2128.69	214
2130.67	210
2132.65	208
2134.63	218
2136.61	198
2138.59	198
2140.57	200
2142.55	192
2144.53	216
2146.5	206
2148.48	202
2150.46	200
2152.43	196
2154.41	196
2156.38	200
2158.35	200
2160.33	206
2162.3	202
2164.27	210
2166.24	204
2168.21	194
2170.18	202
2172.15	212
2174.12	214
2176.09	214
2178.06	214
2180.03	194
2181.99	204
2183.96	208
2185.92	202
2187.89	210
2189.85	188
2191.82	202
2193.78	192
2195.74	208
2197.7	210
2199.67	216
2201.63	210
2203.59	200
2205.55	216
2207.51	210
2209.46	202
2211.42	210
2213.38	202
2215.34	212
2217.29	212
2219.25	210
2221.2	210
2223.16	204
2225.11	222
2227.06	192
2229.02	208
2230.97	210
2232.92	214
2234.87	200
2236.82	204
2238.77	204
2240.72	210
2242.67	216
2244.62	206
2246.57	204
2248.51	204
2250.46	196
2252.4	204
2254.35	208
2256.29	212
2258.24	204
2260.18	206
2262.13	210
2264.07	198
2266.01	216
2267.95	214
2269.89	182
2271.83	220
2273.77	190
2275.71	192
2277.65	198
2279.58	226
2281.52	214
2283.46	222
2285.4	222
2287.33	198
2289.27	190
2291.2	190
2293.13	206
2295.07	216
2297	200
2298.93	210
2300.86	192
2302.79	206
2304.72	202
2306.65	222
2308.58	218
2310.51	212
2312.44	190
2314.37	208
2316.29	240
2318.22	218
2320.15	230
2322.07	212
2324	202
2325.92	230
2327.84	214
2329.77	230
2331.69	204
2333.61	220
2335.53	220
2337.45	224
2339.37	200
2341.29	206
2343.21	230
2345.13	216
2347.05	206
2348.97	216
2350.88	206
2352.8	204
2354.71	208
2356.63	208
2358.54	218
2360.46	208
2362.37	212
2364.28	214
2366.2	212
2368.11	192
2370.02	204
2371.93	214
2373.84	206
2375.75	220
2377.66	206
2379.57	214
2381.47	202
2383.38	214
2385.29	212
2387.2	212
2389.1	208
2391.01	216
2392.91	216
2394.81	206
2396.72	218
2398.62	224
2400.52	212
2402.42	212
2404.33	216
2406.23	210
2408.13	214
2410.03	218
2411.92	208
2413.82	224
2415.72	216
2417.62	228
2419.51	222
2421.41	200
2423.31	194
2425.2	202
2427.1	198
2428.99	212
2430.88	204
2432.78	204
2434.67	198
2436.56	200
2438.45	212
2440.34	196
2442.23	212
2444.12	198
2446.01	202
2447.9	206
2449.79	216