File: Mixture_Classification/Jesse_Dataset_v2/Pure Raman/Polypropylene oxide/633nm/ps-ppo-7jan25-0,0000-map2_Y00_X01.txt
182.393	756
184.993	750
187.593	724
190.193	684
192.79	666
195.387	642
197.983	604
200.578	590
203.174	572
205.766	550
208.36	530
210.951	514
213.542	510
216.131	526
218.721	500
221.309	600
223.897	674
226.483	802
229.069	1014
231.654	1240
234.238	1314
236.821	1346
239.404	1222
241.984	1104
244.566	950
247.145	820
249.723	692
252.302	610
254.878	532
257.455	464
260.03	404
262.604	378
265.178	376
267.75	342
270.322	364
272.893	332
275.463	316
278.032	340
280.601	352
283.168	384
285.734	408
288.301	520
290.866	580
293.429	672
295.992	678
298.556	686
301.117	632
303.677	568
306.236	526
308.795	484
311.354	476
313.911	430
316.467	402
319.022	412
321.577	428
324.13	410
326.684	426
329.236	420
331.787	454
334.337	484
336.887	440
339.435	416
341.983	446
344.529	412
347.075	416
349.621	376
352.165	414
354.708	402
357.251	406
359.793	416
362.334	388
364.874	398
367.413	394
369.951	370
372.489	392
375.026	390
377.562	340
380.097	362
382.631	300
385.164	328
387.697	306
390.229	310
392.76	284
395.29	306
397.819	286
400.346	298
402.873	306
405.4	348
407.926	330
410.451	396
412.976	404
415.499	440
418.02	426
420.542	354
423.063	328
425.583	322
428.101	276
430.619	262
433.137	278
435.654	254
438.169	242
440.684	232
443.198	230
445.712	228
448.223	230
450.735	218
453.246	230
455.755	250
458.264	240
460.771	230
463.279	274
465.786	258
468.291	308
470.796	340
473.301	372
475.803	422
478.306	470
480.807	500
483.308	554
485.807	590
488.307	514
490.804	390
493.302	368
495.798	336
498.294	288
500.788	272
503.283	278
505.775	256
508.269	336
510.759	412
513.251	452
515.74	456
518.23	380
520.718	354
523.204	384
525.692	396
528.177	474
530.663	556
533.147	684
535.629	760
538.113	834
540.594	832
543.074	750
545.555	642
548.034	514
550.512	470
552.989	472
555.467	486
557.942	612
560.417	740
562.892	1108
565.365	1784
567.838	2882
570.309	3924
572.78	3860
575.251	2740
577.72	1614
580.189	998
582.656	802
585.123	712
587.589	666
590.055	640
592.52	622
594.983	534
597.446	498
599.908	468
602.369	378
604.829	334
607.289	300
609.747	304
612.205	300
614.663	274
617.119	282
619.574	288
622.029	312
624.483	322
626.936	336
629.389	342
631.84	398
634.291	390
636.741	386
639.19	396
641.639	360
644.086	344
646.533	314
648.979	296
651.424	280
653.869	282
656.313	268
658.754	250
661.196	268
663.638	264
666.078	250
668.518	214
670.957	238
673.394	240
675.831	224
678.268	228
680.703	236
683.137	224
685.571	234
688.005	244
690.437	224
692.868	242
695.299	220
697.729	246
700.159	242
702.586	248
705.014	242
707.441	258
709.866	302
712.292	280
714.716	322
717.14	306
719.563	292
721.984	286
724.406	272
726.825	254
729.246	282
731.665	268
734.082	268
736.5	284
738.916	298
741.332	312
743.746	348
746.161	384
748.574	404
750.987	380
753.398	360
755.81	358
758.219	300
760.629	302
763.037	268
765.445	252
767.852	256
770.258	264
772.664	284
775.068	272
777.472	276
779.876	284
782.278	300
784.679	250
787.08	258
789.48	266
791.879	254
794.278	242
796.675	242
799.072	268
801.467	248
803.864	266
806.258	274
808.651	282
811.044	284
813.437	274
815.828	282
818.218	298
820.608	332
822.997	338
825.385	408
827.773	572
830.16	880
832.546	1296
834.931	1180
837.315	734
839.699	500
842.081	348
844.463	340
846.844	320
849.226	318
851.606	316
853.985	310
856.363	310
858.741	322
861.117	324
863.493	272
865.868	288
868.243	284
870.616	272
872.989	260
875.36	268
877.731	250
880.102	256
882.472	258
884.841	242
887.209	266
889.577	262
891.944	250
894.31	250
896.674	244
899.039	246
901.403	224
903.766	260
906.128	246
908.49	238
910.849	250
913.209	240
915.569	248
917.927	246
920.284	244
922.641	254
924.997	238
927.353	240
929.707	248
932.061	240
934.414	254
936.765	276
939.117	278
941.469	308
943.818	324
946.167	354
948.515	406
950.863	492
953.211	614
955.556	800
957.902	986
960.246	1008
962.59	948
964.933	836
967.276	724
969.617	628
971.958	506
974.298	452
976.638	374
978.976	326
981.314	304
983.651	290
985.988	300
988.323	306
990.659	286
992.992	292
995.325	264
997.658	282
999.99	254
1002.32	264
1004.65	260
1006.98	258
1009.31	270
1011.64	266
1013.97	286
1016.29	284
1018.62	312
1020.94	300
1023.27	318
1025.59	340
1027.91	336
1030.24	350
1032.56	350
1034.88	366
1037.2	358
1039.52	332
1041.84	334
1044.15	354
1046.47	292
1048.79	298
1051.1	286
1053.42	262
1055.73	274
1058.04	244
1060.36	264
1062.67	278
1064.98	278
1067.29	270
1069.6	274
1071.91	282
1074.22	274
1076.52	266
1078.83	278
1081.14	252
1083.44	280
1085.75	268
1088.05	260
1090.35	274
1092.65	256
1094.95	268
1097.26	296
1099.56	280
1101.86	298
1104.15	346
1106.45	436
1108.75	664
1111.05	926
1113.34	974
1115.64	798
1117.93	556
1120.22	452
1122.52	386
1124.81	372
1127.1	360
1129.39	308
1131.68	342
1133.97	326
1136.26	310
1138.54	310
1140.83	328
1143.12	330
1145.4	306
1147.69	290
1149.97	276
1152.25	292
1154.54	296
1156.82	310
1159.1	334
1161.38	350
1163.66	360
1165.94	352
1168.22	348
1170.49	334
1172.77	360
1175.05	332
1177.32	358
1179.6	430
1181.87	512
1184.14	640
1186.42	718
1188.69	662
1190.96	580
1193.23	526
1195.5	472
1197.77	516
1200.03	494
1202.3	542
1204.57	534
1206.83	496
1209.1	412
1211.36	374
1213.63	358
1215.89	308
1218.15	318
1220.41	314
1222.67	332
1224.93	346
1227.19	410
1229.45	426
1231.71	396
1233.97	372
1236.22	360
1238.48	324
1240.73	314
1242.99	318
1245.24	292
1247.5	282
1249.75	294
1252	288
1254.25	296
1256.5	324
1258.75	294
1261	308
1263.25	290
1265.49	324
1267.74	330
1269.99	334
1272.23	340
1274.48	318
1276.72	352
1278.96	360
1281.21	410
1283.45	422
1285.69	472
1287.93	468
1290.17	492
1292.41	586
1294.64	680
1296.88	890
1299.12	1194
1301.36	1662
1303.59	2212
1305.82	2300
1308.06	1988
1310.29	1404
1312.52	1034
1314.76	822
1316.99	686
1319.22	626
1321.45	570
1323.68	556
1325.9	552
1328.13	542
1330.36	490
1332.58	488
1334.81	456
1337.04	394
1339.26	402
1341.48	386
1343.71	412
1345.93	414
1348.15	454
1350.37	470
1352.59	448
1354.81	444
1357.03	398
1359.24	398
1361.46	386
1363.68	384
1365.89	398
1368.11	418
1370.32	468
1372.54	614
1374.75	856
1376.96	1070
1379.17	1164
1381.38	1164
1383.59	996
1385.8	796
1388.01	580
1390.22	442
1392.43	394
1394.63	372
1396.84	350
1399.05	356
1401.25	338
1403.45	348
1405.66	348
1407.86	332
1410.06	362
1412.26	346
1414.46	390
1416.66	386
1418.86	424
1421.06	456
1423.26	472
1425.46	474
1427.65	506
1429.85	486
1432.04	506
1434.24	552
1436.43	596
1438.62	606
1440.82	586
1443.01	584
1445.2	524
1447.39	516
1449.58	510
1451.77	462
1453.95	474
1456.14	460
1458.33	466
1460.52	474
1462.7	458
1464.89	470
1467.07	454
1469.25	412
1471.44	444
1473.62	416
1475.8	422
1477.98	436
1480.16	424
1482.34	422
1484.52	398
1486.7	378
1488.87	356
1491.05	386
1493.23	368
1495.4	354
1497.58	346
1499.75	350
1501.92	382
1504.1	368
1506.27	354
1508.44	340
1510.61	352
1512.78	338
1514.95	350
1517.12	350
1519.28	324
1521.45	348
1523.62	348
1525.78	338
1527.95	322
1530.11	332
1532.28	346
1534.44	332
1536.6	332
1538.76	358
1540.93	352
1543.09	362
1545.25	342
1547.41	340
1549.56	338
1551.72	370
1553.88	350
1556.03	362
1558.19	358
1560.35	364
1562.5	366
1564.65	370
1566.81	382
1568.96	400
1571.11	388
1573.26	448
1575.41	414
1577.56	446
1579.71	504
1581.86	534
1584.01	590
1586.15	664
1588.3	724
1590.45	858
1592.59	996
1594.74	1126
1596.88	1294
1599.02	1488
1601.17	1552
1603.31	1548
1605.45	1466
1607.59	1326
1609.73	1252
1611.87	1090
1614.01	918
1616.14	826
1618.28	672
1620.42	596
1622.55	516
1624.69	466
1626.82	410
1628.96	404
1631.09	372
1633.22	350
1635.36	360
1637.49	322
1639.62	310
1641.75	342
1643.88	344
1646	310
1648.13	324
1650.26	332
1652.39	302
1654.51	304
1656.64	284
1658.76	298
1660.89	304
1663.01	312
1665.13	308
1667.26	286
1669.38	306
1671.5	286
1673.62	302
1675.74	288
1677.86	300
1679.97	298
1682.09	298
1684.21	316
1686.33	298
1688.44	292
1690.56	310
1692.67	306
1694.78	320
1696.9	314
1699.01	320
1701.12	334
1703.23	306
1705.34	304
1707.45	314
1709.56	314
1711.67	310
1713.78	286
1715.88	282
1717.99	306
1720.1	306
1722.2	272
1724.31	306
1726.41	300
1728.51	280
1730.62	284
1732.72	282
1734.82	276
1736.92	272
1739.02	286
1741.12	272
1743.22	280
1745.32	270
1747.42	294
1749.51	282
1751.61	304
1753.7	284
1755.8	286
1757.89	272
1759.99	298
1762.08	284
1764.17	282
1766.26	278
1768.36	266
1770.45	276
1772.54	266
1774.62	280
1776.71	272
1778.8	300
1780.89	282
1782.98	290
1785.06	280
1787.15	278
1789.23	292
1791.32	276
1793.4	298
1795.48	278
1797.56	274
1799.65	278
1801.73	248
1803.81	256
1805.89	272
1807.97	272
1810.04	280
1812.12	278
1814.2	278
1816.28	268
1818.35	264
1820.43	266
1822.5	288
1824.58	286
1826.65	266
1828.72	292
1830.79	274
1832.86	276
1834.94	278
1837.01	280
1839.08	256
1841.15	266
1843.21	276
1845.28	262
1847.35	280
1849.41	274
1851.48	284
1853.55	268
1855.61	262
1857.67	286
1859.74	270
1861.8	258
1863.86	250
1865.92	282
1867.98	290
1870.05	268
1872.1	272
1874.16	260
1876.22	280
1878.28	254
1880.34	264
1882.39	244
1884.45	268
1886.5	262
1888.56	282
1890.61	270
1892.67	280
1894.72	278
1896.77	268
1898.82	300
1900.87	284
1902.92	278
1904.97	248
1907.02	278
1909.07	286
1911.12	260
1913.17	256
1915.21	274
1917.26	294
1919.3	270
1921.35	270
1923.39	266
1925.43	280
1927.48	266
1929.52	278
1931.56	278
1933.6	280
1935.64	244
1937.68	268
1939.72	258
1941.76	270
1943.8	272
1945.83	258
1947.87	286
1949.91	292
1951.94	266
1953.98	274
1956.01	272
1958.05	264
1960.08	260
1962.11	284
1964.14	254
1966.17	272
1968.2	258
1970.23	256
1972.26	274
1974.29	278
1976.32	276
1978.35	272
1980.37	274
1982.4	310
1984.43	278
1986.45	258
1988.48	254
1990.5	270
1992.52	280
1994.55	284
1996.57	280
1998.59	278
2000.61	284
2002.63	276
2004.65	268
2006.67	258
2008.69	276
2010.7	286
2012.72	282
2014.74	256
2016.75	272
2018.77	280
2020.78	278
2022.8	282
2024.81	274
2026.83	260
2028.84	254
2030.85	272
2032.86	270
2034.87	246
2036.88	286
2038.89	270
2040.9	272
2042.91	262
2044.91	278
2046.92	262
2048.93	266
2050.93	276
2052.94	284
2054.94	262
2056.95	274
2058.95	266
2060.95	276
2062.95	260
2064.96	260
2066.96	280
2068.96	252
2070.96	268
2072.96	284
2074.95	264
2076.95	260
2078.95	270
2080.95	264
2082.94	256
2084.94	260
2086.93	264
2088.93	258
2090.92	272
2092.91	266
2094.91	278
2096.9	268
2098.89	276
2100.88	264
2102.87	264
2104.86	246
2106.85	260
2108.84	260
2110.83	266
2112.81	266
2114.8	248
2116.78	270
2118.77	256
2120.75	260
2122.74	254
2124.72	260
2126.71	250
2128.69	262
2130.67	270
2132.65	256
2134.63	264
2136.61	256
2138.59	240
2140.57	266
2142.55	268
2144.53	264
2146.5	266
2148.48	240
2150.46	256
2152.43	250
2154.41	272
2156.38	248
2158.35	252
2160.33	256
2162.3	272
2164.27	248
2166.24	242
2168.21	276
2170.18	282
2172.15	244
2174.12	270
2176.09	242
2178.06	256
2180.03	270
2181.99	268
2183.96	250
2185.92	252
2187.89	248
2189.85	258
2191.82	264
2193.78	236
2195.74	260
2197.7	260
2199.67	276
2201.63	266
2203.59	254
2205.55	256
2207.51	272
2209.46	234
2211.42	260
2213.38	272
2215.34	252
2217.29	260
2219.25	246
2221.2	236
2223.16	260
2225.11	264
2227.06	248
2229.02	256
2230.97	252
2232.92	262
2234.87	248
2236.82	262
2238.77	266
2240.72	268
2242.67	258
2244.62	264
2246.57	272
2248.51	264
2250.46	262
2252.4	280
2254.35	262
2256.29	266
2258.24	248
2260.18	262
2262.13	258
2264.07	274
2266.01	256
2267.95	236
2269.89	258
2271.83	262
2273.77	270
2275.71	254
2277.65	262
2279.58	264
2281.52	264
2283.46	234
2285.4	236
2287.33	266
2289.27	258
2291.2	244
2293.13	270
2295.07	252
2297	254
2298.93	252
2300.86	270
2302.79	244
2304.72	276
2306.65	272
2308.58	264
2310.51	252
2312.44	264
2314.37	254
2316.29	258
2318.22	278
2320.15	266
2322.07	266
2324	250
2325.92	270
2327.84	284
2329.77	270
2331.69	260
2333.61	290
2335.53	246
2337.45	258
2339.37	238
2341.29	268
2343.21	270
2345.13	268
2347.05	266
2348.97	260
2350.88	268
2352.8	252
2354.71	244
2356.63	258
2358.54	240
2360.46	262
2362.37	268
2364.28	256
2366.2	270
2368.11	258
2370.02	262
2371.93	248
2373.84	250
2375.75	256
2377.66	256
2379.57	258
2381.47	254
2383.38	244
2385.29	266
2387.2	264
2389.1	284
2391.01	272
2392.91	274
2394.81	256
2396.72	274
2398.62	282
2400.52	252
2402.42	258
2404.33	272
2406.23	270
2408.13	264
2410.03	256
2411.92	270
2413.82	280
2415.72	264
2417.62	272
2419.51	262
2421.41	248
2423.31	260
2425.2	260
2427.1	252
2428.99	256
2430.88	242
2432.78	248
2434.67	246
2436.56	252
2438.45	252
2440.34	252
2442.23	236
2444.12	256
2446.01	248
2447.9	258
2449.79	254