File: Mixture_Classification/Jesse_Dataset_v2/Pure Raman/Polypropylene oxide/633nm/ps-ppo-7jan25-0,0000-map2_Y05_X00.txt
182.393	726
184.993	696
187.593	672
190.193	642
192.79	620
195.387	618
197.983	556
200.578	562
203.174	548
205.766	520
208.36	508
210.951	522
213.542	502
216.131	478
218.721	490
221.309	528
223.897	630
226.483	760
229.069	980
231.654	1188
234.238	1320
236.821	1288
239.404	1188
241.984	1062
244.566	910
247.145	794
249.723	658
252.302	590
254.878	508
257.455	428
260.03	418
262.604	390
265.178	330
267.75	314
270.322	316
272.893	304
275.463	314
278.032	306
280.601	340
283.168	362
285.734	412
288.301	498
290.866	584
293.429	640
295.992	662
298.556	620
301.117	574
303.677	544
306.236	512
308.795	464
311.354	424
313.911	428
316.467	396
319.022	382
321.577	372
324.13	408
326.684	404
329.236	402
331.787	406
334.337	454
336.887	404
339.435	428
341.983	380
344.529	376
347.075	370
349.621	382
352.165	400
354.708	380
357.251	396
359.793	400
362.334	358
364.874	366
367.413	354
369.951	344
372.489	362
375.026	358
377.562	324
380.097	328
382.631	282
385.164	280
387.697	284
390.229	260
392.76	272
395.29	248
397.819	262
400.346	256
402.873	276
405.4	270
407.926	288
410.451	350
412.976	378
415.499	408
418.02	370
420.542	342
423.063	304
425.583	290
428.101	276
430.619	238
433.137	232
435.654	222
438.169	220
440.684	216
443.198	212
445.712	208
448.223	206
450.735	200
453.246	218
455.755	202
458.264	204
460.771	230
463.279	224
465.786	248
468.291	276
470.796	324
473.301	336
475.803	398
478.306	414
480.807	458
483.308	498
485.807	524
488.307	468
490.804	388
493.302	338
495.798	304
498.294	284
500.788	244
503.283	240
505.775	268
508.269	290
510.759	366
513.251	436
515.74	400
518.23	354
520.718	308
523.204	310
525.692	374
528.177	424
530.663	508
533.147	616
535.629	738
538.113	826
540.594	816
543.074	714
545.555	596
548.034	480
550.512	458
552.989	408
555.467	452
557.942	550
560.417	740
562.892	1046
565.365	1666
567.838	2766
570.309	3802
572.78	3828
575.251	2690
577.72	1552
580.189	946
582.656	730
585.123	670
587.589	632
590.055	592
592.52	560
594.983	508
597.446	470
599.908	388
602.369	358
604.829	300
607.289	254
609.747	256
612.205	236
614.663	252
617.119	244
619.574	242
622.029	266
624.483	288
626.936	296
629.389	330
631.84	342
634.291	344
636.741	386
639.19	320
641.639	308
644.086	300
646.533	294
648.979	262
651.424	254
653.869	230
656.313	228
658.754	194
661.196	226
663.638	198
666.078	202
668.518	202
670.957	192
673.394	184
675.831	206
678.268	194
680.703	186
683.137	200
685.571	194
688.005	204
690.437	186
692.868	184
695.299	194
697.729	176
700.159	188
702.586	194
705.014	214
707.441	202
709.866	210
712.292	264
714.716	284
717.14	278
719.563	248
721.984	244
724.406	236
726.825	234
729.246	238
731.665	242
734.082	254
736.5	236
738.916	226
741.332	270
743.746	312
746.161	364
748.574	358
750.987	352
753.398	308
755.81	292
758.219	272
760.629	250
763.037	204
765.445	220
767.852	206
770.258	218
772.664	230
775.068	242
777.472	230
779.876	234
782.278	230
784.679	250
787.08	216
789.48	226
791.879	230
794.278	222
796.675	220
799.072	222
801.467	224
803.864	236
806.258	224
808.651	234
811.044	238
813.437	228
815.828	256
818.218	262
820.608	260
822.997	308
825.385	374
827.773	564
830.16	842
832.546	1216
834.931	1102
837.315	696
839.699	412
842.081	340
844.463	282
846.844	290
849.226	294
851.606	308
853.985	298
856.363	262
858.741	276
861.117	256
863.493	242
865.868	242
868.243	250
870.616	216
872.989	234
875.36	218
877.731	220
880.102	216
882.472	232
884.841	210
887.209	208
889.577	208
891.944	200
894.31	204
896.674	204
899.039	192
901.403	186
903.766	234
906.128	220
908.49	204
910.849	218
913.209	198
915.569	190
917.927	194
920.284	210
922.641	210
924.997	218
927.353	220
929.707	212
932.061	220
934.414	228
936.765	252
939.117	242
941.469	276
943.818	300
946.167	296
948.515	370
950.863	454
953.211	564
955.556	734
957.902	952
960.246	1002
962.59	916
964.933	808
967.276	694
969.617	572
971.958	502
974.298	410
976.638	350
978.976	294
981.314	256
983.651	280
985.988	260
988.323	258
990.659	264
992.992	266
995.325	236
997.658	226
999.99	214
1002.32	220
1004.65	228
1006.98	236
1009.31	228
1011.64	240
1013.97	226
1016.29	236
1018.62	244
1020.94	280
1023.27	262
1025.59	264
1027.91	278
1030.24	306
1032.56	278
1034.88	318
1037.2	306
1039.52	320
1041.84	300
1044.15	278
1046.47	276
1048.79	242
1051.1	248
1053.42	230
1055.73	240
1058.04	224
1060.36	228
1062.67	234
1064.98	244
1067.29	232
1069.6	220
1071.91	228
1074.22	228
1076.52	228
1078.83	236
1081.14	238
1083.44	214
1085.75	236
1088.05	222
1090.35	244
1092.65	246
1094.95	232
1097.26	238
1099.56	230
1101.86	288
1104.15	306
1106.45	404
1108.75	578
1111.05	868
1113.34	982
1115.64	780
1117.93	518
1120.22	402
1122.52	348
1124.81	320
1127.1	310
1129.39	290
1131.68	286
1133.97	288
1136.26	266
1138.54	276
1140.83	286
1143.12	276
1145.4	284
1147.69	274
1149.97	266
1152.25	262
1154.54	268
1156.82	260
1159.1	284
1161.38	320
1163.66	302
1165.94	306
1168.22	278
1170.49	290
1172.77	294
1175.05	310
1177.32	340
1179.6	400
1181.87	482
1184.14	606
1186.42	696
1188.69	610
1190.96	528
1193.23	502
1195.5	468
1197.77	472
1200.03	480
1202.3	508
1204.57	484
1206.83	456
1209.1	378
1211.36	358
1213.63	322
1215.89	296
1218.15	284
1220.41	270
1222.67	274
1224.93	304
1227.19	356
1229.45	388
1231.71	384
1233.97	338
1236.22	286
1238.48	290
1240.73	250
1242.99	264
1245.24	258
1247.5	258
1249.75	264
1252	252
1254.25	244
1256.5	258
1258.75	262
1261	258
1263.25	288
1265.49	284
1267.74	294
1269.99	270
1272.23	290
1274.48	314
1276.72	314
1278.96	304
1281.21	376
1283.45	398
1285.69	418
1287.93	416
1290.17	480
1292.41	544
1294.64	638
1296.88	816
1299.12	1190
1301.36	1630
1303.59	2110
1305.82	2232
1308.06	1840
1310.29	1392
1312.52	1016
1314.76	784
1316.99	676
1319.22	576
1321.45	516
1323.68	494
1325.9	516
1328.13	498
1330.36	464
1332.58	446
1334.81	410
1337.04	372
1339.26	370
1341.48	362
1343.71	394
1345.93	410
1348.15	420
1350.37	394
1352.59	394
1354.81	404
1357.03	368
1359.24	350
1361.46	348
1363.68	388
1365.89	346
1368.11	358
1370.32	444
1372.54	556
1374.75	798
1376.96	1044
1379.17	1092
1381.38	1076
1383.59	946
1385.8	756
1388.01	560
1390.22	428
1392.43	366
1394.63	314
1396.84	312
1399.05	294
1401.25	306
1403.45	308
1405.66	306
1407.86	298
1410.06	314
1412.26	314
1414.46	322
1416.66	370
1418.86	372
1421.06	404
1423.26	414
1425.46	438
1427.65	444
1429.85	452
1432.04	450
1434.24	494
1436.43	522
1438.62	540
1440.82	562
1443.01	546
1445.2	490
1447.39	482
1449.58	424
1451.77	452
1453.95	420
1456.14	414
1458.33	438
1460.52	410
1462.7	406
1464.89	398
1467.07	398
1469.25	420
1471.44	398
1473.62	390
1475.8	408
1477.98	384
1480.16	398
1482.34	370
1484.52	354
1486.7	340
1488.87	342
1491.05	326
1493.23	312
1495.4	310
1497.58	300
1499.75	312
1501.92	322
1504.1	324
1506.27	314
1508.44	314
1510.61	300
1512.78	300
1514.95	300
1517.12	326
1519.28	306
1521.45	318
1523.62	320
1525.78	298
1527.95	300
1530.11	302
1532.28	306
1534.44	292
1536.6	292
1538.76	296
1540.93	298
1543.09	332
1545.25	320
1547.41	324
1549.56	308
1551.72	296
1553.88	324
1556.03	328
1558.19	320
1560.35	314
1562.5	322
1564.65	342
1566.81	332
1568.96	334
1571.11	358
1573.26	376
1575.41	402
1577.56	432
1579.71	476
1581.86	506
1584.01	540
1586.15	602
1588.3	700
1590.45	808
1592.59	926
1594.74	1092
1596.88	1264
1599.02	1400
1601.17	1490
1603.31	1542
1605.45	1430
1607.59	1302
1609.73	1184
1611.87	1028
1614.01	904
1616.14	778
1618.28	666
1620.42	560
1622.55	480
1624.69	438
1626.82	384
1628.96	332
1631.09	324
1633.22	340
1635.36	296
1637.49	314
1639.62	304
1641.75	282
1643.88	292
1646	294
1648.13	276
1650.26	298
1652.39	264
1654.51	274
1656.64	268
1658.76	258
1660.89	282
1663.01	270
1665.13	266
1667.26	254
1669.38	252
1671.5	256
1673.62	268
1675.74	272
1677.86	242
1679.97	264
1682.09	258
1684.21	242
1686.33	278
1688.44	258
1690.56	286
1692.67	290
1694.78	306
1696.9	272
1699.01	286
1701.12	260
1703.23	280
1705.34	276
1707.45	260
1709.56	264
1711.67	276
1713.78	280
1715.88	248
1717.99	256
1720.1	262
1722.2	270
1724.31	238
1726.41	264
1728.51	240
1730.62	258
1732.72	248
1734.82	268
1736.92	238
1739.02	236
1741.12	260
1743.22	250
1745.32	254
1747.42	260
1749.51	240
1751.61	254
1753.7	240
1755.8	240
1757.89	236
1759.99	238
1762.08	250
1764.17	240
1766.26	240
1768.36	216
1770.45	252
1772.54	236
1774.62	240
1776.71	242
1778.8	238
1780.89	234
1782.98	222
1785.06	252
1787.15	238
1789.23	238
1791.32	244
1793.4	226
1795.48	244
1797.56	226
1799.65	236
1801.73	234
1803.81	240
1805.89	232
1807.97	264
1810.04	238
1812.12	250
1814.2	246
1816.28	230
1818.35	228
1820.43	244
1822.5	234
1824.58	242
1826.65	248
1828.72	236
1830.79	236
1832.86	230
1834.94	232
1837.01	242
1839.08	244
1841.15	232
1843.21	236
1845.28	224
1847.35	244
1849.41	230
1851.48	222
1853.55	232
1855.61	242
1857.67	238
1859.74	248
1861.8	238
1863.86	246
1865.92	238
1867.98	242
1870.05	222
1872.1	242
1874.16	250
1876.22	240
1878.28	238
1880.34	230
1882.39	238
1884.45	252
1886.5	232
1888.56	210
1890.61	236
1892.67	240
1894.72	242
1896.77	242
1898.82	240
1900.87	242
1902.92	230
1904.97	236
1907.02	240
1909.07	230
1911.12	252
1913.17	252
1915.21	242
1917.26	238
1919.3	242
1921.35	246
1923.39	244
1925.43	242
1927.48	236
1929.52	248
1931.56	262
1933.6	234
1935.64	238
1937.68	238
1939.72	236
1941.76	218
1943.8	224
1945.83	236
1947.87	234
1949.91	248
1951.94	242
1953.98	222
1956.01	240
1958.05	236
1960.08	218
1962.11	242
1964.14	234
1966.17	246
1968.2	230
1970.23	224
1972.26	236
1974.29	232
1976.32	244
1978.35	252
1980.37	230
1982.4	226
1984.43	242
1986.45	242
1988.48	266
1990.5	246
1992.52	240
1994.55	228
1996.57	246
1998.59	252
2000.61	246
2002.63	264
2004.65	216
2006.67	236
2008.69	242
2010.7	250
2012.72	228
2014.74	236
2016.75	254
2018.77	250
2020.78	226
2022.8	234
2024.81	248
2026.83	240
2028.84	252
2030.85	236
2032.86	232
2034.87	230
2036.88	234
2038.89	244
2040.9	244
2042.91	208
2044.91	238
2046.92	232
2048.93	222
2050.93	236
2052.94	240
2054.94	252
2056.95	252
2058.95	246
2060.95	244
2062.95	244
2064.96	234
2066.96	246
2068.96	222
2070.96	224
2072.96	232
2074.95	254
2076.95	230
2078.95	226
2080.95	238
2082.94	238
2084.94	226
2086.93	244
2088.93	216
2090.92	232
2092.91	242
2094.91	246
2096.9	242
2098.89	244
2100.88	238
2102.87	222
2104.86	236
2106.85	238
2108.84	236
2110.83	230
2112.81	238
2114.8	242
2116.78	230
2118.77	230
2120.75	246
2122.74	240
2124.72	228
2126.71	232
2128.69	228
2130.67	240
2132.65	218
2134.63	224
2136.61	232
2138.59	234
2140.57	242
2142.55	222
2144.53	254
2146.5	244
2148.48	228
2150.46	238
2152.43	222
2154.41	224
2156.38	244
2158.35	230
2160.33	240
2162.3	238
2164.27	240
2166.24	224
2168.21	232
2170.18	238
2172.15	242
2174.12	220
2176.09	244
2178.06	228
2180.03	240
2181.99	246
2183.96	228
2185.92	224
2187.89	226
2189.85	230
2191.82	226
2193.78	230
2195.74	240
2197.7	236
2199.67	218
2201.63	206
2203.59	244
2205.55	228
2207.51	244
2209.46	232
2211.42	226
2213.38	224
2215.34	238
2217.29	214
2219.25	222
2221.2	228
2223.16	218
2225.11	238
2227.06	226
2229.02	240
2230.97	238
2232.92	226
2234.87	238
2236.82	234
2238.77	232
2240.72	222
2242.67	246
2244.62	236
2246.57	236
2248.51	224
2250.46	222
2252.4	224
2254.35	244
2256.29	218
2258.24	240
2260.18	250
2262.13	236
2264.07	226
2266.01	222
2267.95	226
2269.89	252
2271.83	226
2273.77	220
2275.71	228
2277.65	256
2279.58	244
2281.52	224
2283.46	232
2285.4	228
2287.33	248
2289.27	220
2291.2	244
2293.13	246
2295.07	210
2297	234
2298.93	230
2300.86	226
2302.79	232
2304.72	236
2306.65	248
2308.58	244
2310.51	232
2312.44	232
2314.37	236
2316.29	248
2318.22	238
2320.15	228
2322.07	238
2324	236
2325.92	224
2327.84	246
2329.77	228
2331.69	260
2333.61	240
2335.53	246
2337.45	238
2339.37	248
2341.29	236
2343.21	242
2345.13	222
2347.05	234
2348.97	240
2350.88	234
2352.8	230
2354.71	222
2356.63	228
2358.54	226
2360.46	236
2362.37	244
2364.28	222
2366.2	240
2368.11	230
2370.02	224
2371.93	236
2373.84	230
2375.75	246
2377.66	234
2379.57	250
2381.47	240
2383.38	240
2385.29	262
2387.2	226
2389.1	224
2391.01	226
2392.91	216
2394.81	228
2396.72	232
2398.62	256
2400.52	236
2402.42	238
2404.33	258
2406.23	242
2408.13	246
2410.03	228
2411.92	240
2413.82	234
2415.72	232
2417.62	232
2419.51	228
2421.41	224
2423.31	228
2425.2	202
2427.1	230
2428.99	224
2430.88	228
2432.78	222
2434.67	236
2436.56	244
2438.45	242
2440.34	242
2442.23	216
2444.12	212
2446.01	214
2447.9	230
2449.79	242