File: Mixture_Classification/Jesse_Dataset_v2/Pure Raman/Polypropylene oxide/633nm/ps-ppo-7jan25-0,0000-map2_Y03_X07.txt
182.393	726
184.993	656
187.593	666
190.193	616
192.79	606
195.387	568
197.983	556
200.578	516
203.174	512
205.766	534
208.36	504
210.951	472
213.542	466
216.131	458
218.721	460
221.309	506
223.897	582
226.483	756
229.069	950
231.654	1158
234.238	1276
236.821	1246
239.404	1096
241.984	1060
244.566	860
247.145	766
249.723	608
252.302	530
254.878	458
257.455	412
260.03	376
262.604	326
265.178	346
267.75	286
270.322	304
272.893	266
275.463	294
278.032	290
280.601	320
283.168	334
285.734	394
288.301	472
290.866	532
293.429	596
295.992	624
298.556	614
301.117	580
303.677	504
306.236	464
308.795	436
311.354	388
313.911	392
316.467	344
319.022	366
321.577	356
324.13	352
326.684	374
329.236	398
331.787	406
334.337	406
336.887	390
339.435	388
341.983	356
344.529	344
347.075	354
349.621	346
352.165	344
354.708	382
357.251	334
359.793	360
362.334	342
364.874	328
367.413	336
369.951	316
372.489	330
375.026	330
377.562	300
380.097	308
382.631	272
385.164	254
387.697	246
390.229	240
392.76	238
395.29	232
397.819	222
400.346	242
402.873	234
405.4	242
407.926	302
410.451	312
412.976	354
415.499	390
418.02	370
420.542	306
423.063	260
425.583	258
428.101	238
430.619	212
433.137	220
435.654	192
438.169	212
440.684	186
443.198	154
445.712	162
448.223	162
450.735	188
453.246	154
455.755	178
458.264	168
460.771	174
463.279	210
465.786	208
468.291	222
470.796	264
473.301	300
475.803	376
478.306	380
480.807	462
483.308	478
485.807	536
488.307	476
490.804	366
493.302	308
495.798	262
498.294	238
500.788	214
503.283	208
505.775	224
508.269	264
510.759	322
513.251	394
515.74	378
518.23	310
520.718	274
523.204	304
525.692	338
528.177	386
530.663	460
533.147	606
535.629	694
538.113	752
540.594	792
543.074	702
545.555	532
548.034	424
550.512	390
552.989	406
555.467	430
557.942	514
560.417	688
562.892	1010
565.365	1666
567.838	2650
570.309	3660
572.78	3710
575.251	2602
577.72	1534
580.189	952
582.656	730
585.123	644
587.589	596
590.055	588
592.52	512
594.983	514
597.446	474
599.908	382
602.369	306
604.829	266
607.289	232
609.747	230
612.205	230
614.663	220
617.119	234
619.574	234
622.029	244
624.483	242
626.936	262
629.389	286
631.84	322
634.291	308
636.741	306
639.19	314
641.639	294
644.086	268
646.533	218
648.979	236
651.424	220
653.869	210
656.313	210
658.754	204
661.196	184
663.638	186
666.078	180
668.518	178
670.957	174
673.394	160
675.831	170
678.268	158
680.703	160
683.137	168
685.571	172
688.005	172
690.437	162
692.868	158
695.299	162
697.729	154
700.159	156
702.586	168
705.014	166
707.441	198
709.866	216
712.292	224
714.716	224
717.14	228
719.563	212
721.984	208
724.406	194
726.825	202
729.246	204
731.665	206
734.082	208
736.5	210
738.916	220
741.332	254
743.746	250
746.161	326
748.574	332
750.987	310
753.398	278
755.81	260
758.219	248
760.629	230
763.037	188
765.445	208
767.852	204
770.258	202
772.664	198
775.068	202
777.472	212
779.876	210
782.278	222
784.679	206
787.08	194
789.48	192
791.879	192
794.278	190
796.675	172
799.072	202
801.467	176
803.864	194
806.258	212
808.651	206
811.044	210
813.437	196
815.828	226
818.218	200
820.608	234
822.997	262
825.385	336
827.773	498
830.16	820
832.546	1224
834.931	1102
837.315	672
839.699	384
842.081	296
844.463	282
846.844	276
849.226	258
851.606	268
853.985	238
856.363	246
858.741	228
861.117	230
863.493	216
865.868	224
868.243	216
870.616	196
872.989	186
875.36	182
877.731	170
880.102	186
882.472	200
884.841	198
887.209	178
889.577	182
891.944	174
894.31	180
896.674	170
899.039	188
901.403	174
903.766	170
906.128	182
908.49	176
910.849	180
913.209	186
915.569	166
917.927	174
920.284	176
922.641	170
924.997	182
927.353	186
929.707	170
932.061	200
934.414	208
936.765	202
939.117	228
941.469	230
943.818	252
946.167	266
948.515	330
950.863	406
953.211	542
955.556	682
957.902	880
960.246	946
962.59	902
964.933	768
967.276	624
969.617	528
971.958	426
974.298	380
976.638	296
978.976	254
981.314	254
983.651	234
985.988	208
988.323	214
990.659	228
992.992	236
995.325	194
997.658	210
999.99	208
1002.32	196
1004.65	182
1006.98	198
1009.31	202
1011.64	210
1013.97	212
1016.29	226
1018.62	228
1020.94	246
1023.27	236
1025.59	248
1027.91	248
1030.24	286
1032.56	282
1034.88	272
1037.2	270
1039.52	282
1041.84	254
1044.15	240
1046.47	238
1048.79	206
1051.1	198
1053.42	202
1055.73	222
1058.04	208
1060.36	192
1062.67	190
1064.98	210
1067.29	212
1069.6	204
1071.91	202
1074.22	194
1076.52	202
1078.83	192
1081.14	208
1083.44	200
1085.75	186
1088.05	212
1090.35	216
1092.65	212
1094.95	220
1097.26	220
1099.56	226
1101.86	254
1104.15	274
1106.45	366
1108.75	558
1111.05	830
1113.34	908
1115.64	724
1117.93	504
1120.22	390
1122.52	312
1124.81	266
1127.1	248
1129.39	230
1131.68	246
1133.97	266
1136.26	244
1138.54	244
1140.83	272
1143.12	256
1145.4	244
1147.69	250
1149.97	206
1152.25	220
1154.54	238
1156.82	252
1159.1	250
1161.38	276
1163.66	278
1165.94	276
1168.22	250
1170.49	242
1172.77	256
1175.05	278
1177.32	310
1179.6	374
1181.87	458
1184.14	532
1186.42	608
1188.69	582
1190.96	524
1193.23	442
1195.5	438
1197.77	438
1200.03	444
1202.3	466
1204.57	460
1206.83	394
1209.1	346
1211.36	308
1213.63	262
1215.89	264
1218.15	256
1220.41	254
1222.67	260
1224.93	288
1227.19	326
1229.45	334
1231.71	332
1233.97	320
1236.22	254
1238.48	256
1240.73	240
1242.99	222
1245.24	250
1247.5	214
1249.75	224
1252	222
1254.25	226
1256.5	228
1258.75	214
1261	222
1263.25	240
1265.49	254
1267.74	254
1269.99	260
1272.23	254
1274.48	242
1276.72	276
1278.96	318
1281.21	338
1283.45	354
1285.69	384
1287.93	404
1290.17	464
1292.41	496
1294.64	636
1296.88	788
1299.12	1144
1301.36	1584
1303.59	2076
1305.82	2238
1308.06	1948
1310.29	1328
1312.52	976
1314.76	730
1316.99	612
1319.22	574
1321.45	494
1323.68	474
1325.9	458
1328.13	482
1330.36	436
1332.58	428
1334.81	370
1337.04	356
1339.26	356
1341.48	318
1343.71	346
1345.93	360
1348.15	404
1350.37	404
1352.59	380
1354.81	376
1357.03	354
1359.24	310
1361.46	312
1363.68	312
1365.89	326
1368.11	322
1370.32	412
1372.54	544
1374.75	764
1376.96	990
1379.17	1114
1381.38	1044
1383.59	916
1385.8	716
1388.01	512
1390.22	420
1392.43	330
1394.63	274
1396.84	306
1399.05	298
1401.25	284
1403.45	286
1405.66	276
1407.86	270
1410.06	288
1412.26	290
1414.46	306
1416.66	312
1418.86	324
1421.06	372
1423.26	368
1425.46	408
1427.65	416
1429.85	416
1432.04	430
1434.24	458
1436.43	484
1438.62	492
1440.82	526
1443.01	486
1445.2	468
1447.39	434
1449.58	448
1451.77	402
1453.95	398
1456.14	404
1458.33	374
1460.52	372
1462.7	364
1464.89	376
1467.07	346
1469.25	386
1471.44	358
1473.62	358
1475.8	382
1477.98	358
1480.16	344
1482.34	342
1484.52	320
1486.7	332
1488.87	312
1491.05	296
1493.23	314
1495.4	280
1497.58	284
1499.75	282
1501.92	282
1504.1	286
1506.27	270
1508.44	280
1510.61	290
1512.78	292
1514.95	278
1517.12	274
1519.28	266
1521.45	256
1523.62	278
1525.78	272
1527.95	296
1530.11	248
1532.28	262
1534.44	276
1536.6	270
1538.76	272
1540.93	266
1543.09	304
1545.25	270
1547.41	304
1549.56	284
1551.72	276
1553.88	272
1556.03	282
1558.19	270
1560.35	286
1562.5	302
1564.65	282
1566.81	310
1568.96	320
1571.11	344
1573.26	366
1575.41	358
1577.56	416
1579.71	436
1581.86	450
1584.01	516
1586.15	568
1588.3	706
1590.45	792
1592.59	936
1594.74	1058
1596.88	1224
1599.02	1416
1601.17	1472
1603.31	1498
1605.45	1388
1607.59	1348
1609.73	1142
1611.87	996
1614.01	894
1616.14	758
1618.28	626
1620.42	540
1622.55	444
1624.69	396
1626.82	360
1628.96	360
1631.09	306
1633.22	302
1635.36	274
1637.49	280
1639.62	250
1641.75	256
1643.88	248
1646	252
1648.13	256
1650.26	242
1652.39	234
1654.51	264
1656.64	232
1658.76	234
1660.89	228
1663.01	236
1665.13	228
1667.26	232
1669.38	224
1671.5	234
1673.62	220
1675.74	226
1677.86	238
1679.97	240
1682.09	232
1684.21	224
1686.33	242
1688.44	240
1690.56	256
1692.67	230
1694.78	236
1696.9	254
1699.01	236
1701.12	248
1703.23	240
1705.34	250
1707.45	248
1709.56	250
1711.67	246
1713.78	230
1715.88	242
1717.99	226
1720.1	228
1722.2	230
1724.31	214
1726.41	224
1728.51	212
1730.62	214
1732.72	224
1734.82	208
1736.92	202
1739.02	214
1741.12	214
1743.22	220
1745.32	214
1747.42	220
1749.51	208
1751.61	206
1753.7	216
1755.8	208
1757.89	204
1759.99	224
1762.08	226
1764.17	238
1766.26	206
1768.36	214
1770.45	224
1772.54	218
1774.62	208
1776.71	208
1778.8	214
1780.89	200
1782.98	210
1785.06	194
1787.15	196
1789.23	206
1791.32	216
1793.4	218
1795.48	234
1797.56	216
1799.65	186
1801.73	214
1803.81	214
1805.89	220
1807.97	214
1810.04	206
1812.12	194
1814.2	196
1816.28	202
1818.35	204
1820.43	210
1822.5	218
1824.58	206
1826.65	196
1828.72	224
1830.79	220
1832.86	216
1834.94	200
1837.01	204
1839.08	208
1841.15	210
1843.21	206
1845.28	206
1847.35	206
1849.41	234
1851.48	198
1853.55	210
1855.61	198
1857.67	218
1859.74	212
1861.8	196
1863.86	198
1865.92	196
1867.98	208
1870.05	200
1872.1	212
1874.16	210
1876.22	210
1878.28	196
1880.34	222
1882.39	210
1884.45	210
1886.5	210
1888.56	204
1890.61	206
1892.67	220
1894.72	214
1896.77	222
1898.82	228
1900.87	206
1902.92	210
1904.97	216
1907.02	206
1909.07	204
1911.12	214
1913.17	212
1915.21	210
1917.26	206
1919.3	212
1921.35	212
1923.39	196
1925.43	208
1927.48	206
1929.52	212
1931.56	222
1933.6	212
1935.64	212
1937.68	210
1939.72	214
1941.76	208
1943.8	206
1945.83	198
1947.87	212
1949.91	212
1951.94	192
1953.98	198
1956.01	222
1958.05	198
1960.08	208
1962.11	220
1964.14	208
1966.17	198
1968.2	210
1970.23	210
1972.26	222
1974.29	208
1976.32	230
1978.35	208
1980.37	208
1982.4	208
1984.43	202
1986.45	204
1988.48	200
1990.5	208
1992.52	204
1994.55	218
1996.57	198
1998.59	208
2000.61	200
2002.63	202
2004.65	192
2006.67	216
2008.69	226
2010.7	214
2012.72	212
2014.74	184
2016.75	198
2018.77	206
2020.78	214
2022.8	208
2024.81	208
2026.83	222
2028.84	206
2030.85	222
2032.86	212
2034.87	222
2036.88	220
2038.89	218
2040.9	200
2042.91	214
2044.91	208
2046.92	214
2048.93	202
2050.93	210
2052.94	210
2054.94	196
2056.95	198
2058.95	228
2060.95	220
2062.95	208
2064.96	216
2066.96	204
2068.96	214
2070.96	202
2072.96	220
2074.95	208
2076.95	218
2078.95	228
2080.95	218
2082.94	200
2084.94	196
2086.93	216
2088.93	204
2090.92	206
2092.91	208
2094.91	206
2096.9	210
2098.89	202
2100.88	204
2102.87	204
2104.86	202
2106.85	224
2108.84	206
2110.83	198
2112.81	204
2114.8	210
2116.78	216
2118.77	210
2120.75	220
2122.74	214
2124.72	198
2126.71	200
2128.69	218
2130.67	212
2132.65	184
2134.63	202
2136.61	208
2138.59	208
2140.57	220
2142.55	218
2144.53	210
2146.5	212
2148.48	196
2150.46	202
2152.43	206
2154.41	200
2156.38	194
2158.35	204
2160.33	228
2162.3	200
2164.27	210
2166.24	208
2168.21	198
2170.18	208
2172.15	212
2174.12	200
2176.09	212
2178.06	214
2180.03	206
2181.99	202
2183.96	214
2185.92	208
2187.89	206
2189.85	196
2191.82	210
2193.78	186
2195.74	194
2197.7	200
2199.67	202
2201.63	218
2203.59	204
2205.55	192
2207.51	212
2209.46	196
2211.42	202
2213.38	206
2215.34	218
2217.29	208
2219.25	208
2221.2	208
2223.16	214
2225.11	206
2227.06	192
2229.02	222
2230.97	218
2232.92	210
2234.87	214
2236.82	208
2238.77	216
2240.72	208
2242.67	224
2244.62	212
2246.57	214
2248.51	220
2250.46	216
2252.4	210
2254.35	194
2256.29	212
2258.24	188
2260.18	182
2262.13	202
2264.07	202
2266.01	212
2267.95	188
2269.89	226
2271.83	206
2273.77	220
2275.71	184
2277.65	202
2279.58	204
2281.52	198
2283.46	208
2285.4	222
2287.33	208
2289.27	222
2291.2	188
2293.13	196
2295.07	210
2297	204
2298.93	192
2300.86	202
2302.79	212
2304.72	202
2306.65	222
2308.58	224
2310.51	206
2312.44	210
2314.37	204
2316.29	228
2318.22	216
2320.15	202
2322.07	226
2324	230
2325.92	192
2327.84	212
2329.77	200
2331.69	206
2333.61	212
2335.53	212
2337.45	218
2339.37	226
2341.29	206
2343.21	210
2345.13	216
2347.05	226
2348.97	226
2350.88	220
2352.8	206
2354.71	200
2356.63	204
2358.54	214
2360.46	220
2362.37	198
2364.28	214
2366.2	236
2368.11	224
2370.02	210
2371.93	210
2373.84	200
2375.75	188
2377.66	220
2379.57	216
2381.47	220
2383.38	218
2385.29	210
2387.2	208
2389.1	236
2391.01	222
2392.91	214
2394.81	210
2396.72	212
2398.62	228
2400.52	208
2402.42	228
2404.33	230
2406.23	206
2408.13	216
2410.03	218
2411.92	234
2413.82	210
2415.72	200
2417.62	226
2419.51	218
2421.41	202
2423.31	190
2425.2	196
2427.1	206
2428.99	218
2430.88	204
2432.78	220
2434.67	212
2436.56	206
2438.45	210
2440.34	224
2442.23	206
2444.12	210
2446.01	186
2447.9	206
2449.79	216