File: Mixture_Classification/Jesse_Dataset_v2/Pure Raman/Polypropylene oxide/633nm/ps-ppo-7jan25-0,0000-map2_Y01_X09.txt
182.393	696
184.993	684
187.593	690
190.193	620
192.79	598
195.387	568
197.983	564
200.578	528
203.174	524
205.766	524
208.36	498
210.951	496
213.542	486
216.131	466
218.721	488
221.309	542
223.897	606
226.483	792
229.069	948
231.654	1202
234.238	1342
236.821	1244
239.404	1162
241.984	1004
244.566	890
247.145	762
249.723	668
252.302	566
254.878	508
257.455	410
260.03	376
262.604	364
265.178	320
267.75	310
270.322	288
272.893	280
275.463	298
278.032	304
280.601	324
283.168	338
285.734	390
288.301	462
290.866	556
293.429	640
295.992	640
298.556	618
301.117	560
303.677	510
306.236	466
308.795	430
311.354	406
313.911	404
316.467	382
319.022	382
321.577	370
324.13	370
326.684	362
329.236	410
331.787	410
334.337	420
336.887	394
339.435	418
341.983	384
344.529	354
347.075	364
349.621	360
352.165	354
354.708	372
357.251	348
359.793	354
362.334	344
364.874	340
367.413	324
369.951	332
372.489	364
375.026	346
377.562	312
380.097	298
382.631	278
385.164	268
387.697	260
390.229	256
392.76	240
395.29	236
397.819	240
400.346	248
402.873	228
405.4	254
407.926	286
410.451	310
412.976	370
415.499	384
418.02	336
420.542	336
423.063	280
425.583	260
428.101	238
430.619	232
433.137	206
435.654	194
438.169	194
440.684	198
443.198	170
445.712	180
448.223	182
450.735	172
453.246	170
455.755	194
458.264	194
460.771	198
463.279	206
465.786	218
468.291	246
470.796	266
473.301	304
475.803	362
478.306	414
480.807	448
483.308	500
485.807	528
488.307	462
490.804	344
493.302	310
495.798	292
498.294	228
500.788	226
503.283	218
505.775	240
508.269	286
510.759	322
513.251	416
515.74	384
518.23	308
520.718	282
523.204	316
525.692	352
528.177	402
530.663	506
533.147	608
535.629	710
538.113	806
540.594	796
543.074	696
545.555	562
548.034	456
550.512	412
552.989	406
555.467	452
557.942	552
560.417	708
562.892	1044
565.365	1670
567.838	2764
570.309	3794
572.78	3740
575.251	2656
577.72	1540
580.189	972
582.656	726
585.123	660
587.589	608
590.055	574
592.52	538
594.983	502
597.446	456
599.908	370
602.369	306
604.829	282
607.289	258
609.747	230
612.205	234
614.663	226
617.119	230
619.574	224
622.029	242
624.483	260
626.936	266
629.389	302
631.84	318
634.291	338
636.741	334
639.19	306
641.639	290
644.086	270
646.533	240
648.979	228
651.424	234
653.869	228
656.313	214
658.754	204
661.196	190
663.638	190
666.078	174
668.518	200
670.957	174
673.394	170
675.831	180
678.268	156
680.703	176
683.137	166
685.571	176
688.005	184
690.437	174
692.868	162
695.299	172
697.729	182
700.159	172
702.586	174
705.014	194
707.441	186
709.866	206
712.292	236
714.716	258
717.14	248
719.563	242
721.984	220
724.406	202
726.825	192
729.246	210
731.665	220
734.082	214
736.5	226
738.916	240
741.332	240
743.746	276
746.161	342
748.574	342
750.987	314
753.398	304
755.81	296
758.219	248
760.629	230
763.037	216
765.445	208
767.852	198
770.258	204
772.664	212
775.068	214
777.472	228
779.876	220
782.278	224
784.679	224
787.08	216
789.48	206
791.879	194
794.278	206
796.675	192
799.072	194
801.467	200
803.864	204
806.258	204
808.651	204
811.044	202
813.437	226
815.828	230
818.218	232
820.608	240
822.997	270
825.385	370
827.773	516
830.16	828
832.546	1214
834.931	1114
837.315	662
839.699	420
842.081	304
844.463	278
846.844	266
849.226	284
851.606	276
853.985	268
856.363	244
858.741	238
861.117	236
863.493	210
865.868	218
868.243	198
870.616	200
872.989	194
875.36	202
877.731	194
880.102	196
882.472	196
884.841	204
887.209	192
889.577	174
891.944	190
894.31	178
896.674	180
899.039	170
901.403	174
903.766	184
906.128	176
908.49	182
910.849	184
913.209	186
915.569	180
917.927	192
920.284	190
922.641	176
924.997	198
927.353	186
929.707	184
932.061	208
934.414	194
936.765	208
939.117	204
941.469	228
943.818	264
946.167	294
948.515	342
950.863	444
953.211	558
955.556	728
957.902	886
960.246	966
962.59	920
964.933	774
967.276	648
969.617	540
971.958	454
974.298	370
976.638	294
978.976	274
981.314	262
983.651	250
985.988	212
988.323	238
990.659	244
992.992	224
995.325	220
997.658	208
999.99	204
1002.32	224
1004.65	208
1006.98	218
1009.31	210
1011.64	206
1013.97	220
1016.29	232
1018.62	236
1020.94	242
1023.27	240
1025.59	266
1027.91	272
1030.24	296
1032.56	304
1034.88	278
1037.2	278
1039.52	268
1041.84	282
1044.15	264
1046.47	228
1048.79	242
1051.1	216
1053.42	214
1055.73	210
1058.04	212
1060.36	198
1062.67	202
1064.98	198
1067.29	222
1069.6	222
1071.91	206
1074.22	190
1076.52	190
1078.83	194
1081.14	214
1083.44	218
1085.75	200
1088.05	210
1090.35	224
1092.65	212
1094.95	230
1097.26	228
1099.56	232
1101.86	252
1104.15	282
1106.45	384
1108.75	578
1111.05	858
1113.34	934
1115.64	720
1117.93	536
1120.22	378
1122.52	350
1124.81	310
1127.1	276
1129.39	274
1131.68	252
1133.97	250
1136.26	258
1138.54	266
1140.83	276
1143.12	264
1145.4	234
1147.69	242
1149.97	236
1152.25	260
1154.54	240
1156.82	246
1159.1	270
1161.38	308
1163.66	292
1165.94	270
1168.22	272
1170.49	242
1172.77	256
1175.05	298
1177.32	304
1179.6	364
1181.87	474
1184.14	566
1186.42	654
1188.69	586
1190.96	520
1193.23	448
1195.5	426
1197.77	428
1200.03	474
1202.3	508
1204.57	458
1206.83	426
1209.1	352
1211.36	316
1213.63	270
1215.89	254
1218.15	260
1220.41	268
1222.67	250
1224.93	290
1227.19	342
1229.45	358
1231.71	372
1233.97	304
1236.22	288
1238.48	284
1240.73	250
1242.99	240
1245.24	230
1247.5	226
1249.75	226
1252	234
1254.25	248
1256.5	236
1258.75	236
1261	250
1263.25	260
1265.49	248
1267.74	240
1269.99	252
1272.23	278
1274.48	282
1276.72	282
1278.96	308
1281.21	358
1283.45	394
1285.69	410
1287.93	402
1290.17	474
1292.41	516
1294.64	622
1296.88	820
1299.12	1146
1301.36	1604
1303.59	2136
1305.82	2202
1308.06	1880
1310.29	1328
1312.52	958
1314.76	758
1316.99	662
1319.22	558
1321.45	506
1323.68	472
1325.9	470
1328.13	472
1330.36	472
1332.58	444
1334.81	394
1337.04	362
1339.26	348
1341.48	348
1343.71	354
1345.93	386
1348.15	402
1350.37	416
1352.59	390
1354.81	380
1357.03	334
1359.24	316
1361.46	322
1363.68	344
1365.89	346
1368.11	350
1370.32	442
1372.54	540
1374.75	778
1376.96	974
1379.17	1094
1381.38	1054
1383.59	940
1385.8	712
1388.01	546
1390.22	410
1392.43	360
1394.63	304
1396.84	286
1399.05	284
1401.25	276
1403.45	276
1405.66	278
1407.86	302
1410.06	284
1412.26	316
1414.46	312
1416.66	360
1418.86	366
1421.06	394
1423.26	408
1425.46	454
1427.65	450
1429.85	454
1432.04	472
1434.24	478
1436.43	514
1438.62	510
1440.82	530
1443.01	496
1445.2	494
1447.39	456
1449.58	408
1451.77	404
1453.95	376
1456.14	388
1458.33	386
1460.52	376
1462.7	378
1464.89	376
1467.07	378
1469.25	370
1471.44	384
1473.62	368
1475.8	376
1477.98	374
1480.16	372
1482.34	342
1484.52	348
1486.7	326
1488.87	314
1491.05	322
1493.23	278
1495.4	286
1497.58	294
1499.75	300
1501.92	286
1504.1	290
1506.27	292
1508.44	292
1510.61	284
1512.78	286
1514.95	278
1517.12	294
1519.28	290
1521.45	282
1523.62	288
1525.78	286
1527.95	280
1530.11	282
1532.28	284
1534.44	288
1536.6	282
1538.76	310
1540.93	274
1543.09	288
1545.25	278
1547.41	272
1549.56	290
1551.72	276
1553.88	312
1556.03	304
1558.19	300
1560.35	296
1562.5	302
1564.65	304
1566.81	314
1568.96	322
1571.11	374
1573.26	326
1575.41	386
1577.56	408
1579.71	410
1581.86	462
1584.01	510
1586.15	578
1588.3	650
1590.45	828
1592.59	906
1594.74	1094
1596.88	1268
1599.02	1354
1601.17	1474
1603.31	1524
1605.45	1418
1607.59	1308
1609.73	1178
1611.87	1014
1614.01	886
1616.14	768
1618.28	612
1620.42	560
1622.55	484
1624.69	392
1626.82	374
1628.96	368
1631.09	342
1633.22	308
1635.36	300
1637.49	288
1639.62	288
1641.75	250
1643.88	256
1646	270
1648.13	272
1650.26	270
1652.39	262
1654.51	236
1656.64	236
1658.76	250
1660.89	254
1663.01	234
1665.13	224
1667.26	246
1669.38	236
1671.5	236
1673.62	244
1675.74	238
1677.86	250
1679.97	240
1682.09	246
1684.21	276
1686.33	272
1688.44	240
1690.56	264
1692.67	266
1694.78	262
1696.9	270
1699.01	246
1701.12	248
1703.23	252
1705.34	248
1707.45	252
1709.56	258
1711.67	248
1713.78	242
1715.88	236
1717.99	228
1720.1	248
1722.2	232
1724.31	240
1726.41	226
1728.51	216
1730.62	230
1732.72	226
1734.82	228
1736.92	232
1739.02	218
1741.12	224
1743.22	232
1745.32	228
1747.42	228
1749.51	218
1751.61	226
1753.7	232
1755.8	214
1757.89	228
1759.99	224
1762.08	224
1764.17	228
1766.26	208
1768.36	226
1770.45	228
1772.54	220
1774.62	208
1776.71	214
1778.8	208
1780.89	198
1782.98	238
1785.06	216
1787.15	232
1789.23	234
1791.32	208
1793.4	230
1795.48	208
1797.56	230
1799.65	218
1801.73	238
1803.81	232
1805.89	232
1807.97	240
1810.04	216
1812.12	192
1814.2	222
1816.28	228
1818.35	208
1820.43	214
1822.5	230
1824.58	232
1826.65	212
1828.72	218
1830.79	226
1832.86	220
1834.94	220
1837.01	212
1839.08	226
1841.15	208
1843.21	208
1845.28	220
1847.35	224
1849.41	216
1851.48	222
1853.55	220
1855.61	210
1857.67	240
1859.74	216
1861.8	232
1863.86	236
1865.92	230
1867.98	226
1870.05	212
1872.1	226
1874.16	222
1876.22	226
1878.28	220
1880.34	214
1882.39	218
1884.45	210
1886.5	250
1888.56	218
1890.61	226
1892.67	222
1894.72	222
1896.77	210
1898.82	214
1900.87	236
1902.92	234
1904.97	222
1907.02	222
1909.07	234
1911.12	242
1913.17	246
1915.21	224
1917.26	222
1919.3	222
1921.35	234
1923.39	226
1925.43	228
1927.48	220
1929.52	228
1931.56	234
1933.6	234
1935.64	230
1937.68	216
1939.72	224
1941.76	220
1943.8	222
1945.83	230
1947.87	218
1949.91	224
1951.94	224
1953.98	224
1956.01	232
1958.05	218
1960.08	224
1962.11	226
1964.14	216
1966.17	214
1968.2	216
1970.23	204
1972.26	228
1974.29	224
1976.32	224
1978.35	224
1980.37	218
1982.4	230
1984.43	234
1986.45	232
1988.48	214
1990.5	196
1992.52	230
1994.55	224
1996.57	206
1998.59	234
2000.61	228
2002.63	222
2004.65	224
2006.67	226
2008.69	218
2010.7	226
2012.72	224
2014.74	212
2016.75	228
2018.77	214
2020.78	216
2022.8	218
2024.81	228
2026.83	216
2028.84	228
2030.85	208
2032.86	218
2034.87	208
2036.88	214
2038.89	208
2040.9	210
2042.91	222
2044.91	212
2046.92	220
2048.93	212
2050.93	214
2052.94	218
2054.94	216
2056.95	218
2058.95	210
2060.95	218
2062.95	214
2064.96	214
2066.96	212
2068.96	222
2070.96	228
2072.96	214
2074.95	218
2076.95	234
2078.95	226
2080.95	230
2082.94	216
2084.94	228
2086.93	206
2088.93	230
2090.92	224
2092.91	234
2094.91	222
2096.9	214
2098.89	208
2100.88	212
2102.87	210
2104.86	216
2106.85	212
2108.84	232
2110.83	218
2112.81	220
2114.8	206
2116.78	204
2118.77	214
2120.75	206
2122.74	214
2124.72	212
2126.71	236
2128.69	208
2130.67	224
2132.65	220
2134.63	230
2136.61	218
2138.59	208
2140.57	208
2142.55	206
2144.53	230
2146.5	210
2148.48	214
2150.46	218
2152.43	204
2154.41	220
2156.38	202
2158.35	210
2160.33	226
2162.3	222
2164.27	220
2166.24	216
2168.21	202
2170.18	228
2172.15	230
2174.12	230
2176.09	208
2178.06	228
2180.03	228
2181.99	212
2183.96	214
2185.92	216
2187.89	228
2189.85	216
2191.82	226
2193.78	216
2195.74	222
2197.7	214
2199.67	214
2201.63	208
2203.59	212
2205.55	202
2207.51	232
2209.46	212
2211.42	212
2213.38	198
2215.34	202
2217.29	222
2219.25	242
2221.2	208
2223.16	222
2225.11	220
2227.06	212
2229.02	222
2230.97	218
2232.92	218
2234.87	218
2236.82	218
2238.77	230
2240.72	204
2242.67	228
2244.62	188
2246.57	226
2248.51	222
2250.46	228
2252.4	230
2254.35	222
2256.29	206
2258.24	230
2260.18	224
2262.13	228
2264.07	242
2266.01	226
2267.95	220
2269.89	228
2271.83	230
2273.77	212
2275.71	214
2277.65	216
2279.58	202
2281.52	230
2283.46	218
2285.4	218
2287.33	226
2289.27	212
2291.2	218
2293.13	222
2295.07	228
2297	228
2298.93	222
2300.86	228
2302.79	214
2304.72	208
2306.65	218
2308.58	210
2310.51	236
2312.44	226
2314.37	220
2316.29	232
2318.22	224
2320.15	216
2322.07	222
2324	220
2325.92	230
2327.84	232
2329.77	232
2331.69	218
2333.61	224
2335.53	226
2337.45	222
2339.37	220
2341.29	234
2343.21	220
2345.13	218
2347.05	220
2348.97	206
2350.88	204
2352.8	202
2354.71	220
2356.63	232
2358.54	226
2360.46	218
2362.37	220
2364.28	202
2366.2	206
2368.11	238
2370.02	212
2371.93	224
2373.84	228
2375.75	232
2377.66	234
2379.57	204
2381.47	212
2383.38	220
2385.29	208
2387.2	230
2389.1	218
2391.01	222
2392.91	236
2394.81	238
2396.72	224
2398.62	242
2400.52	236
2402.42	228
2404.33	240
2406.23	206
2408.13	224
2410.03	230
2411.92	222
2413.82	210
2415.72	218
2417.62	236
2419.51	226
2421.41	218
2423.31	210
2425.2	204
2427.1	196
2428.99	216
2430.88	206
2432.78	220
2434.67	208
2436.56	200
2438.45	226
2440.34	204
2442.23	208
2444.12	212
2446.01	218
2447.9	224
2449.79	222