File: Mixture_Classification/Jesse_Dataset_v2/Pure Raman/Polypropylene oxide/633nm/ps-ppo-7jan25-0,0000-map2_Y09_X04.txt
182.393	654
184.993	656
187.593	654
190.193	594
192.79	598
195.387	540
197.983	520
200.578	522
203.174	522
205.766	472
208.36	460
210.951	446
213.542	438
216.131	428
218.721	452
221.309	516
223.897	550
226.483	696
229.069	926
231.654	1134
234.238	1234
236.821	1232
239.404	1122
241.984	992
244.566	844
247.145	720
249.723	614
252.302	562
254.878	482
257.455	402
260.03	356
262.604	312
265.178	322
267.75	286
270.322	276
272.893	276
275.463	270
278.032	280
280.601	302
283.168	306
285.734	358
288.301	436
290.866	508
293.429	556
295.992	580
298.556	600
301.117	514
303.677	504
306.236	452
308.795	424
311.354	378
313.911	386
316.467	346
319.022	342
321.577	348
324.13	338
326.684	374
329.236	374
331.787	388
334.337	378
336.887	386
339.435	370
341.983	386
344.529	348
347.075	332
349.621	318
352.165	338
354.708	358
357.251	356
359.793	344
362.334	314
364.874	314
367.413	322
369.951	314
372.489	310
375.026	334
377.562	294
380.097	262
382.631	266
385.164	260
387.697	244
390.229	222
392.76	222
395.29	226
397.819	232
400.346	214
402.873	236
405.4	268
407.926	256
410.451	304
412.976	342
415.499	372
418.02	342
420.542	298
423.063	284
425.583	236
428.101	224
430.619	208
433.137	210
435.654	176
438.169	178
440.684	166
443.198	168
445.712	176
448.223	168
450.735	166
453.246	162
455.755	162
458.264	180
460.771	184
463.279	188
465.786	200
468.291	214
470.796	244
473.301	294
475.803	318
478.306	376
480.807	446
483.308	460
485.807	486
488.307	448
490.804	344
493.302	308
495.798	266
498.294	232
500.788	206
503.283	204
505.775	236
508.269	236
510.759	312
513.251	390
515.74	362
518.23	310
520.718	278
523.204	292
525.692	316
528.177	392
530.663	462
533.147	582
535.629	696
538.113	706
540.594	740
543.074	700
545.555	544
548.034	440
550.512	376
552.989	364
555.467	416
557.942	504
560.417	628
562.892	968
565.365	1558
567.838	2528
570.309	3574
572.78	3682
575.251	2654
577.72	1592
580.189	908
582.656	724
585.123	630
587.589	580
590.055	532
592.52	508
594.983	474
597.446	422
599.908	386
602.369	304
604.829	260
607.289	234
609.747	226
612.205	218
614.663	206
617.119	218
619.574	216
622.029	228
624.483	250
626.936	260
629.389	264
631.84	284
634.291	296
636.741	314
639.19	292
641.639	278
644.086	250
646.533	236
648.979	226
651.424	196
653.869	212
656.313	220
658.754	202
661.196	180
663.638	170
666.078	158
668.518	166
670.957	168
673.394	158
675.831	152
678.268	154
680.703	168
683.137	174
685.571	170
688.005	176
690.437	158
692.868	164
695.299	154
697.729	160
700.159	166
702.586	166
705.014	168
707.441	168
709.866	194
712.292	218
714.716	228
717.14	234
719.563	194
721.984	200
724.406	220
726.825	204
729.246	196
731.665	190
734.082	208
736.5	194
738.916	222
741.332	232
743.746	264
746.161	298
748.574	336
750.987	298
753.398	284
755.81	278
758.219	248
760.629	218
763.037	206
765.445	186
767.852	184
770.258	176
772.664	180
775.068	200
777.472	228
779.876	208
782.278	194
784.679	202
787.08	202
789.48	186
791.879	202
794.278	176
796.675	198
799.072	192
801.467	186
803.864	182
806.258	202
808.651	210
811.044	194
813.437	196
815.828	194
818.218	234
820.608	220
822.997	278
825.385	314
827.773	464
830.16	754
832.546	1142
834.931	1058
837.315	666
839.699	410
842.081	292
844.463	270
846.844	256
849.226	242
851.606	238
853.985	234
856.363	224
858.741	248
861.117	218
863.493	214
865.868	182
868.243	194
870.616	190
872.989	186
875.36	190
877.731	184
880.102	182
882.472	184
884.841	176
887.209	180
889.577	176
891.944	178
894.31	176
896.674	170
899.039	176
901.403	180
903.766	166
906.128	172
908.49	164
910.849	172
913.209	180
915.569	162
917.927	178
920.284	172
922.641	180
924.997	172
927.353	176
929.707	186
932.061	168
934.414	200
936.765	214
939.117	206
941.469	214
943.818	240
946.167	284
948.515	356
950.863	402
953.211	516
955.556	698
957.902	842
960.246	878
962.59	874
964.933	738
967.276	580
969.617	512
971.958	442
974.298	362
976.638	304
978.976	254
981.314	238
983.651	214
985.988	188
988.323	212
990.659	232
992.992	216
995.325	212
997.658	184
999.99	200
1002.32	186
1004.65	198
1006.98	184
1009.31	188
1011.64	210
1013.97	210
1016.29	224
1018.62	192
1020.94	224
1023.27	236
1025.59	244
1027.91	268
1030.24	274
1032.56	304
1034.88	272
1037.2	284
1039.52	266
1041.84	238
1044.15	234
1046.47	220
1048.79	214
1051.1	220
1053.42	208
1055.73	196
1058.04	216
1060.36	196
1062.67	184
1064.98	194
1067.29	194
1069.6	188
1071.91	198
1074.22	218
1076.52	192
1078.83	200
1081.14	204
1083.44	204
1085.75	208
1088.05	202
1090.35	200
1092.65	204
1094.95	200
1097.26	214
1099.56	220
1101.86	244
1104.15	280
1106.45	362
1108.75	524
1111.05	822
1113.34	900
1115.64	730
1117.93	498
1120.22	380
1122.52	300
1124.81	284
1127.1	244
1129.39	268
1131.68	224
1133.97	252
1136.26	232
1138.54	258
1140.83	268
1143.12	254
1145.4	232
1147.69	216
1149.97	220
1152.25	236
1154.54	210
1156.82	238
1159.1	258
1161.38	276
1163.66	282
1165.94	270
1168.22	236
1170.49	248
1172.77	256
1175.05	280
1177.32	284
1179.6	346
1181.87	408
1184.14	552
1186.42	610
1188.69	602
1190.96	500
1193.23	478
1195.5	412
1197.77	440
1200.03	456
1202.3	462
1204.57	442
1206.83	412
1209.1	356
1211.36	302
1213.63	258
1215.89	234
1218.15	260
1220.41	234
1222.67	242
1224.93	278
1227.19	290
1229.45	344
1231.71	354
1233.97	288
1236.22	268
1238.48	232
1240.73	240
1242.99	242
1245.24	224
1247.5	216
1249.75	226
1252	232
1254.25	228
1256.5	222
1258.75	228
1261	228
1263.25	228
1265.49	240
1267.74	244
1269.99	230
1272.23	242
1274.48	282
1276.72	270
1278.96	292
1281.21	314
1283.45	344
1285.69	374
1287.93	398
1290.17	440
1292.41	482
1294.64	574
1296.88	742
1299.12	1074
1301.36	1538
1303.59	1958
1305.82	2208
1308.06	1848
1310.29	1344
1312.52	936
1314.76	758
1316.99	586
1319.22	552
1321.45	492
1323.68	456
1325.9	442
1328.13	428
1330.36	434
1332.58	408
1334.81	376
1337.04	340
1339.26	344
1341.48	316
1343.71	320
1345.93	364
1348.15	386
1350.37	386
1352.59	382
1354.81	358
1357.03	316
1359.24	322
1361.46	298
1363.68	312
1365.89	316
1368.11	326
1370.32	412
1372.54	510
1374.75	744
1376.96	958
1379.17	1038
1381.38	1026
1383.59	900
1385.8	700
1388.01	534
1390.22	390
1392.43	324
1394.63	280
1396.84	266
1399.05	256
1401.25	254
1403.45	270
1405.66	264
1407.86	272
1410.06	282
1412.26	300
1414.46	318
1416.66	318
1418.86	320
1421.06	334
1423.26	392
1425.46	392
1427.65	400
1429.85	422
1432.04	434
1434.24	422
1436.43	484
1438.62	500
1440.82	536
1443.01	478
1445.2	434
1447.39	432
1449.58	424
1451.77	394
1453.95	384
1456.14	376
1458.33	366
1460.52	378
1462.7	360
1464.89	380
1467.07	342
1469.25	360
1471.44	346
1473.62	366
1475.8	344
1477.98	362
1480.16	356
1482.34	314
1484.52	308
1486.7	298
1488.87	288
1491.05	288
1493.23	294
1495.4	270
1497.58	282
1499.75	296
1501.92	270
1504.1	272
1506.27	276
1508.44	276
1510.61	266
1512.78	278
1514.95	266
1517.12	260
1519.28	256
1521.45	254
1523.62	230
1525.78	282
1527.95	274
1530.11	274
1532.28	236
1534.44	262
1536.6	246
1538.76	268
1540.93	268
1543.09	258
1545.25	274
1547.41	272
1549.56	268
1551.72	282
1553.88	272
1556.03	294
1558.19	272
1560.35	288
1562.5	288
1564.65	290
1566.81	286
1568.96	318
1571.11	326
1573.26	338
1575.41	344
1577.56	382
1579.71	392
1581.86	464
1584.01	502
1586.15	522
1588.3	622
1590.45	718
1592.59	870
1594.74	1054
1596.88	1152
1599.02	1378
1601.17	1462
1603.31	1496
1605.45	1410
1607.59	1264
1609.73	1126
1611.87	1022
1614.01	912
1616.14	762
1618.28	626
1620.42	552
1622.55	468
1624.69	404
1626.82	376
1628.96	328
1631.09	294
1633.22	284
1635.36	258
1637.49	264
1639.62	260
1641.75	244
1643.88	230
1646	242
1648.13	246
1650.26	254
1652.39	234
1654.51	234
1656.64	224
1658.76	230
1660.89	220
1663.01	220
1665.13	242
1667.26	234
1669.38	222
1671.5	234
1673.62	228
1675.74	222
1677.86	226
1679.97	218
1682.09	218
1684.21	222
1686.33	244
1688.44	258
1690.56	236
1692.67	230
1694.78	252
1696.9	240
1699.01	228
1701.12	220
1703.23	238
1705.34	228
1707.45	242
1709.56	242
1711.67	216
1713.78	232
1715.88	230
1717.99	210
1720.1	214
1722.2	210
1724.31	208
1726.41	216
1728.51	202
1730.62	236
1732.72	228
1734.82	210
1736.92	194
1739.02	208
1741.12	204
1743.22	208
1745.32	196
1747.42	212
1749.51	214
1751.61	206
1753.7	212
1755.8	214
1757.89	192
1759.99	208
1762.08	216
1764.17	208
1766.26	194
1768.36	196
1770.45	224
1772.54	204
1774.62	192
1776.71	218
1778.8	208
1780.89	192
1782.98	212
1785.06	210
1787.15	204
1789.23	192
1791.32	212
1793.4	218
1795.48	202
1797.56	222
1799.65	208
1801.73	204
1803.81	200
1805.89	214
1807.97	212
1810.04	204
1812.12	214
1814.2	206
1816.28	204
1818.35	202
1820.43	228
1822.5	198
1824.58	220
1826.65	202
1828.72	204
1830.79	218
1832.86	198
1834.94	216
1837.01	208
1839.08	214
1841.15	212
1843.21	220
1845.28	204
1847.35	214
1849.41	216
1851.48	214
1853.55	208
1855.61	198
1857.67	180
1859.74	202
1861.8	198
1863.86	194
1865.92	210
1867.98	204
1870.05	186
1872.1	214
1874.16	204
1876.22	206
1878.28	208
1880.34	196
1882.39	212
1884.45	218
1886.5	200
1888.56	204
1890.61	208
1892.67	224
1894.72	202
1896.77	220
1898.82	210
1900.87	204
1902.92	212
1904.97	216
1907.02	216
1909.07	212
1911.12	202
1913.17	194
1915.21	208
1917.26	196
1919.3	222
1921.35	212
1923.39	210
1925.43	198
1927.48	202
1929.52	224
1931.56	206
1933.6	206
1935.64	212
1937.68	200
1939.72	226
1941.76	200
1943.8	202
1945.83	204
1947.87	216
1949.91	212
1951.94	192
1953.98	204
1956.01	208
1958.05	218
1960.08	196
1962.11	214
1964.14	214
1966.17	186
1968.2	214
1970.23	208
1972.26	224
1974.29	220
1976.32	206
1978.35	196
1980.37	212
1982.4	200
1984.43	202
1986.45	218
1988.48	212
1990.5	200
1992.52	230
1994.55	208
1996.57	210
1998.59	214
2000.61	194
2002.63	218
2004.65	206
2006.67	196
2008.69	202
2010.7	202
2012.72	196
2014.74	206
2016.75	196
2018.77	202
2020.78	200
2022.8	216
2024.81	216
2026.83	202
2028.84	202
2030.85	202
2032.86	196
2034.87	200
2036.88	198
2038.89	204
2040.9	210
2042.91	200
2044.91	204
2046.92	212
2048.93	208
2050.93	228
2052.94	218
2054.94	202
2056.95	204
2058.95	222
2060.95	232
2062.95	224
2064.96	204
2066.96	216
2068.96	192
2070.96	212
2072.96	212
2074.95	228
2076.95	212
2078.95	218
2080.95	200
2082.94	208
2084.94	210
2086.93	196
2088.93	206
2090.92	212
2092.91	208
2094.91	200
2096.9	214
2098.89	198
2100.88	198
2102.87	220
2104.86	214
2106.85	204
2108.84	196
2110.83	204
2112.81	218
2114.8	204
2116.78	204
2118.77	212
2120.75	204
2122.74	208
2124.72	212
2126.71	216
2128.69	212
2130.67	202
2132.65	222
2134.63	216
2136.61	202
2138.59	206
2140.57	216
2142.55	208
2144.53	210
2146.5	204
2148.48	224
2150.46	208
2152.43	218
2154.41	194
2156.38	222
2158.35	198
2160.33	208
2162.3	210
2164.27	218
2166.24	202
2168.21	210
2170.18	214
2172.15	214
2174.12	210
2176.09	210
2178.06	206
2180.03	208
2181.99	220
2183.96	200
2185.92	194
2187.89	202
2189.85	212
2191.82	218
2193.78	204
2195.74	228
2197.7	212
2199.67	190
2201.63	206
2203.59	222
2205.55	196
2207.51	202
2209.46	196
2211.42	210
2213.38	202
2215.34	200
2217.29	190
2219.25	216
2221.2	206
2223.16	212
2225.11	196
2227.06	210
2229.02	208
2230.97	204
2232.92	216
2234.87	196
2236.82	210
2238.77	214
2240.72	208
2242.67	196
2244.62	216
2246.57	196
2248.51	206
2250.46	214
2252.4	216
2254.35	200
2256.29	200
2258.24	196
2260.18	220
2262.13	228
2264.07	218
2266.01	212
2267.95	214
2269.89	208
2271.83	208
2273.77	208
2275.71	212
2277.65	204
2279.58	204
2281.52	210
2283.46	202
2285.4	200
2287.33	208
2289.27	214
2291.2	202
2293.13	206
2295.07	200
2297	214
2298.93	196
2300.86	216
2302.79	218
2304.72	198
2306.65	208
2308.58	222
2310.51	224
2312.44	206
2314.37	226
2316.29	222
2318.22	224
2320.15	212
2322.07	224
2324	206
2325.92	240
2327.84	220
2329.77	198
2331.69	218
2333.61	212
2335.53	198
2337.45	218
2339.37	214
2341.29	210
2343.21	214
2345.13	222
2347.05	226
2348.97	226
2350.88	204
2352.8	216
2354.71	214
2356.63	206
2358.54	214
2360.46	204
2362.37	212
2364.28	224
2366.2	208
2368.11	224
2370.02	220
2371.93	218
2373.84	204
2375.75	196
2377.66	214
2379.57	212
2381.47	194
2383.38	214
2385.29	218
2387.2	194
2389.1	244
2391.01	204
2392.91	218
2394.81	196
2396.72	214
2398.62	216
2400.52	218
2402.42	230
2404.33	240
2406.23	222
2408.13	234
2410.03	214
2411.92	212
2413.82	198
2415.72	196
2417.62	210
2419.51	212
2421.41	230
2423.31	216
2425.2	198
2427.1	204
2428.99	214
2430.88	208
2432.78	194
2434.67	212
2436.56	202
2438.45	208
2440.34	216
2442.23	206
2444.12	214
2446.01	212
2447.9	224
2449.79	214