File: Mixture_Classification/Jesse_Dataset_v2/Pure Raman/Polypropylene oxide/633nm/ps-ppo-7jan25-0,0000-map2_Y01_X05.txt
182.393	708
184.993	714
187.593	700
190.193	644
192.79	624
195.387	590
197.983	572
200.578	548
203.174	540
205.766	498
208.36	490
210.951	490
213.542	450
216.131	454
218.721	474
221.309	514
223.897	634
226.483	748
229.069	976
231.654	1178
234.238	1330
236.821	1250
239.404	1172
241.984	1024
244.566	878
247.145	736
249.723	660
252.302	574
254.878	490
257.455	406
260.03	380
262.604	346
265.178	334
267.75	310
270.322	290
272.893	302
275.463	298
278.032	284
280.601	296
283.168	340
285.734	406
288.301	458
290.866	550
293.429	628
295.992	652
298.556	596
301.117	576
303.677	518
306.236	484
308.795	438
311.354	416
313.911	378
316.467	360
319.022	380
321.577	386
324.13	392
326.684	360
329.236	404
331.787	398
334.337	412
336.887	398
339.435	398
341.983	392
344.529	356
347.075	350
349.621	362
352.165	352
354.708	372
357.251	406
359.793	368
362.334	372
364.874	326
367.413	336
369.951	358
372.489	366
375.026	360
377.562	334
380.097	292
382.631	294
385.164	266
387.697	278
390.229	266
392.76	262
395.29	258
397.819	254
400.346	260
402.873	274
405.4	266
407.926	310
410.451	334
412.976	380
415.499	370
418.02	354
420.542	320
423.063	284
425.583	254
428.101	250
430.619	214
433.137	212
435.654	208
438.169	204
440.684	194
443.198	168
445.712	194
448.223	184
450.735	180
453.246	192
455.755	198
458.264	194
460.771	192
463.279	190
465.786	218
468.291	242
470.796	280
473.301	308
475.803	356
478.306	384
480.807	456
483.308	512
485.807	538
488.307	486
490.804	362
493.302	300
495.798	292
498.294	232
500.788	226
503.283	234
505.775	234
508.269	254
510.759	326
513.251	416
515.74	380
518.23	328
520.718	288
523.204	322
525.692	340
528.177	384
530.663	504
533.147	608
535.629	728
538.113	788
540.594	748
543.074	746
545.555	578
548.034	456
550.512	406
552.989	402
555.467	422
557.942	504
560.417	680
562.892	1082
565.365	1660
567.838	2768
570.309	3788
572.78	3722
575.251	2606
577.72	1572
580.189	972
582.656	716
585.123	686
587.589	622
590.055	576
592.52	526
594.983	516
597.446	452
599.908	398
602.369	322
604.829	278
607.289	234
609.747	216
612.205	232
614.663	210
617.119	232
619.574	256
622.029	234
624.483	258
626.936	280
629.389	298
631.84	302
634.291	316
636.741	342
639.19	318
641.639	298
644.086	258
646.533	256
648.979	256
651.424	224
653.869	210
656.313	220
658.754	184
661.196	194
663.638	192
666.078	190
668.518	176
670.957	166
673.394	184
675.831	184
678.268	174
680.703	174
683.137	174
685.571	174
688.005	180
690.437	170
692.868	158
695.299	172
697.729	172
700.159	180
702.586	186
705.014	182
707.441	198
709.866	226
712.292	236
714.716	246
717.14	250
719.563	226
721.984	222
724.406	208
726.825	200
729.246	222
731.665	214
734.082	202
736.5	230
738.916	238
741.332	234
743.746	300
746.161	338
748.574	350
750.987	316
753.398	302
755.81	270
758.219	250
760.629	222
763.037	224
765.445	202
767.852	208
770.258	220
772.664	214
775.068	232
777.472	220
779.876	224
782.278	238
784.679	220
787.08	212
789.48	218
791.879	200
794.278	186
796.675	212
799.072	196
801.467	204
803.864	212
806.258	232
808.651	210
811.044	210
813.437	216
815.828	222
818.218	234
820.608	224
822.997	256
825.385	360
827.773	500
830.16	844
832.546	1196
834.931	1130
837.315	686
839.699	408
842.081	324
844.463	284
846.844	276
849.226	258
851.606	260
853.985	278
856.363	270
858.741	252
861.117	254
863.493	210
865.868	218
868.243	222
870.616	194
872.989	206
875.36	194
877.731	200
880.102	192
882.472	190
884.841	200
887.209	190
889.577	166
891.944	186
894.31	182
896.674	176
899.039	204
901.403	174
903.766	178
906.128	196
908.49	188
910.849	186
913.209	180
915.569	188
917.927	186
920.284	192
922.641	196
924.997	186
927.353	194
929.707	208
932.061	222
934.414	216
936.765	236
939.117	222
941.469	248
943.818	262
946.167	294
948.515	352
950.863	432
953.211	544
955.556	710
957.902	878
960.246	944
962.59	912
964.933	766
967.276	626
969.617	542
971.958	442
974.298	372
976.638	314
978.976	278
981.314	248
983.651	222
985.988	254
988.323	228
990.659	236
992.992	254
995.325	214
997.658	200
999.99	212
1002.32	214
1004.65	194
1006.98	198
1009.31	216
1011.64	216
1013.97	218
1016.29	216
1018.62	232
1020.94	258
1023.27	244
1025.59	278
1027.91	272
1030.24	298
1032.56	300
1034.88	290
1037.2	272
1039.52	286
1041.84	274
1044.15	260
1046.47	242
1048.79	224
1051.1	228
1053.42	230
1055.73	204
1058.04	208
1060.36	218
1062.67	210
1064.98	210
1067.29	188
1069.6	200
1071.91	212
1074.22	224
1076.52	192
1078.83	208
1081.14	210
1083.44	230
1085.75	200
1088.05	228
1090.35	228
1092.65	212
1094.95	208
1097.26	236
1099.56	234
1101.86	238
1104.15	290
1106.45	394
1108.75	590
1111.05	810
1113.34	908
1115.64	758
1117.93	530
1120.22	396
1122.52	336
1124.81	302
1127.1	280
1129.39	258
1131.68	250
1133.97	246
1136.26	238
1138.54	272
1140.83	254
1143.12	246
1145.4	262
1147.69	228
1149.97	220
1152.25	228
1154.54	220
1156.82	252
1159.1	296
1161.38	290
1163.66	292
1165.94	258
1168.22	254
1170.49	256
1172.77	264
1175.05	292
1177.32	304
1179.6	372
1181.87	456
1184.14	586
1186.42	648
1188.69	638
1190.96	534
1193.23	462
1195.5	426
1197.77	422
1200.03	448
1202.3	486
1204.57	466
1206.83	440
1209.1	374
1211.36	330
1213.63	282
1215.89	270
1218.15	260
1220.41	256
1222.67	262
1224.93	292
1227.19	322
1229.45	356
1231.71	358
1233.97	304
1236.22	282
1238.48	244
1240.73	230
1242.99	232
1245.24	236
1247.5	234
1249.75	246
1252	244
1254.25	230
1256.5	238
1258.75	238
1261	244
1263.25	236
1265.49	258
1267.74	252
1269.99	260
1272.23	278
1274.48	294
1276.72	276
1278.96	308
1281.21	328
1283.45	348
1285.69	422
1287.93	438
1290.17	450
1292.41	504
1294.64	618
1296.88	810
1299.12	1098
1301.36	1566
1303.59	2104
1305.82	2192
1308.06	1884
1310.29	1340
1312.52	984
1314.76	754
1316.99	614
1319.22	550
1321.45	500
1323.68	484
1325.9	466
1328.13	438
1330.36	432
1332.58	416
1334.81	370
1337.04	350
1339.26	334
1341.48	338
1343.71	342
1345.93	370
1348.15	396
1350.37	400
1352.59	392
1354.81	360
1357.03	364
1359.24	332
1361.46	314
1363.68	334
1365.89	308
1368.11	354
1370.32	420
1372.54	558
1374.75	764
1376.96	990
1379.17	1112
1381.38	1064
1383.59	898
1385.8	708
1388.01	570
1390.22	392
1392.43	312
1394.63	326
1396.84	296
1399.05	270
1401.25	280
1403.45	266
1405.66	298
1407.86	298
1410.06	286
1412.26	290
1414.46	324
1416.66	346
1418.86	352
1421.06	380
1423.26	418
1425.46	428
1427.65	456
1429.85	444
1432.04	478
1434.24	448
1436.43	494
1438.62	504
1440.82	536
1443.01	512
1445.2	460
1447.39	470
1449.58	436
1451.77	430
1453.95	416
1456.14	382
1458.33	370
1460.52	424
1462.7	380
1464.89	368
1467.07	354
1469.25	368
1471.44	384
1473.62	390
1475.8	362
1477.98	380
1480.16	362
1482.34	348
1484.52	342
1486.7	332
1488.87	290
1491.05	302
1493.23	280
1495.4	284
1497.58	294
1499.75	296
1501.92	302
1504.1	284
1506.27	296
1508.44	294
1510.61	294
1512.78	286
1514.95	274
1517.12	280
1519.28	270
1521.45	272
1523.62	282
1525.78	274
1527.95	298
1530.11	286
1532.28	290
1534.44	292
1536.6	270
1538.76	266
1540.93	274
1543.09	286
1545.25	318
1547.41	282
1549.56	296
1551.72	294
1553.88	286
1556.03	290
1558.19	310
1560.35	316
1562.5	304
1564.65	310
1566.81	320
1568.96	342
1571.11	348
1573.26	372
1575.41	388
1577.56	410
1579.71	424
1581.86	474
1584.01	542
1586.15	582
1588.3	718
1590.45	784
1592.59	912
1594.74	1050
1596.88	1230
1599.02	1378
1601.17	1512
1603.31	1490
1605.45	1428
1607.59	1302
1609.73	1182
1611.87	1034
1614.01	888
1616.14	740
1618.28	644
1620.42	550
1622.55	464
1624.69	400
1626.82	386
1628.96	342
1631.09	318
1633.22	324
1635.36	280
1637.49	274
1639.62	260
1641.75	284
1643.88	278
1646	256
1648.13	256
1650.26	254
1652.39	242
1654.51	270
1656.64	248
1658.76	260
1660.89	240
1663.01	250
1665.13	234
1667.26	220
1669.38	236
1671.5	242
1673.62	250
1675.74	228
1677.86	236
1679.97	238
1682.09	258
1684.21	242
1686.33	238
1688.44	248
1690.56	250
1692.67	270
1694.78	258
1696.9	256
1699.01	262
1701.12	258
1703.23	254
1705.34	242
1707.45	262
1709.56	248
1711.67	236
1713.78	240
1715.88	242
1717.99	248
1720.1	222
1722.2	236
1724.31	238
1726.41	234
1728.51	226
1730.62	244
1732.72	232
1734.82	226
1736.92	210
1739.02	214
1741.12	226
1743.22	226
1745.32	232
1747.42	216
1749.51	230
1751.61	220
1753.7	220
1755.8	214
1757.89	222
1759.99	228
1762.08	214
1764.17	228
1766.26	214
1768.36	208
1770.45	220
1772.54	208
1774.62	216
1776.71	204
1778.8	238
1780.89	244
1782.98	204
1785.06	212
1787.15	224
1789.23	228
1791.32	224
1793.4	224
1795.48	222
1797.56	228
1799.65	228
1801.73	250
1803.81	218
1805.89	236
1807.97	220
1810.04	236
1812.12	218
1814.2	230
1816.28	216
1818.35	226
1820.43	224
1822.5	220
1824.58	224
1826.65	210
1828.72	214
1830.79	220
1832.86	218
1834.94	216
1837.01	236
1839.08	224
1841.15	212
1843.21	212
1845.28	218
1847.35	232
1849.41	226
1851.48	232
1853.55	212
1855.61	236
1857.67	198
1859.74	228
1861.8	212
1863.86	214
1865.92	212
1867.98	232
1870.05	210
1872.1	200
1874.16	230
1876.22	220
1878.28	198
1880.34	224
1882.39	214
1884.45	226
1886.5	224
1888.56	222
1890.61	210
1892.67	224
1894.72	230
1896.77	230
1898.82	222
1900.87	240
1902.92	226
1904.97	210
1907.02	228
1909.07	200
1911.12	224
1913.17	216
1915.21	212
1917.26	234
1919.3	216
1921.35	232
1923.39	220
1925.43	228
1927.48	210
1929.52	242
1931.56	214
1933.6	216
1935.64	242
1937.68	216
1939.72	220
1941.76	208
1943.8	216
1945.83	232
1947.87	218
1949.91	226
1951.94	206
1953.98	214
1956.01	208
1958.05	212
1960.08	226
1962.11	218
1964.14	234
1966.17	240
1968.2	236
1970.23	220
1972.26	226
1974.29	236
1976.32	216
1978.35	216
1980.37	210
1982.4	206
1984.43	226
1986.45	236
1988.48	234
1990.5	226
1992.52	210
1994.55	216
1996.57	220
1998.59	238
2000.61	218
2002.63	216
2004.65	214
2006.67	218
2008.69	224
2010.7	226
2012.72	228
2014.74	224
2016.75	228
2018.77	226
2020.78	216
2022.8	222
2024.81	222
2026.83	226
2028.84	220
2030.85	226
2032.86	216
2034.87	224
2036.88	230
2038.89	230
2040.9	216
2042.91	226
2044.91	216
2046.92	238
2048.93	228
2050.93	218
2052.94	218
2054.94	218
2056.95	224
2058.95	230
2060.95	204
2062.95	224
2064.96	232
2066.96	216
2068.96	228
2070.96	226
2072.96	218
2074.95	216
2076.95	230
2078.95	230
2080.95	224
2082.94	226
2084.94	226
2086.93	210
2088.93	218
2090.92	214
2092.91	226
2094.91	220
2096.9	226
2098.89	212
2100.88	232
2102.87	220
2104.86	220
2106.85	226
2108.84	206
2110.83	224
2112.81	210
2114.8	216
2116.78	216
2118.77	226
2120.75	230
2122.74	206
2124.72	210
2126.71	228
2128.69	212
2130.67	218
2132.65	216
2134.63	222
2136.61	208
2138.59	218
2140.57	204
2142.55	230
2144.53	230
2146.5	214
2148.48	218
2150.46	220
2152.43	234
2154.41	232
2156.38	226
2158.35	210
2160.33	216
2162.3	226
2164.27	212
2166.24	218
2168.21	222
2170.18	228
2172.15	204
2174.12	214
2176.09	220
2178.06	230
2180.03	212
2181.99	222
2183.96	200
2185.92	222
2187.89	232
2189.85	206
2191.82	228
2193.78	218
2195.74	212
2197.7	210
2199.67	210
2201.63	224
2203.59	204
2205.55	222
2207.51	216
2209.46	210
2211.42	222
2213.38	214
2215.34	220
2217.29	222
2219.25	234
2221.2	216
2223.16	226
2225.11	220
2227.06	206
2229.02	218
2230.97	218
2232.92	230
2234.87	214
2236.82	208
2238.77	224
2240.72	222
2242.67	216
2244.62	218
2246.57	214
2248.51	210
2250.46	204
2252.4	218
2254.35	228
2256.29	212
2258.24	234
2260.18	214
2262.13	218
2264.07	206
2266.01	224
2267.95	218
2269.89	216
2271.83	212
2273.77	226
2275.71	224
2277.65	230
2279.58	232
2281.52	220
2283.46	220
2285.4	216
2287.33	216
2289.27	224
2291.2	220
2293.13	236
2295.07	198
2297	248
2298.93	212
2300.86	222
2302.79	226
2304.72	238
2306.65	232
2308.58	224
2310.51	226
2312.44	250
2314.37	250
2316.29	220
2318.22	226
2320.15	240
2322.07	220
2324	228
2325.92	224
2327.84	216
2329.77	222
2331.69	256
2333.61	224
2335.53	216
2337.45	222
2339.37	228
2341.29	242
2343.21	238
2345.13	222
2347.05	222
2348.97	234
2350.88	218
2352.8	218
2354.71	218
2356.63	218
2358.54	208
2360.46	226
2362.37	202
2364.28	204
2366.2	202
2368.11	226
2370.02	218
2371.93	224
2373.84	224
2375.75	220
2377.66	222
2379.57	222
2381.47	216
2383.38	232
2385.29	228
2387.2	222
2389.1	244
2391.01	230
2392.91	222
2394.81	214
2396.72	216
2398.62	246
2400.52	230
2402.42	212
2404.33	234
2406.23	236
2408.13	222
2410.03	226
2411.92	222
2413.82	232
2415.72	210
2417.62	238
2419.51	218
2421.41	230
2423.31	216
2425.2	236
2427.1	234
2428.99	224
2430.88	226
2432.78	222
2434.67	200
2436.56	198
2438.45	210
2440.34	218
2442.23	216
2444.12	242
2446.01	214
2447.9	204
2449.79	212