File: Mixture_Classification/Jesse_Dataset_v2/Pure Raman/Polypropylene oxide/633nm/ps-ppo-7jan25-0,0000-map2_Y07_X01.txt
182.393	684
184.993	658
187.593	640
190.193	620
192.79	608
195.387	548
197.983	568
200.578	556
203.174	516
205.766	512
208.36	486
210.951	462
213.542	448
216.131	450
218.721	462
221.309	522
223.897	624
226.483	736
229.069	944
231.654	1166
234.238	1254
236.821	1276
239.404	1174
241.984	1024
244.566	908
247.145	770
249.723	660
252.302	580
254.878	480
257.455	390
260.03	360
262.604	360
265.178	312
267.75	292
270.322	300
272.893	294
275.463	280
278.032	302
280.601	306
283.168	328
285.734	368
288.301	442
290.866	538
293.429	608
295.992	634
298.556	614
301.117	548
303.677	504
306.236	486
308.795	430
311.354	408
313.911	386
316.467	398
319.022	370
321.577	372
324.13	368
326.684	388
329.236	388
331.787	430
334.337	400
336.887	448
339.435	390
341.983	376
344.529	366
347.075	340
349.621	360
352.165	368
354.708	358
357.251	368
359.793	360
362.334	342
364.874	302
367.413	324
369.951	330
372.489	344
375.026	344
377.562	314
380.097	290
382.631	286
385.164	276
387.697	268
390.229	246
392.76	234
395.29	234
397.819	230
400.346	246
402.873	230
405.4	256
407.926	292
410.451	340
412.976	346
415.499	378
418.02	362
420.542	316
423.063	298
425.583	256
428.101	232
430.619	218
433.137	214
435.654	198
438.169	196
440.684	188
443.198	192
445.712	180
448.223	170
450.735	164
453.246	184
455.755	194
458.264	184
460.771	190
463.279	184
465.786	208
468.291	240
470.796	278
473.301	296
475.803	358
478.306	404
480.807	432
483.308	486
485.807	486
488.307	458
490.804	362
493.302	310
495.798	266
498.294	226
500.788	214
503.283	218
505.775	234
508.269	274
510.759	318
513.251	404
515.74	384
518.23	330
520.718	304
523.204	316
525.692	336
528.177	396
530.663	460
533.147	590
535.629	704
538.113	730
540.594	768
543.074	708
545.555	582
548.034	452
550.512	390
552.989	400
555.467	420
557.942	518
560.417	688
562.892	984
565.365	1682
567.838	2686
570.309	3712
572.78	3692
575.251	2668
577.72	1558
580.189	928
582.656	704
585.123	646
587.589	590
590.055	568
592.52	518
594.983	516
597.446	438
599.908	398
602.369	316
604.829	258
607.289	226
609.747	226
612.205	226
614.663	236
617.119	232
619.574	238
622.029	260
624.483	262
626.936	280
629.389	278
631.84	316
634.291	340
636.741	344
639.19	298
641.639	286
644.086	266
646.533	250
648.979	232
651.424	230
653.869	230
656.313	204
658.754	194
661.196	182
663.638	190
666.078	190
668.518	184
670.957	174
673.394	176
675.831	162
678.268	180
680.703	172
683.137	176
685.571	180
688.005	174
690.437	168
692.868	172
695.299	170
697.729	170
700.159	166
702.586	180
705.014	182
707.441	184
709.866	214
712.292	236
714.716	266
717.14	240
719.563	216
721.984	234
724.406	192
726.825	216
729.246	214
731.665	204
734.082	212
736.5	228
738.916	228
741.332	250
743.746	266
746.161	320
748.574	330
750.987	330
753.398	286
755.81	310
758.219	264
760.629	228
763.037	212
765.445	176
767.852	180
770.258	202
772.664	200
775.068	208
777.472	214
779.876	214
782.278	216
784.679	204
787.08	218
789.48	190
791.879	202
794.278	194
796.675	198
799.072	200
801.467	212
803.864	210
806.258	198
808.651	224
811.044	212
813.437	214
815.828	210
818.218	226
820.608	244
822.997	276
825.385	344
827.773	472
830.16	806
832.546	1170
834.931	1076
837.315	710
839.699	388
842.081	306
844.463	274
846.844	256
849.226	274
851.606	262
853.985	232
856.363	238
858.741	232
861.117	228
863.493	216
865.868	204
868.243	212
870.616	194
872.989	196
875.36	220
877.731	200
880.102	184
882.472	192
884.841	190
887.209	194
889.577	180
891.944	180
894.31	180
896.674	184
899.039	188
901.403	178
903.766	184
906.128	194
908.49	190
910.849	180
913.209	182
915.569	184
917.927	174
920.284	178
922.641	196
924.997	182
927.353	198
929.707	190
932.061	192
934.414	212
936.765	204
939.117	228
941.469	228
943.818	258
946.167	290
948.515	344
950.863	424
953.211	560
955.556	700
957.902	868
960.246	924
962.59	890
964.933	762
967.276	630
969.617	522
971.958	438
974.298	348
976.638	310
978.976	258
981.314	250
983.651	236
985.988	216
988.323	234
990.659	246
992.992	224
995.325	226
997.658	218
999.99	186
1002.32	200
1004.65	192
1006.98	202
1009.31	200
1011.64	196
1013.97	214
1016.29	224
1018.62	228
1020.94	236
1023.27	228
1025.59	270
1027.91	272
1030.24	272
1032.56	294
1034.88	288
1037.2	292
1039.52	292
1041.84	268
1044.15	246
1046.47	238
1048.79	218
1051.1	198
1053.42	216
1055.73	196
1058.04	204
1060.36	200
1062.67	198
1064.98	210
1067.29	198
1069.6	188
1071.91	216
1074.22	196
1076.52	208
1078.83	206
1081.14	184
1083.44	204
1085.75	220
1088.05	206
1090.35	226
1092.65	196
1094.95	212
1097.26	218
1099.56	224
1101.86	238
1104.15	308
1106.45	362
1108.75	558
1111.05	840
1113.34	912
1115.64	736
1117.93	506
1120.22	410
1122.52	314
1124.81	272
1127.1	260
1129.39	272
1131.68	260
1133.97	240
1136.26	248
1138.54	246
1140.83	250
1143.12	256
1145.4	232
1147.69	240
1149.97	220
1152.25	228
1154.54	234
1156.82	264
1159.1	266
1161.38	270
1163.66	284
1165.94	252
1168.22	256
1170.49	256
1172.77	260
1175.05	270
1177.32	298
1179.6	352
1181.87	452
1184.14	570
1186.42	640
1188.69	588
1190.96	510
1193.23	464
1195.5	408
1197.77	438
1200.03	452
1202.3	448
1204.57	464
1206.83	428
1209.1	360
1211.36	312
1213.63	254
1215.89	252
1218.15	246
1220.41	248
1222.67	248
1224.93	292
1227.19	336
1229.45	360
1231.71	348
1233.97	306
1236.22	280
1238.48	262
1240.73	234
1242.99	234
1245.24	204
1247.5	236
1249.75	230
1252	220
1254.25	238
1256.5	228
1258.75	248
1261	244
1263.25	244
1265.49	246
1267.74	250
1269.99	266
1272.23	250
1274.48	282
1276.72	286
1278.96	324
1281.21	322
1283.45	356
1285.69	392
1287.93	400
1290.17	468
1292.41	502
1294.64	610
1296.88	790
1299.12	1110
1301.36	1526
1303.59	2040
1305.82	2166
1308.06	1828
1310.29	1260
1312.52	968
1314.76	728
1316.99	628
1319.22	562
1321.45	508
1323.68	500
1325.9	440
1328.13	456
1330.36	444
1332.58	408
1334.81	376
1337.04	348
1339.26	340
1341.48	340
1343.71	360
1345.93	380
1348.15	378
1350.37	394
1352.59	380
1354.81	364
1357.03	334
1359.24	324
1361.46	302
1363.68	302
1365.89	322
1368.11	350
1370.32	388
1372.54	546
1374.75	738
1376.96	956
1379.17	1084
1381.38	1030
1383.59	890
1385.8	716
1388.01	532
1390.22	400
1392.43	318
1394.63	272
1396.84	284
1399.05	284
1401.25	270
1403.45	272
1405.66	270
1407.86	268
1410.06	290
1412.26	286
1414.46	312
1416.66	318
1418.86	348
1421.06	382
1423.26	380
1425.46	408
1427.65	400
1429.85	438
1432.04	450
1434.24	462
1436.43	474
1438.62	492
1440.82	518
1443.01	516
1445.2	490
1447.39	452
1449.58	428
1451.77	400
1453.95	398
1456.14	394
1458.33	366
1460.52	370
1462.7	394
1464.89	374
1467.07	380
1469.25	370
1471.44	350
1473.62	376
1475.8	368
1477.98	370
1480.16	346
1482.34	328
1484.52	320
1486.7	332
1488.87	304
1491.05	288
1493.23	280
1495.4	284
1497.58	306
1499.75	282
1501.92	264
1504.1	274
1506.27	250
1508.44	284
1510.61	280
1512.78	292
1514.95	268
1517.12	258
1519.28	268
1521.45	288
1523.62	270
1525.78	270
1527.95	266
1530.11	294
1532.28	282
1534.44	290
1536.6	268
1538.76	264
1540.93	276
1543.09	274
1545.25	300
1547.41	278
1549.56	268
1551.72	296
1553.88	264
1556.03	294
1558.19	292
1560.35	284
1562.5	284
1564.65	334
1566.81	320
1568.96	318
1571.11	340
1573.26	342
1575.41	360
1577.56	376
1579.71	402
1581.86	438
1584.01	484
1586.15	594
1588.3	652
1590.45	800
1592.59	898
1594.74	1070
1596.88	1216
1599.02	1346
1601.17	1448
1603.31	1518
1605.45	1438
1607.59	1302
1609.73	1130
1611.87	1010
1614.01	862
1616.14	754
1618.28	650
1620.42	570
1622.55	466
1624.69	398
1626.82	366
1628.96	320
1631.09	326
1633.22	292
1635.36	276
1637.49	266
1639.62	276
1641.75	258
1643.88	256
1646	248
1648.13	250
1650.26	240
1652.39	246
1654.51	242
1656.64	230
1658.76	228
1660.89	230
1663.01	226
1665.13	258
1667.26	222
1669.38	230
1671.5	232
1673.62	234
1675.74	234
1677.86	238
1679.97	218
1682.09	240
1684.21	244
1686.33	238
1688.44	264
1690.56	242
1692.67	268
1694.78	256
1696.9	246
1699.01	260
1701.12	242
1703.23	234
1705.34	248
1707.45	218
1709.56	248
1711.67	240
1713.78	246
1715.88	228
1717.99	224
1720.1	242
1722.2	236
1724.31	232
1726.41	226
1728.51	216
1730.62	234
1732.72	214
1734.82	192
1736.92	226
1739.02	224
1741.12	224
1743.22	218
1745.32	214
1747.42	206
1749.51	222
1751.61	216
1753.7	218
1755.8	220
1757.89	210
1759.99	222
1762.08	226
1764.17	206
1766.26	200
1768.36	218
1770.45	202
1772.54	216
1774.62	222
1776.71	208
1778.8	218
1780.89	200
1782.98	190
1785.06	204
1787.15	220
1789.23	212
1791.32	220
1793.4	204
1795.48	204
1797.56	222
1799.65	220
1801.73	208
1803.81	210
1805.89	216
1807.97	202
1810.04	228
1812.12	190
1814.2	188
1816.28	216
1818.35	198
1820.43	214
1822.5	224
1824.58	208
1826.65	212
1828.72	206
1830.79	208
1832.86	216
1834.94	208
1837.01	216
1839.08	218
1841.15	208
1843.21	212
1845.28	216
1847.35	216
1849.41	228
1851.48	224
1853.55	282
1855.61	264
1857.67	232
1859.74	214
1861.8	216
1863.86	198
1865.92	204
1867.98	192
1870.05	202
1872.1	200
1874.16	214
1876.22	204
1878.28	218
1880.34	228
1882.39	238
1884.45	202
1886.5	212
1888.56	208
1890.61	218
1892.67	204
1894.72	208
1896.77	230
1898.82	222
1900.87	208
1902.92	216
1904.97	206
1907.02	200
1909.07	210
1911.12	230
1913.17	220
1915.21	216
1917.26	212
1919.3	208
1921.35	220
1923.39	204
1925.43	200
1927.48	212
1929.52	212
1931.56	206
1933.6	208
1935.64	220
1937.68	224
1939.72	208
1941.76	208
1943.8	202
1945.83	204
1947.87	218
1949.91	198
1951.94	192
1953.98	206
1956.01	210
1958.05	222
1960.08	206
1962.11	200
1964.14	208
1966.17	220
1968.2	204
1970.23	206
1972.26	200
1974.29	226
1976.32	212
1978.35	212
1980.37	222
1982.4	228
1984.43	218
1986.45	214
1988.48	202
1990.5	188
1992.52	222
1994.55	206
1996.57	220
1998.59	222
2000.61	218
2002.63	218
2004.65	194
2006.67	204
2008.69	214
2010.7	218
2012.72	200
2014.74	202
2016.75	222
2018.77	218
2020.78	206
2022.8	198
2024.81	222
2026.83	212
2028.84	220
2030.85	214
2032.86	224
2034.87	196
2036.88	210
2038.89	236
2040.9	208
2042.91	218
2044.91	198
2046.92	202
2048.93	220
2050.93	226
2052.94	206
2054.94	210
2056.95	228
2058.95	216
2060.95	192
2062.95	206
2064.96	216
2066.96	212
2068.96	208
2070.96	210
2072.96	208
2074.95	212
2076.95	200
2078.95	216
2080.95	212
2082.94	220
2084.94	218
2086.93	214
2088.93	208
2090.92	208
2092.91	206
2094.91	222
2096.9	198
2098.89	212
2100.88	222
2102.87	220
2104.86	216
2106.85	218
2108.84	216
2110.83	196
2112.81	218
2114.8	208
2116.78	212
2118.77	210
2120.75	194
2122.74	212
2124.72	216
2126.71	206
2128.69	202
2130.67	210
2132.65	204
2134.63	212
2136.61	202
2138.59	210
2140.57	206
2142.55	200
2144.53	212
2146.5	208
2148.48	208
2150.46	212
2152.43	210
2154.41	202
2156.38	204
2158.35	212
2160.33	220
2162.3	208
2164.27	198
2166.24	212
2168.21	200
2170.18	214
2172.15	198
2174.12	218
2176.09	190
2178.06	204
2180.03	220
2181.99	196
2183.96	220
2185.92	224
2187.89	204
2189.85	214
2191.82	196
2193.78	210
2195.74	202
2197.7	202
2199.67	204
2201.63	192
2203.59	206
2205.55	200
2207.51	214
2209.46	220
2211.42	198
2213.38	200
2215.34	218
2217.29	212
2219.25	212
2221.2	200
2223.16	208
2225.11	220
2227.06	208
2229.02	220
2230.97	210
2232.92	192
2234.87	208
2236.82	200
2238.77	216
2240.72	212
2242.67	186
2244.62	210
2246.57	214
2248.51	196
2250.46	206
2252.4	216
2254.35	204
2256.29	208
2258.24	204
2260.18	202
2262.13	200
2264.07	194
2266.01	210
2267.95	198
2269.89	196
2271.83	204
2273.77	210
2275.71	208
2277.65	218
2279.58	216
2281.52	220
2283.46	212
2285.4	206
2287.33	208
2289.27	210
2291.2	208
2293.13	202
2295.07	210
2297	210
2298.93	202
2300.86	218
2302.79	208
2304.72	222
2306.65	212
2308.58	228
2310.51	216
2312.44	228
2314.37	232
2316.29	222
2318.22	218
2320.15	222
2322.07	228
2324	226
2325.92	210
2327.84	220
2329.77	212
2331.69	216
2333.61	206
2335.53	210
2337.45	194
2339.37	218
2341.29	220
2343.21	212
2345.13	238
2347.05	192
2348.97	216
2350.88	224
2352.8	206
2354.71	202
2356.63	208
2358.54	196
2360.46	206
2362.37	208
2364.28	210
2366.2	214
2368.11	210
2370.02	220
2371.93	210
2373.84	218
2375.75	234
2377.66	212
2379.57	222
2381.47	214
2383.38	202
2385.29	212
2387.2	222
2389.1	218
2391.01	210
2392.91	206
2394.81	212
2396.72	216
2398.62	214
2400.52	214
2402.42	220
2404.33	212
2406.23	216
2408.13	222
2410.03	206
2411.92	224
2413.82	222
2415.72	224
2417.62	220
2419.51	220
2421.41	200
2423.31	190
2425.2	216
2427.1	204
2428.99	190
2430.88	210
2432.78	206
2434.67	220
2436.56	210
2438.45	204
2440.34	204
2442.23	194
2444.12	202
2446.01	198
2447.9	224
2449.79	212