File: Mixture_Classification/Jesse_Dataset_v2/Pure Raman/Polypropylene oxide/633nm/ps-ppo-7jan25-0,0000-map2_Y03_X10.txt
182.393	748
184.993	692
187.593	686
190.193	646
192.79	618
195.387	602
197.983	580
200.578	562
203.174	532
205.766	518
208.36	512
210.951	482
213.542	460
216.131	482
218.721	512
221.309	514
223.897	584
226.483	776
229.069	992
231.654	1190
234.238	1294
236.821	1308
239.404	1182
241.984	1054
244.566	862
247.145	790
249.723	650
252.302	570
254.878	498
257.455	456
260.03	400
262.604	356
265.178	308
267.75	330
270.322	332
272.893	294
275.463	304
278.032	330
280.601	332
283.168	352
285.734	408
288.301	472
290.866	564
293.429	608
295.992	668
298.556	636
301.117	580
303.677	520
306.236	498
308.795	444
311.354	424
313.911	384
316.467	410
319.022	406
321.577	410
324.13	414
326.684	378
329.236	386
331.787	432
334.337	428
336.887	452
339.435	404
341.983	390
344.529	394
347.075	364
349.621	376
352.165	374
354.708	394
357.251	378
359.793	388
362.334	348
364.874	338
367.413	356
369.951	368
372.489	360
375.026	350
377.562	344
380.097	312
382.631	280
385.164	264
387.697	268
390.229	266
392.76	252
395.29	248
397.819	286
400.346	228
402.873	244
405.4	296
407.926	312
410.451	344
412.976	398
415.499	370
418.02	374
420.542	332
423.063	286
425.583	258
428.101	272
430.619	248
433.137	238
435.654	220
438.169	218
440.684	214
443.198	188
445.712	206
448.223	198
450.735	206
453.246	204
455.755	198
458.264	214
460.771	202
463.279	206
465.786	226
468.291	272
470.796	298
473.301	336
475.803	374
478.306	426
480.807	464
483.308	498
485.807	570
488.307	486
490.804	368
493.302	344
495.798	298
498.294	256
500.788	230
503.283	228
505.775	244
508.269	282
510.759	340
513.251	424
515.74	416
518.23	344
520.718	306
523.204	328
525.692	334
528.177	406
530.663	460
533.147	588
535.629	744
538.113	802
540.594	798
543.074	708
545.555	588
548.034	488
550.512	426
552.989	408
555.467	458
557.942	528
560.417	678
562.892	1064
565.365	1704
567.838	2726
570.309	3766
572.78	3746
575.251	2674
577.72	1580
580.189	944
582.656	728
585.123	694
587.589	612
590.055	554
592.52	540
594.983	504
597.446	464
599.908	404
602.369	356
604.829	294
607.289	250
609.747	256
612.205	228
614.663	234
617.119	252
619.574	262
622.029	286
624.483	268
626.936	306
629.389	326
631.84	332
634.291	334
636.741	348
639.19	364
641.639	318
644.086	274
646.533	264
648.979	262
651.424	250
653.869	256
656.313	226
658.754	208
661.196	214
663.638	202
666.078	192
668.518	184
670.957	188
673.394	184
675.831	184
678.268	190
680.703	202
683.137	194
685.571	188
688.005	208
690.437	178
692.868	170
695.299	188
697.729	204
700.159	188
702.586	176
705.014	198
707.441	224
709.866	232
712.292	258
714.716	274
717.14	236
719.563	234
721.984	228
724.406	222
726.825	222
729.246	236
731.665	236
734.082	236
736.5	244
738.916	252
741.332	254
743.746	304
746.161	352
748.574	348
750.987	326
753.398	314
755.81	286
758.219	276
760.629	246
763.037	210
765.445	198
767.852	208
770.258	200
772.664	224
775.068	210
777.472	224
779.876	242
782.278	248
784.679	226
787.08	226
789.48	222
791.879	224
794.278	210
796.675	210
799.072	214
801.467	224
803.864	218
806.258	230
808.651	230
811.044	246
813.437	260
815.828	244
818.218	266
820.608	262
822.997	302
825.385	342
827.773	504
830.16	814
832.546	1170
834.931	1124
837.315	692
839.699	400
842.081	324
844.463	290
846.844	292
849.226	296
851.606	272
853.985	264
856.363	254
858.741	268
861.117	242
863.493	230
865.868	236
868.243	208
870.616	222
872.989	220
875.36	216
877.731	200
880.102	216
882.472	212
884.841	198
887.209	200
889.577	188
891.944	208
894.31	186
896.674	216
899.039	206
901.403	192
903.766	216
906.128	194
908.49	206
910.849	212
913.209	200
915.569	194
917.927	190
920.284	214
922.641	214
924.997	208
927.353	214
929.707	222
932.061	224
934.414	226
936.765	232
939.117	252
941.469	240
943.818	254
946.167	304
948.515	358
950.863	430
953.211	608
955.556	706
957.902	900
960.246	966
962.59	920
964.933	778
967.276	666
969.617	548
971.958	468
974.298	388
976.638	318
978.976	296
981.314	260
983.651	242
985.988	250
988.323	252
990.659	258
992.992	254
995.325	220
997.658	232
999.99	218
1002.32	212
1004.65	222
1006.98	228
1009.31	220
1011.64	230
1013.97	212
1016.29	238
1018.62	244
1020.94	250
1023.27	258
1025.59	258
1027.91	278
1030.24	300
1032.56	316
1034.88	308
1037.2	312
1039.52	272
1041.84	276
1044.15	256
1046.47	256
1048.79	234
1051.1	236
1053.42	248
1055.73	232
1058.04	212
1060.36	232
1062.67	228
1064.98	228
1067.29	222
1069.6	230
1071.91	208
1074.22	226
1076.52	224
1078.83	234
1081.14	214
1083.44	214
1085.75	246
1088.05	244
1090.35	226
1092.65	232
1094.95	242
1097.26	242
1099.56	226
1101.86	258
1104.15	296
1106.45	418
1108.75	612
1111.05	876
1113.34	940
1115.64	792
1117.93	570
1120.22	406
1122.52	322
1124.81	320
1127.1	304
1129.39	284
1131.68	260
1133.97	276
1136.26	266
1138.54	256
1140.83	266
1143.12	266
1145.4	254
1147.69	256
1149.97	242
1152.25	246
1154.54	260
1156.82	262
1159.1	280
1161.38	322
1163.66	312
1165.94	304
1168.22	274
1170.49	274
1172.77	280
1175.05	294
1177.32	316
1179.6	376
1181.87	458
1184.14	580
1186.42	666
1188.69	624
1190.96	532
1193.23	466
1195.5	446
1197.77	458
1200.03	478
1202.3	490
1204.57	504
1206.83	460
1209.1	394
1211.36	310
1213.63	288
1215.89	262
1218.15	290
1220.41	270
1222.67	286
1224.93	316
1227.19	342
1229.45	368
1231.71	348
1233.97	330
1236.22	294
1238.48	282
1240.73	266
1242.99	244
1245.24	272
1247.5	258
1249.75	240
1252	246
1254.25	254
1256.5	256
1258.75	260
1261	256
1263.25	280
1265.49	286
1267.74	268
1269.99	282
1272.23	278
1274.48	298
1276.72	316
1278.96	316
1281.21	354
1283.45	384
1285.69	402
1287.93	416
1290.17	444
1292.41	534
1294.64	642
1296.88	842
1299.12	1138
1301.36	1608
1303.59	2106
1305.82	2244
1308.06	1936
1310.29	1348
1312.52	990
1314.76	750
1316.99	670
1319.22	582
1321.45	526
1323.68	480
1325.9	466
1328.13	492
1330.36	480
1332.58	436
1334.81	410
1337.04	368
1339.26	364
1341.48	352
1343.71	368
1345.93	386
1348.15	436
1350.37	416
1352.59	406
1354.81	372
1357.03	358
1359.24	332
1361.46	344
1363.68	332
1365.89	364
1368.11	362
1370.32	430
1372.54	568
1374.75	788
1376.96	1000
1379.17	1164
1381.38	1078
1383.59	892
1385.8	744
1388.01	550
1390.22	416
1392.43	364
1394.63	332
1396.84	304
1399.05	328
1401.25	288
1403.45	304
1405.66	310
1407.86	314
1410.06	286
1412.26	298
1414.46	326
1416.66	354
1418.86	364
1421.06	384
1423.26	442
1425.46	438
1427.65	454
1429.85	474
1432.04	484
1434.24	480
1436.43	514
1438.62	528
1440.82	558
1443.01	532
1445.2	510
1447.39	454
1449.58	470
1451.77	452
1453.95	404
1456.14	402
1458.33	422
1460.52	412
1462.7	376
1464.89	418
1467.07	388
1469.25	378
1471.44	434
1473.62	390
1475.8	386
1477.98	394
1480.16	396
1482.34	356
1484.52	344
1486.7	338
1488.87	330
1491.05	312
1493.23	304
1495.4	320
1497.58	288
1499.75	302
1501.92	310
1504.1	298
1506.27	300
1508.44	294
1510.61	282
1512.78	316
1514.95	300
1517.12	304
1519.28	306
1521.45	302
1523.62	294
1525.78	306
1527.95	316
1530.11	310
1532.28	284
1534.44	312
1536.6	318
1538.76	310
1540.93	298
1543.09	270
1545.25	300
1547.41	306
1549.56	304
1551.72	318
1553.88	310
1556.03	324
1558.19	332
1560.35	316
1562.5	306
1564.65	334
1566.81	332
1568.96	342
1571.11	340
1573.26	376
1575.41	384
1577.56	412
1579.71	456
1581.86	482
1584.01	536
1586.15	630
1588.3	712
1590.45	810
1592.59	970
1594.74	1066
1596.88	1250
1599.02	1388
1601.17	1528
1603.31	1526
1605.45	1410
1607.59	1338
1609.73	1198
1611.87	1040
1614.01	882
1616.14	754
1618.28	660
1620.42	580
1622.55	472
1624.69	426
1626.82	382
1628.96	358
1631.09	326
1633.22	322
1635.36	326
1637.49	310
1639.62	282
1641.75	274
1643.88	280
1646	262
1648.13	266
1650.26	260
1652.39	264
1654.51	246
1656.64	278
1658.76	268
1660.89	254
1663.01	252
1665.13	254
1667.26	256
1669.38	274
1671.5	254
1673.62	238
1675.74	246
1677.86	250
1679.97	242
1682.09	248
1684.21	258
1686.33	288
1688.44	262
1690.56	282
1692.67	266
1694.78	270
1696.9	294
1699.01	282
1701.12	274
1703.23	254
1705.34	266
1707.45	268
1709.56	274
1711.67	262
1713.78	244
1715.88	254
1717.99	266
1720.1	258
1722.2	264
1724.31	224
1726.41	262
1728.51	242
1730.62	238
1732.72	244
1734.82	242
1736.92	234
1739.02	258
1741.12	256
1743.22	234
1745.32	230
1747.42	238
1749.51	246
1751.61	236
1753.7	232
1755.8	242
1757.89	244
1759.99	258
1762.08	230
1764.17	234
1766.26	232
1768.36	242
1770.45	244
1772.54	234
1774.62	236
1776.71	242
1778.8	254
1780.89	238
1782.98	234
1785.06	238
1787.15	240
1789.23	244
1791.32	230
1793.4	244
1795.48	242
1797.56	230
1799.65	240
1801.73	244
1803.81	228
1805.89	228
1807.97	228
1810.04	238
1812.12	234
1814.2	260
1816.28	220
1818.35	238
1820.43	228
1822.5	228
1824.58	216
1826.65	234
1828.72	228
1830.79	232
1832.86	244
1834.94	232
1837.01	222
1839.08	230
1841.15	232
1843.21	238
1845.28	234
1847.35	218
1849.41	220
1851.48	250
1853.55	216
1855.61	240
1857.67	244
1859.74	232
1861.8	236
1863.86	218
1865.92	224
1867.98	226
1870.05	244
1872.1	232
1874.16	228
1876.22	232
1878.28	242
1880.34	262
1882.39	246
1884.45	232
1886.5	220
1888.56	228
1890.61	244
1892.67	242
1894.72	236
1896.77	246
1898.82	244
1900.87	218
1902.92	242
1904.97	224
1907.02	234
1909.07	246
1911.12	242
1913.17	252
1915.21	248
1917.26	234
1919.3	236
1921.35	252
1923.39	242
1925.43	230
1927.48	250
1929.52	232
1931.56	232
1933.6	224
1935.64	250
1937.68	248
1939.72	262
1941.76	230
1943.8	248
1945.83	230
1947.87	244
1949.91	230
1951.94	220
1953.98	214
1956.01	240
1958.05	216
1960.08	222
1962.11	238
1964.14	224
1966.17	228
1968.2	238
1970.23	230
1972.26	234
1974.29	224
1976.32	222
1978.35	236
1980.37	250
1982.4	236
1984.43	248
1986.45	240
1988.48	226
1990.5	238
1992.52	228
1994.55	234
1996.57	232
1998.59	232
2000.61	252
2002.63	228
2004.65	216
2006.67	232
2008.69	234
2010.7	242
2012.72	230
2014.74	234
2016.75	230
2018.77	234
2020.78	240
2022.8	228
2024.81	226
2026.83	244
2028.84	236
2030.85	228
2032.86	228
2034.87	234
2036.88	240
2038.89	222
2040.9	250
2042.91	250
2044.91	228
2046.92	244
2048.93	234
2050.93	216
2052.94	210
2054.94	224
2056.95	242
2058.95	238
2060.95	226
2062.95	238
2064.96	244
2066.96	248
2068.96	242
2070.96	232
2072.96	240
2074.95	218
2076.95	244
2078.95	246
2080.95	220
2082.94	226
2084.94	246
2086.93	258
2088.93	214
2090.92	224
2092.91	236
2094.91	232
2096.9	232
2098.89	240
2100.88	222
2102.87	230
2104.86	232
2106.85	220
2108.84	220
2110.83	232
2112.81	230
2114.8	224
2116.78	230
2118.77	234
2120.75	228
2122.74	232
2124.72	224
2126.71	218
2128.69	224
2130.67	230
2132.65	240
2134.63	218
2136.61	254
2138.59	226
2140.57	216
2142.55	234
2144.53	212
2146.5	216
2148.48	208
2150.46	216
2152.43	234
2154.41	236
2156.38	238
2158.35	228
2160.33	230
2162.3	228
2164.27	230
2166.24	226
2168.21	224
2170.18	232
2172.15	242
2174.12	230
2176.09	226
2178.06	218
2180.03	232
2181.99	208
2183.96	214
2185.92	218
2187.89	234
2189.85	228
2191.82	224
2193.78	240
2195.74	210
2197.7	244
2199.67	218
2201.63	228
2203.59	240
2205.55	234
2207.51	222
2209.46	254
2211.42	210
2213.38	220
2215.34	240
2217.29	228
2219.25	228
2221.2	224
2223.16	226
2225.11	240
2227.06	204
2229.02	230
2230.97	248
2232.92	218
2234.87	230
2236.82	230
2238.77	230
2240.72	238
2242.67	242
2244.62	240
2246.57	246
2248.51	230
2250.46	232
2252.4	226
2254.35	224
2256.29	234
2258.24	222
2260.18	238
2262.13	240
2264.07	228
2266.01	234
2267.95	222
2269.89	234
2271.83	224
2273.77	224
2275.71	228
2277.65	234
2279.58	248
2281.52	228
2283.46	246
2285.4	220
2287.33	220
2289.27	236
2291.2	238
2293.13	212
2295.07	232
2297	214
2298.93	224
2300.86	236
2302.79	216
2304.72	250
2306.65	234
2308.58	226
2310.51	240
2312.44	228
2314.37	230
2316.29	240
2318.22	240
2320.15	248
2322.07	250
2324	232
2325.92	248
2327.84	228
2329.77	234
2331.69	226
2333.61	238
2335.53	242
2337.45	232
2339.37	242
2341.29	232
2343.21	226
2345.13	216
2347.05	236
2348.97	236
2350.88	244
2352.8	232
2354.71	224
2356.63	230
2358.54	240
2360.46	220
2362.37	234
2364.28	216
2366.2	214
2368.11	232
2370.02	216
2371.93	252
2373.84	238
2375.75	218
2377.66	230
2379.57	218
2381.47	222
2383.38	248
2385.29	218
2387.2	242
2389.1	222
2391.01	232
2392.91	244
2394.81	240
2396.72	230
2398.62	248
2400.52	232
2402.42	238
2404.33	234
2406.23	240
2408.13	230
2410.03	246
2411.92	234
2413.82	230
2415.72	228
2417.62	222
2419.51	220
2421.41	204
2423.31	224
2425.2	242
2427.1	220
2428.99	212
2430.88	218
2432.78	234
2434.67	216
2436.56	232
2438.45	224
2440.34	240
2442.23	220
2444.12	220
2446.01	234
2447.9	230
2449.79	232