File: Mixture_Classification/Jesse_Dataset_v2/Pure Raman/Polypropylene oxide/633nm/ps-ppo-7jan25-0,0000-map2_Y07_X04.txt
182.393	696
184.993	676
187.593	638
190.193	610
192.79	592
195.387	552
197.983	560
200.578	512
203.174	486
205.766	488
208.36	486
210.951	440
213.542	444
216.131	436
218.721	418
221.309	490
223.897	568
226.483	726
229.069	926
231.654	1146
234.238	1272
236.821	1210
239.404	1174
241.984	988
244.566	878
247.145	746
249.723	654
252.302	554
254.878	462
257.455	412
260.03	366
262.604	336
265.178	296
267.75	280
270.322	264
272.893	270
275.463	274
278.032	294
280.601	298
283.168	320
285.734	332
288.301	452
290.866	532
293.429	578
295.992	592
298.556	626
301.117	564
303.677	500
306.236	466
308.795	424
311.354	404
313.911	384
316.467	354
319.022	346
321.577	358
324.13	366
326.684	360
329.236	384
331.787	382
334.337	372
336.887	374
339.435	370
341.983	372
344.529	350
347.075	340
349.621	332
352.165	328
354.708	342
357.251	352
359.793	336
362.334	302
364.874	324
367.413	328
369.951	336
372.489	334
375.026	336
377.562	304
380.097	274
382.631	276
385.164	240
387.697	226
390.229	224
392.76	236
395.29	224
397.819	226
400.346	220
402.873	228
405.4	248
407.926	280
410.451	316
412.976	358
415.499	374
418.02	344
420.542	306
423.063	270
425.583	252
428.101	196
430.619	192
433.137	212
435.654	184
438.169	184
440.684	182
443.198	156
445.712	158
448.223	166
450.735	164
453.246	166
455.755	182
458.264	168
460.771	182
463.279	196
465.786	194
468.291	230
470.796	278
473.301	286
475.803	336
478.306	380
480.807	436
483.308	494
485.807	498
488.307	450
490.804	362
493.302	300
495.798	256
498.294	258
500.788	218
503.283	194
505.775	220
508.269	254
510.759	302
513.251	416
515.74	374
518.23	306
520.718	282
523.204	314
525.692	338
528.177	376
530.663	454
533.147	560
535.629	678
538.113	738
540.594	774
543.074	682
545.555	534
548.034	456
550.512	400
552.989	364
555.467	438
557.942	494
560.417	660
562.892	978
565.365	1618
567.838	2652
570.309	3672
572.78	3670
575.251	2642
577.72	1528
580.189	964
582.656	676
585.123	632
587.589	570
590.055	520
592.52	500
594.983	486
597.446	410
599.908	376
602.369	306
604.829	284
607.289	224
609.747	220
612.205	210
614.663	218
617.119	200
619.574	220
622.029	234
624.483	250
626.936	260
629.389	282
631.84	290
634.291	308
636.741	302
639.19	314
641.639	276
644.086	240
646.533	228
648.979	228
651.424	220
653.869	198
656.313	190
658.754	184
661.196	184
663.638	184
666.078	162
668.518	162
670.957	172
673.394	152
675.831	166
678.268	158
680.703	164
683.137	156
685.571	156
688.005	182
690.437	166
692.868	160
695.299	162
697.729	164
700.159	164
702.586	164
705.014	182
707.441	190
709.866	186
712.292	218
714.716	240
717.14	252
719.563	216
721.984	198
724.406	204
726.825	200
729.246	200
731.665	202
734.082	202
736.5	210
738.916	218
741.332	242
743.746	264
746.161	292
748.574	324
750.987	316
753.398	294
755.81	268
758.219	232
760.629	208
763.037	196
765.445	206
767.852	186
770.258	174
772.664	184
775.068	216
777.472	196
779.876	204
782.278	194
784.679	198
787.08	192
789.48	208
791.879	182
794.278	194
796.675	194
799.072	174
801.467	184
803.864	200
806.258	178
808.651	188
811.044	192
813.437	192
815.828	212
818.218	210
820.608	242
822.997	266
825.385	334
827.773	480
830.16	762
832.546	1170
834.931	1126
837.315	644
839.699	402
842.081	266
844.463	274
846.844	262
849.226	268
851.606	230
853.985	230
856.363	230
858.741	234
861.117	222
863.493	218
865.868	206
868.243	196
870.616	184
872.989	170
875.36	198
877.731	186
880.102	186
882.472	180
884.841	188
887.209	172
889.577	180
891.944	168
894.31	182
896.674	168
899.039	168
901.403	174
903.766	162
906.128	180
908.49	184
910.849	170
913.209	190
915.569	176
917.927	162
920.284	178
922.641	152
924.997	168
927.353	184
929.707	182
932.061	172
934.414	198
936.765	206
939.117	220
941.469	244
943.818	226
946.167	268
948.515	334
950.863	418
953.211	542
955.556	714
957.902	808
960.246	942
962.59	864
964.933	752
967.276	622
969.617	540
971.958	448
974.298	364
976.638	284
978.976	258
981.314	230
983.651	226
985.988	202
988.323	206
990.659	236
992.992	216
995.325	202
997.658	216
999.99	190
1002.32	190
1004.65	190
1006.98	196
1009.31	192
1011.64	204
1013.97	212
1016.29	184
1018.62	214
1020.94	236
1023.27	238
1025.59	250
1027.91	264
1030.24	278
1032.56	290
1034.88	282
1037.2	270
1039.52	258
1041.84	278
1044.15	242
1046.47	230
1048.79	212
1051.1	196
1053.42	204
1055.73	188
1058.04	190
1060.36	216
1062.67	182
1064.98	186
1067.29	192
1069.6	210
1071.91	200
1074.22	200
1076.52	200
1078.83	198
1081.14	198
1083.44	196
1085.75	192
1088.05	208
1090.35	210
1092.65	198
1094.95	202
1097.26	224
1099.56	214
1101.86	236
1104.15	278
1106.45	366
1108.75	560
1111.05	782
1113.34	896
1115.64	742
1117.93	496
1120.22	386
1122.52	284
1124.81	284
1127.1	254
1129.39	264
1131.68	214
1133.97	232
1136.26	232
1138.54	228
1140.83	244
1143.12	240
1145.4	234
1147.69	220
1149.97	220
1152.25	220
1154.54	210
1156.82	232
1159.1	240
1161.38	276
1163.66	258
1165.94	252
1168.22	244
1170.49	246
1172.77	242
1175.05	266
1177.32	290
1179.6	346
1181.87	416
1184.14	540
1186.42	610
1188.69	610
1190.96	478
1193.23	438
1195.5	422
1197.77	456
1200.03	464
1202.3	446
1204.57	460
1206.83	410
1209.1	342
1211.36	308
1213.63	270
1215.89	240
1218.15	236
1220.41	226
1222.67	254
1224.93	264
1227.19	318
1229.45	344
1231.71	326
1233.97	296
1236.22	268
1238.48	256
1240.73	230
1242.99	236
1245.24	224
1247.5	216
1249.75	224
1252	228
1254.25	222
1256.5	232
1258.75	230
1261	200
1263.25	230
1265.49	242
1267.74	252
1269.99	258
1272.23	250
1274.48	256
1276.72	278
1278.96	280
1281.21	336
1283.45	354
1285.69	376
1287.93	398
1290.17	442
1292.41	476
1294.64	602
1296.88	774
1299.12	1088
1301.36	1556
1303.59	2056
1305.82	2196
1308.06	1810
1310.29	1296
1312.52	932
1314.76	748
1316.99	606
1319.22	540
1321.45	496
1323.68	448
1325.9	454
1328.13	432
1330.36	438
1332.58	382
1334.81	378
1337.04	326
1339.26	332
1341.48	344
1343.71	352
1345.93	358
1348.15	358
1350.37	392
1352.59	378
1354.81	342
1357.03	332
1359.24	322
1361.46	288
1363.68	284
1365.89	324
1368.11	334
1370.32	406
1372.54	518
1374.75	748
1376.96	956
1379.17	1064
1381.38	1038
1383.59	904
1385.8	712
1388.01	512
1390.22	396
1392.43	316
1394.63	290
1396.84	284
1399.05	278
1401.25	260
1403.45	264
1405.66	262
1407.86	268
1410.06	270
1412.26	276
1414.46	280
1416.66	326
1418.86	332
1421.06	378
1423.26	374
1425.46	402
1427.65	426
1429.85	424
1432.04	434
1434.24	440
1436.43	498
1438.62	490
1440.82	512
1443.01	464
1445.2	474
1447.39	434
1449.58	424
1451.77	380
1453.95	398
1456.14	368
1458.33	378
1460.52	376
1462.7	380
1464.89	350
1467.07	354
1469.25	374
1471.44	366
1473.62	354
1475.8	366
1477.98	350
1480.16	354
1482.34	328
1484.52	344
1486.7	314
1488.87	304
1491.05	286
1493.23	290
1495.4	286
1497.58	274
1499.75	270
1501.92	262
1504.1	262
1506.27	264
1508.44	282
1510.61	284
1512.78	290
1514.95	264
1517.12	252
1519.28	268
1521.45	244
1523.62	274
1525.78	276
1527.95	260
1530.11	246
1532.28	266
1534.44	264
1536.6	240
1538.76	278
1540.93	266
1543.09	288
1545.25	272
1547.41	276
1549.56	272
1551.72	274
1553.88	296
1556.03	286
1558.19	262
1560.35	306
1562.5	300
1564.65	296
1566.81	302
1568.96	324
1571.11	310
1573.26	336
1575.41	386
1577.56	382
1579.71	426
1581.86	434
1584.01	480
1586.15	572
1588.3	646
1590.45	758
1592.59	890
1594.74	1048
1596.88	1140
1599.02	1344
1601.17	1480
1603.31	1462
1605.45	1386
1607.59	1246
1609.73	1094
1611.87	1014
1614.01	834
1616.14	710
1618.28	608
1620.42	534
1622.55	480
1624.69	390
1626.82	370
1628.96	344
1631.09	322
1633.22	288
1635.36	266
1637.49	266
1639.62	246
1641.75	254
1643.88	242
1646	246
1648.13	240
1650.26	244
1652.39	220
1654.51	236
1656.64	222
1658.76	232
1660.89	242
1663.01	236
1665.13	218
1667.26	220
1669.38	220
1671.5	212
1673.62	202
1675.74	230
1677.86	224
1679.97	226
1682.09	208
1684.21	246
1686.33	242
1688.44	230
1690.56	250
1692.67	250
1694.78	238
1696.9	254
1699.01	256
1701.12	256
1703.23	248
1705.34	228
1707.45	240
1709.56	234
1711.67	242
1713.78	218
1715.88	248
1717.99	234
1720.1	220
1722.2	218
1724.31	198
1726.41	228
1728.51	210
1730.62	212
1732.72	214
1734.82	234
1736.92	214
1739.02	234
1741.12	218
1743.22	202
1745.32	216
1747.42	210
1749.51	202
1751.61	228
1753.7	212
1755.8	194
1757.89	214
1759.99	200
1762.08	206
1764.17	202
1766.26	194
1768.36	196
1770.45	214
1772.54	208
1774.62	212
1776.71	210
1778.8	200
1780.89	194
1782.98	208
1785.06	214
1787.15	208
1789.23	210
1791.32	220
1793.4	218
1795.48	204
1797.56	202
1799.65	222
1801.73	210
1803.81	190
1805.89	192
1807.97	224
1810.04	202
1812.12	200
1814.2	204
1816.28	206
1818.35	206
1820.43	220
1822.5	218
1824.58	208
1826.65	202
1828.72	208
1830.79	194
1832.86	196
1834.94	206
1837.01	194
1839.08	228
1841.15	210
1843.21	206
1845.28	222
1847.35	202
1849.41	188
1851.48	198
1853.55	214
1855.61	200
1857.67	200
1859.74	210
1861.8	204
1863.86	202
1865.92	224
1867.98	200
1870.05	218
1872.1	198
1874.16	206
1876.22	220
1878.28	196
1880.34	210
1882.39	202
1884.45	216
1886.5	210
1888.56	194
1890.61	204
1892.67	200
1894.72	220
1896.77	214
1898.82	222
1900.87	200
1902.92	208
1904.97	224
1907.02	210
1909.07	222
1911.12	220
1913.17	202
1915.21	230
1917.26	208
1919.3	216
1921.35	222
1923.39	198
1925.43	200
1927.48	210
1929.52	196
1931.56	202
1933.6	210
1935.64	210
1937.68	200
1939.72	208
1941.76	226
1943.8	204
1945.83	210
1947.87	196
1949.91	214
1951.94	212
1953.98	212
1956.01	216
1958.05	210
1960.08	226
1962.11	200
1964.14	208
1966.17	216
1968.2	206
1970.23	210
1972.26	206
1974.29	214
1976.32	214
1978.35	202
1980.37	200
1982.4	188
1984.43	200
1986.45	212
1988.48	198
1990.5	218
1992.52	232
1994.55	194
1996.57	208
1998.59	206
2000.61	204
2002.63	212
2004.65	220
2006.67	218
2008.69	198
2010.7	206
2012.72	204
2014.74	208
2016.75	204
2018.77	218
2020.78	198
2022.8	196
2024.81	208
2026.83	208
2028.84	218
2030.85	200
2032.86	192
2034.87	202
2036.88	200
2038.89	214
2040.9	226
2042.91	192
2044.91	220
2046.92	202
2048.93	220
2050.93	218
2052.94	212
2054.94	204
2056.95	224
2058.95	212
2060.95	208
2062.95	214
2064.96	220
2066.96	206
2068.96	210
2070.96	204
2072.96	206
2074.95	212
2076.95	220
2078.95	212
2080.95	194
2082.94	212
2084.94	234
2086.93	208
2088.93	218
2090.92	216
2092.91	210
2094.91	198
2096.9	210
2098.89	204
2100.88	216
2102.87	214
2104.86	208
2106.85	222
2108.84	224
2110.83	224
2112.81	210
2114.8	224
2116.78	214
2118.77	214
2120.75	228
2122.74	212
2124.72	208
2126.71	200
2128.69	212
2130.67	214
2132.65	204
2134.63	238
2136.61	210
2138.59	218
2140.57	210
2142.55	216
2144.53	216
2146.5	214
2148.48	214
2150.46	212
2152.43	212
2154.41	220
2156.38	200
2158.35	224
2160.33	222
2162.3	202
2164.27	216
2166.24	206
2168.21	222
2170.18	210
2172.15	216
2174.12	214
2176.09	200
2178.06	190
2180.03	206
2181.99	190
2183.96	202
2185.92	202
2187.89	212
2189.85	218
2191.82	196
2193.78	212
2195.74	220
2197.7	218
2199.67	218
2201.63	212
2203.59	198
2205.55	202
2207.51	214
2209.46	206
2211.42	222
2213.38	214
2215.34	218
2217.29	212
2219.25	208
2221.2	196
2223.16	206
2225.11	198
2227.06	212
2229.02	206
2230.97	214
2232.92	210
2234.87	188
2236.82	218
2238.77	226
2240.72	216
2242.67	208
2244.62	218
2246.57	206
2248.51	214
2250.46	204
2252.4	228
2254.35	198
2256.29	220
2258.24	228
2260.18	200
2262.13	212
2264.07	206
2266.01	216
2267.95	218
2269.89	206
2271.83	208
2273.77	208
2275.71	216
2277.65	214
2279.58	208
2281.52	224
2283.46	214
2285.4	228
2287.33	210
2289.27	206
2291.2	206
2293.13	212
2295.07	212
2297	214
2298.93	222
2300.86	212
2302.79	232
2304.72	224
2306.65	226
2308.58	210
2310.51	234
2312.44	220
2314.37	220
2316.29	214
2318.22	210
2320.15	212
2322.07	220
2324	222
2325.92	218
2327.84	224
2329.77	206
2331.69	226
2333.61	214
2335.53	230
2337.45	214
2339.37	216
2341.29	230
2343.21	212
2345.13	216
2347.05	216
2348.97	224
2350.88	228
2352.8	196
2354.71	226
2356.63	200
2358.54	224
2360.46	216
2362.37	218
2364.28	198
2366.2	220
2368.11	218
2370.02	212
2371.93	226
2373.84	210
2375.75	224
2377.66	224
2379.57	202
2381.47	222
2383.38	196
2385.29	214
2387.2	210
2389.1	212
2391.01	232
2392.91	250
2394.81	212
2396.72	234
2398.62	220
2400.52	222
2402.42	220
2404.33	236
2406.23	210
2408.13	224
2410.03	216
2411.92	220
2413.82	214
2415.72	232
2417.62	216
2419.51	228
2421.41	208
2423.31	224
2425.2	214
2427.1	224
2428.99	210
2430.88	196
2432.78	212
2434.67	218
2436.56	210
2438.45	222
2440.34	206
2442.23	220
2444.12	220
2446.01	222
2447.9	212
2449.79	214