File: Mixture_Classification/Jesse_Dataset_v2/Pure Raman/Polypropylene oxide/633nm/ps-ppo-7jan25-0,0000-map2_Y09_X09.txt
182.393	686
184.993	642
187.593	650
190.193	632
192.79	590
195.387	566
197.983	540
200.578	520
203.174	520
205.766	502
208.36	484
210.951	484
213.542	444
216.131	504
218.721	478
221.309	518
223.897	598
226.483	712
229.069	934
231.654	1106
234.238	1232
236.821	1214
239.404	1148
241.984	992
244.566	858
247.145	748
249.723	648
252.302	540
254.878	470
257.455	430
260.03	378
262.604	348
265.178	328
267.75	304
270.322	292
272.893	308
275.463	306
278.032	288
280.601	310
283.168	344
285.734	400
288.301	468
290.866	548
293.429	574
295.992	622
298.556	604
301.117	568
303.677	502
306.236	466
308.795	430
311.354	404
313.911	372
316.467	370
319.022	366
321.577	356
324.13	390
326.684	400
329.236	382
331.787	422
334.337	414
336.887	422
339.435	398
341.983	368
344.529	358
347.075	352
349.621	360
352.165	374
354.708	364
357.251	358
359.793	326
362.334	356
364.874	370
367.413	336
369.951	328
372.489	358
375.026	350
377.562	322
380.097	290
382.631	308
385.164	264
387.697	246
390.229	246
392.76	254
395.29	234
397.819	246
400.346	248
402.873	250
405.4	268
407.926	282
410.451	344
412.976	380
415.499	372
418.02	342
420.542	330
423.063	302
425.583	254
428.101	254
430.619	216
433.137	230
435.654	204
438.169	190
440.684	202
443.198	186
445.712	190
448.223	186
450.735	198
453.246	202
455.755	190
458.264	178
460.771	176
463.279	196
465.786	236
468.291	266
470.796	292
473.301	320
475.803	342
478.306	398
480.807	436
483.308	494
485.807	496
488.307	442
490.804	376
493.302	322
495.798	268
498.294	272
500.788	230
503.283	242
505.775	248
508.269	252
510.759	304
513.251	404
515.74	380
518.23	304
520.718	314
523.204	320
525.692	354
528.177	370
530.663	450
533.147	574
535.629	704
538.113	756
540.594	786
543.074	694
545.555	570
548.034	458
550.512	390
552.989	390
555.467	412
557.942	528
560.417	654
562.892	968
565.365	1530
567.838	2496
570.309	3536
572.78	3578
575.251	2602
577.72	1538
580.189	930
582.656	708
585.123	654
587.589	586
590.055	552
592.52	514
594.983	512
597.446	474
599.908	386
602.369	338
604.829	274
607.289	248
609.747	240
612.205	228
614.663	224
617.119	222
619.574	230
622.029	240
624.483	262
626.936	266
629.389	292
631.84	328
634.291	340
636.741	320
639.19	320
641.639	298
644.086	274
646.533	244
648.979	242
651.424	220
653.869	220
656.313	226
658.754	202
661.196	200
663.638	186
666.078	192
668.518	188
670.957	170
673.394	178
675.831	186
678.268	170
680.703	168
683.137	186
685.571	172
688.005	178
690.437	180
692.868	160
695.299	194
697.729	172
700.159	170
702.586	184
705.014	194
707.441	196
709.866	220
712.292	236
714.716	258
717.14	258
719.563	238
721.984	224
724.406	200
726.825	196
729.246	232
731.665	212
734.082	216
736.5	212
738.916	208
741.332	230
743.746	298
746.161	308
748.574	310
750.987	314
753.398	290
755.81	278
758.219	262
760.629	236
763.037	214
765.445	206
767.852	196
770.258	206
772.664	192
775.068	202
777.472	210
779.876	224
782.278	218
784.679	244
787.08	220
789.48	184
791.879	206
794.278	200
796.675	204
799.072	194
801.467	186
803.864	208
806.258	214
808.651	210
811.044	210
813.437	224
815.828	236
818.218	232
820.608	258
822.997	290
825.385	334
827.773	462
830.16	744
832.546	1132
834.931	1086
837.315	668
839.699	376
842.081	300
844.463	274
846.844	276
849.226	266
851.606	238
853.985	230
856.363	240
858.741	242
861.117	240
863.493	222
865.868	230
868.243	212
870.616	196
872.989	192
875.36	198
877.731	196
880.102	204
882.472	198
884.841	190
887.209	190
889.577	192
891.944	194
894.31	188
896.674	194
899.039	176
901.403	186
903.766	174
906.128	192
908.49	188
910.849	190
913.209	190
915.569	188
917.927	180
920.284	192
922.641	198
924.997	208
927.353	200
929.707	212
932.061	204
934.414	216
936.765	208
939.117	212
941.469	238
943.818	264
946.167	276
948.515	354
950.863	396
953.211	536
955.556	700
957.902	844
960.246	892
962.59	874
964.933	748
967.276	612
969.617	528
971.958	460
974.298	358
976.638	306
978.976	270
981.314	262
983.651	232
985.988	214
988.323	230
990.659	242
992.992	230
995.325	228
997.658	218
999.99	208
1002.32	220
1004.65	214
1006.98	212
1009.31	186
1011.64	192
1013.97	216
1016.29	208
1018.62	254
1020.94	238
1023.27	262
1025.59	268
1027.91	256
1030.24	288
1032.56	264
1034.88	292
1037.2	302
1039.52	282
1041.84	262
1044.15	274
1046.47	252
1048.79	240
1051.1	218
1053.42	218
1055.73	218
1058.04	216
1060.36	216
1062.67	218
1064.98	206
1067.29	204
1069.6	210
1071.91	200
1074.22	206
1076.52	208
1078.83	206
1081.14	218
1083.44	206
1085.75	214
1088.05	204
1090.35	214
1092.65	200
1094.95	224
1097.26	226
1099.56	238
1101.86	240
1104.15	272
1106.45	360
1108.75	576
1111.05	792
1113.34	918
1115.64	728
1117.93	496
1120.22	374
1122.52	320
1124.81	294
1127.1	278
1129.39	256
1131.68	266
1133.97	244
1136.26	232
1138.54	254
1140.83	260
1143.12	256
1145.4	234
1147.69	234
1149.97	236
1152.25	236
1154.54	236
1156.82	252
1159.1	282
1161.38	282
1163.66	262
1165.94	260
1168.22	268
1170.49	260
1172.77	256
1175.05	286
1177.32	302
1179.6	362
1181.87	446
1184.14	550
1186.42	620
1188.69	654
1190.96	508
1193.23	448
1195.5	394
1197.77	444
1200.03	456
1202.3	470
1204.57	466
1206.83	442
1209.1	360
1211.36	324
1213.63	276
1215.89	262
1218.15	228
1220.41	242
1222.67	256
1224.93	264
1227.19	318
1229.45	352
1231.71	348
1233.97	308
1236.22	284
1238.48	264
1240.73	254
1242.99	234
1245.24	214
1247.5	232
1249.75	244
1252	230
1254.25	230
1256.5	224
1258.75	228
1261	256
1263.25	248
1265.49	256
1267.74	258
1269.99	254
1272.23	262
1274.48	258
1276.72	290
1278.96	292
1281.21	332
1283.45	370
1285.69	370
1287.93	404
1290.17	466
1292.41	486
1294.64	578
1296.88	752
1299.12	1064
1301.36	1510
1303.59	1972
1305.82	2120
1308.06	1808
1310.29	1296
1312.52	920
1314.76	732
1316.99	642
1319.22	568
1321.45	474
1323.68	474
1325.9	470
1328.13	464
1330.36	466
1332.58	410
1334.81	376
1337.04	336
1339.26	342
1341.48	314
1343.71	338
1345.93	370
1348.15	404
1350.37	392
1352.59	372
1354.81	342
1357.03	332
1359.24	322
1361.46	352
1363.68	312
1365.89	346
1368.11	324
1370.32	418
1372.54	536
1374.75	708
1376.96	928
1379.17	1008
1381.38	992
1383.59	888
1385.8	742
1388.01	530
1390.22	386
1392.43	324
1394.63	298
1396.84	288
1399.05	310
1401.25	268
1403.45	274
1405.66	272
1407.86	298
1410.06	282
1412.26	308
1414.46	304
1416.66	352
1418.86	350
1421.06	344
1423.26	392
1425.46	422
1427.65	426
1429.85	430
1432.04	424
1434.24	444
1436.43	478
1438.62	504
1440.82	520
1443.01	506
1445.2	490
1447.39	408
1449.58	434
1451.77	398
1453.95	402
1456.14	386
1458.33	382
1460.52	404
1462.7	372
1464.89	376
1467.07	360
1469.25	358
1471.44	362
1473.62	366
1475.8	358
1477.98	382
1480.16	344
1482.34	332
1484.52	340
1486.7	312
1488.87	298
1491.05	298
1493.23	280
1495.4	288
1497.58	286
1499.75	274
1501.92	284
1504.1	296
1506.27	280
1508.44	270
1510.61	304
1512.78	276
1514.95	288
1517.12	270
1519.28	302
1521.45	272
1523.62	294
1525.78	280
1527.95	262
1530.11	276
1532.28	298
1534.44	278
1536.6	300
1538.76	252
1540.93	270
1543.09	264
1545.25	292
1547.41	284
1549.56	278
1551.72	302
1553.88	284
1556.03	298
1558.19	298
1560.35	296
1562.5	296
1564.65	316
1566.81	310
1568.96	316
1571.11	334
1573.26	346
1575.41	388
1577.56	398
1579.71	432
1581.86	448
1584.01	470
1586.15	594
1588.3	668
1590.45	726
1592.59	866
1594.74	978
1596.88	1190
1599.02	1322
1601.17	1366
1603.31	1420
1605.45	1392
1607.59	1276
1609.73	1100
1611.87	1018
1614.01	884
1616.14	718
1618.28	622
1620.42	516
1622.55	454
1624.69	410
1626.82	370
1628.96	324
1631.09	308
1633.22	296
1635.36	286
1637.49	286
1639.62	260
1641.75	278
1643.88	260
1646	256
1648.13	254
1650.26	240
1652.39	268
1654.51	266
1656.64	240
1658.76	252
1660.89	254
1663.01	230
1665.13	234
1667.26	240
1669.38	224
1671.5	244
1673.62	242
1675.74	248
1677.86	258
1679.97	238
1682.09	236
1684.21	236
1686.33	238
1688.44	242
1690.56	266
1692.67	254
1694.78	260
1696.9	254
1699.01	266
1701.12	246
1703.23	250
1705.34	244
1707.45	260
1709.56	260
1711.67	236
1713.78	246
1715.88	234
1717.99	232
1720.1	216
1722.2	232
1724.31	232
1726.41	226
1728.51	224
1730.62	222
1732.72	224
1734.82	216
1736.92	208
1739.02	226
1741.12	202
1743.22	208
1745.32	206
1747.42	240
1749.51	216
1751.61	216
1753.7	224
1755.8	220
1757.89	218
1759.99	226
1762.08	220
1764.17	224
1766.26	198
1768.36	226
1770.45	220
1772.54	214
1774.62	238
1776.71	212
1778.8	232
1780.89	216
1782.98	220
1785.06	208
1787.15	210
1789.23	216
1791.32	220
1793.4	222
1795.48	212
1797.56	218
1799.65	226
1801.73	216
1803.81	210
1805.89	222
1807.97	218
1810.04	212
1812.12	214
1814.2	198
1816.28	212
1818.35	228
1820.43	210
1822.5	222
1824.58	222
1826.65	218
1828.72	218
1830.79	196
1832.86	198
1834.94	212
1837.01	234
1839.08	232
1841.15	208
1843.21	208
1845.28	220
1847.35	220
1849.41	210
1851.48	208
1853.55	216
1855.61	192
1857.67	218
1859.74	208
1861.8	224
1863.86	212
1865.92	230
1867.98	224
1870.05	218
1872.1	212
1874.16	208
1876.22	222
1878.28	200
1880.34	222
1882.39	212
1884.45	216
1886.5	228
1888.56	212
1890.61	214
1892.67	218
1894.72	208
1896.77	224
1898.82	230
1900.87	228
1902.92	242
1904.97	230
1907.02	218
1909.07	216
1911.12	206
1913.17	228
1915.21	206
1917.26	218
1919.3	238
1921.35	224
1923.39	216
1925.43	230
1927.48	206
1929.52	220
1931.56	230
1933.6	206
1935.64	220
1937.68	220
1939.72	206
1941.76	216
1943.8	212
1945.83	216
1947.87	212
1949.91	212
1951.94	230
1953.98	222
1956.01	220
1958.05	216
1960.08	204
1962.11	226
1964.14	194
1966.17	220
1968.2	214
1970.23	212
1972.26	224
1974.29	218
1976.32	220
1978.35	218
1980.37	224
1982.4	198
1984.43	214
1986.45	220
1988.48	216
1990.5	214
1992.52	228
1994.55	232
1996.57	228
1998.59	218
2000.61	224
2002.63	214
2004.65	218
2006.67	218
2008.69	216
2010.7	226
2012.72	228
2014.74	218
2016.75	218
2018.77	218
2020.78	202
2022.8	222
2024.81	222
2026.83	218
2028.84	220
2030.85	224
2032.86	200
2034.87	210
2036.88	228
2038.89	200
2040.9	224
2042.91	218
2044.91	206
2046.92	218
2048.93	210
2050.93	228
2052.94	214
2054.94	212
2056.95	212
2058.95	220
2060.95	210
2062.95	226
2064.96	222
2066.96	224
2068.96	228
2070.96	240
2072.96	236
2074.95	220
2076.95	216
2078.95	216
2080.95	212
2082.94	228
2084.94	212
2086.93	208
2088.93	212
2090.92	220
2092.91	236
2094.91	218
2096.9	214
2098.89	220
2100.88	208
2102.87	210
2104.86	228
2106.85	212
2108.84	204
2110.83	220
2112.81	208
2114.8	216
2116.78	224
2118.77	218
2120.75	216
2122.74	208
2124.72	214
2126.71	216
2128.69	228
2130.67	220
2132.65	214
2134.63	222
2136.61	214
2138.59	194
2140.57	212
2142.55	220
2144.53	212
2146.5	220
2148.48	218
2150.46	210
2152.43	230
2154.41	206
2156.38	216
2158.35	226
2160.33	214
2162.3	212
2164.27	206
2166.24	220
2168.21	230
2170.18	204
2172.15	200
2174.12	220
2176.09	224
2178.06	230
2180.03	228
2181.99	200
2183.96	208
2185.92	210
2187.89	214
2189.85	228
2191.82	210
2193.78	200
2195.74	196
2197.7	206
2199.67	212
2201.63	208
2203.59	224
2205.55	208
2207.51	188
2209.46	198
2211.42	212
2213.38	242
2215.34	208
2217.29	216
2219.25	212
2221.2	208
2223.16	204
2225.11	220
2227.06	208
2229.02	210
2230.97	226
2232.92	222
2234.87	212
2236.82	204
2238.77	212
2240.72	218
2242.67	218
2244.62	218
2246.57	222
2248.51	210
2250.46	218
2252.4	212
2254.35	204
2256.29	196
2258.24	196
2260.18	228
2262.13	206
2264.07	204
2266.01	218
2267.95	228
2269.89	210
2271.83	206
2273.77	214
2275.71	208
2277.65	208
2279.58	214
2281.52	214
2283.46	216
2285.4	226
2287.33	232
2289.27	218
2291.2	224
2293.13	232
2295.07	208
2297	196
2298.93	222
2300.86	220
2302.79	214
2304.72	204
2306.65	208
2308.58	222
2310.51	212
2312.44	220
2314.37	218
2316.29	224
2318.22	196
2320.15	222
2322.07	234
2324	216
2325.92	220
2327.84	208
2329.77	240
2331.69	232
2333.61	200
2335.53	220
2337.45	228
2339.37	218
2341.29	216
2343.21	204
2345.13	206
2347.05	228
2348.97	222
2350.88	214
2352.8	214
2354.71	210
2356.63	226
2358.54	220
2360.46	212
2362.37	220
2364.28	200
2366.2	212
2368.11	216
2370.02	232
2371.93	218
2373.84	206
2375.75	220
2377.66	214
2379.57	220
2381.47	214
2383.38	232
2385.29	214
2387.2	210
2389.1	224
2391.01	230
2392.91	234
2394.81	210
2396.72	232
2398.62	222
2400.52	230
2402.42	234
2404.33	224
2406.23	222
2408.13	234
2410.03	242
2411.92	236
2413.82	206
2415.72	234
2417.62	220
2419.51	200
2421.41	216
2423.31	212
2425.2	214
2427.1	230
2428.99	208
2430.88	206
2432.78	202
2434.67	220
2436.56	228
2438.45	218
2440.34	214
2442.23	212
2444.12	212
2446.01	236
2447.9	228
2449.79	244