File: Mixture_Classification/Jesse_Dataset_v2/Pure Raman/Polypropylene oxide/633nm/ps-ppo-7jan25-0,0000-map2_Y09_X01.txt
182.393	702
184.993	678
187.593	640
190.193	626
192.79	596
195.387	560
197.983	554
200.578	542
203.174	504
205.766	488
208.36	506
210.951	456
213.542	448
216.131	426
218.721	464
221.309	500
223.897	576
226.483	716
229.069	892
231.654	1134
234.238	1258
236.821	1238
239.404	1082
241.984	1008
244.566	880
247.145	738
249.723	628
252.302	568
254.878	462
257.455	422
260.03	342
262.604	338
265.178	302
267.75	296
270.322	292
272.893	286
275.463	292
278.032	288
280.601	308
283.168	328
285.734	400
288.301	444
290.866	530
293.429	594
295.992	628
298.556	620
301.117	580
303.677	528
306.236	466
308.795	418
311.354	376
313.911	374
316.467	358
319.022	352
321.577	360
324.13	380
326.684	370
329.236	418
331.787	412
334.337	428
336.887	386
339.435	396
341.983	362
344.529	352
347.075	348
349.621	346
352.165	364
354.708	360
357.251	380
359.793	346
362.334	340
364.874	314
367.413	350
369.951	342
372.489	328
375.026	346
377.562	294
380.097	290
382.631	282
385.164	256
387.697	264
390.229	242
392.76	256
395.29	238
397.819	246
400.346	254
402.873	234
405.4	252
407.926	288
410.451	324
412.976	346
415.499	368
418.02	370
420.542	318
423.063	292
425.583	276
428.101	244
430.619	222
433.137	202
435.654	194
438.169	202
440.684	188
443.198	188
445.712	184
448.223	160
450.735	178
453.246	174
455.755	166
458.264	178
460.771	194
463.279	198
465.786	228
468.291	240
470.796	268
473.301	318
475.803	360
478.306	380
480.807	416
483.308	494
485.807	502
488.307	462
490.804	366
493.302	320
495.798	268
498.294	250
500.788	222
503.283	216
505.775	240
508.269	256
510.759	318
513.251	406
515.74	376
518.23	324
520.718	288
523.204	302
525.692	352
528.177	384
530.663	470
533.147	564
535.629	692
538.113	796
540.594	752
543.074	716
545.555	618
548.034	466
550.512	400
552.989	384
555.467	428
557.942	490
560.417	688
562.892	1008
565.365	1588
567.838	2558
570.309	3578
572.78	3638
575.251	2676
577.72	1608
580.189	950
582.656	704
585.123	628
587.589	600
590.055	552
592.52	530
594.983	490
597.446	468
599.908	382
602.369	332
604.829	270
607.289	248
609.747	232
612.205	234
614.663	224
617.119	220
619.574	234
622.029	240
624.483	250
626.936	254
629.389	284
631.84	310
634.291	328
636.741	326
639.19	334
641.639	312
644.086	284
646.533	246
648.979	234
651.424	238
653.869	222
656.313	210
658.754	216
661.196	186
663.638	184
666.078	176
668.518	168
670.957	168
673.394	180
675.831	182
678.268	170
680.703	154
683.137	182
685.571	178
688.005	174
690.437	168
692.868	176
695.299	166
697.729	174
700.159	176
702.586	186
705.014	178
707.441	188
709.866	196
712.292	244
714.716	238
717.14	260
719.563	222
721.984	230
724.406	200
726.825	188
729.246	208
731.665	218
734.082	204
736.5	222
738.916	214
741.332	234
743.746	282
746.161	338
748.574	326
750.987	324
753.398	294
755.81	266
758.219	264
760.629	222
763.037	198
765.445	198
767.852	204
770.258	200
772.664	200
775.068	212
777.472	226
779.876	230
782.278	238
784.679	218
787.08	218
789.48	210
791.879	194
794.278	184
796.675	204
799.072	194
801.467	194
803.864	208
806.258	232
808.651	212
811.044	212
813.437	224
815.828	250
818.218	232
820.608	260
822.997	274
825.385	328
827.773	472
830.16	788
832.546	1128
834.931	1116
837.315	694
839.699	394
842.081	308
844.463	280
846.844	286
849.226	270
851.606	268
853.985	254
856.363	252
858.741	238
861.117	250
863.493	234
865.868	214
868.243	206
870.616	212
872.989	180
875.36	194
877.731	202
880.102	202
882.472	198
884.841	206
887.209	186
889.577	194
891.944	166
894.31	180
896.674	180
899.039	192
901.403	182
903.766	180
906.128	200
908.49	198
910.849	184
913.209	194
915.569	180
917.927	182
920.284	182
922.641	212
924.997	198
927.353	190
929.707	194
932.061	188
934.414	224
936.765	224
939.117	238
941.469	228
943.818	252
946.167	272
948.515	328
950.863	418
953.211	550
955.556	696
957.902	852
960.246	936
962.59	878
964.933	766
967.276	622
969.617	540
971.958	454
974.298	382
976.638	314
978.976	284
981.314	248
983.651	248
985.988	238
988.323	224
990.659	220
992.992	238
995.325	228
997.658	212
999.99	222
1002.32	208
1004.65	202
1006.98	216
1009.31	216
1011.64	222
1013.97	208
1016.29	244
1018.62	228
1020.94	228
1023.27	240
1025.59	252
1027.91	278
1030.24	252
1032.56	320
1034.88	314
1037.2	278
1039.52	268
1041.84	266
1044.15	256
1046.47	234
1048.79	238
1051.1	240
1053.42	234
1055.73	202
1058.04	212
1060.36	218
1062.67	212
1064.98	222
1067.29	216
1069.6	218
1071.91	214
1074.22	208
1076.52	206
1078.83	210
1081.14	220
1083.44	196
1085.75	204
1088.05	222
1090.35	206
1092.65	204
1094.95	246
1097.26	232
1099.56	250
1101.86	244
1104.15	284
1106.45	358
1108.75	572
1111.05	802
1113.34	908
1115.64	708
1117.93	494
1120.22	388
1122.52	326
1124.81	320
1127.1	282
1129.39	266
1131.68	252
1133.97	268
1136.26	258
1138.54	264
1140.83	254
1143.12	268
1145.4	266
1147.69	246
1149.97	218
1152.25	236
1154.54	234
1156.82	252
1159.1	266
1161.38	276
1163.66	276
1165.94	254
1168.22	266
1170.49	272
1172.77	268
1175.05	280
1177.32	318
1179.6	354
1181.87	448
1184.14	550
1186.42	646
1188.69	634
1190.96	520
1193.23	458
1195.5	424
1197.77	424
1200.03	470
1202.3	474
1204.57	472
1206.83	426
1209.1	382
1211.36	306
1213.63	258
1215.89	242
1218.15	252
1220.41	244
1222.67	266
1224.93	284
1227.19	298
1229.45	360
1231.71	344
1233.97	296
1236.22	270
1238.48	252
1240.73	238
1242.99	236
1245.24	214
1247.5	226
1249.75	212
1252	212
1254.25	238
1256.5	242
1258.75	242
1261	246
1263.25	242
1265.49	252
1267.74	264
1269.99	260
1272.23	256
1274.48	278
1276.72	286
1278.96	312
1281.21	334
1283.45	340
1285.69	376
1287.93	442
1290.17	428
1292.41	496
1294.64	602
1296.88	780
1299.12	1028
1301.36	1506
1303.59	2036
1305.82	2154
1308.06	1860
1310.29	1302
1312.52	950
1314.76	752
1316.99	648
1319.22	564
1321.45	494
1323.68	494
1325.9	460
1328.13	472
1330.36	444
1332.58	414
1334.81	374
1337.04	348
1339.26	332
1341.48	354
1343.71	338
1345.93	356
1348.15	380
1350.37	382
1352.59	382
1354.81	364
1357.03	338
1359.24	322
1361.46	300
1363.68	322
1365.89	324
1368.11	346
1370.32	416
1372.54	532
1374.75	782
1376.96	982
1379.17	1046
1381.38	990
1383.59	934
1385.8	732
1388.01	542
1390.22	412
1392.43	354
1394.63	282
1396.84	284
1399.05	276
1401.25	286
1403.45	294
1405.66	290
1407.86	270
1410.06	288
1412.26	302
1414.46	310
1416.66	322
1418.86	354
1421.06	396
1423.26	400
1425.46	432
1427.65	440
1429.85	432
1432.04	446
1434.24	428
1436.43	486
1438.62	494
1440.82	518
1443.01	502
1445.2	476
1447.39	446
1449.58	426
1451.77	412
1453.95	390
1456.14	390
1458.33	396
1460.52	368
1462.7	366
1464.89	390
1467.07	376
1469.25	372
1471.44	380
1473.62	376
1475.8	368
1477.98	340
1480.16	350
1482.34	346
1484.52	340
1486.7	332
1488.87	296
1491.05	292
1493.23	300
1495.4	292
1497.58	294
1499.75	296
1501.92	292
1504.1	272
1506.27	286
1508.44	284
1510.61	286
1512.78	284
1514.95	270
1517.12	268
1519.28	264
1521.45	278
1523.62	284
1525.78	280
1527.95	286
1530.11	296
1532.28	294
1534.44	270
1536.6	286
1538.76	282
1540.93	264
1543.09	276
1545.25	272
1547.41	290
1549.56	278
1551.72	300
1553.88	278
1556.03	296
1558.19	316
1560.35	302
1562.5	298
1564.65	280
1566.81	298
1568.96	340
1571.11	332
1573.26	346
1575.41	368
1577.56	362
1579.71	438
1581.86	464
1584.01	498
1586.15	568
1588.3	668
1590.45	756
1592.59	866
1594.74	1066
1596.88	1182
1599.02	1306
1601.17	1462
1603.31	1444
1605.45	1356
1607.59	1274
1609.73	1148
1611.87	1036
1614.01	866
1616.14	744
1618.28	604
1620.42	520
1622.55	476
1624.69	408
1626.82	364
1628.96	350
1631.09	316
1633.22	308
1635.36	286
1637.49	280
1639.62	270
1641.75	274
1643.88	266
1646	252
1648.13	240
1650.26	254
1652.39	248
1654.51	242
1656.64	260
1658.76	266
1660.89	242
1663.01	242
1665.13	250
1667.26	238
1669.38	224
1671.5	244
1673.62	244
1675.74	224
1677.86	220
1679.97	246
1682.09	250
1684.21	242
1686.33	248
1688.44	242
1690.56	262
1692.67	248
1694.78	278
1696.9	274
1699.01	262
1701.12	290
1703.23	248
1705.34	252
1707.45	254
1709.56	254
1711.67	240
1713.78	238
1715.88	242
1717.99	244
1720.1	214
1722.2	222
1724.31	226
1726.41	230
1728.51	228
1730.62	224
1732.72	224
1734.82	220
1736.92	230
1739.02	232
1741.12	232
1743.22	228
1745.32	224
1747.42	210
1749.51	242
1751.61	226
1753.7	216
1755.8	226
1757.89	200
1759.99	220
1762.08	226
1764.17	240
1766.26	228
1768.36	224
1770.45	220
1772.54	212
1774.62	218
1776.71	210
1778.8	232
1780.89	212
1782.98	236
1785.06	216
1787.15	230
1789.23	224
1791.32	210
1793.4	224
1795.48	216
1797.56	228
1799.65	224
1801.73	220
1803.81	208
1805.89	216
1807.97	228
1810.04	216
1812.12	212
1814.2	210
1816.28	206
1818.35	224
1820.43	220
1822.5	220
1824.58	214
1826.65	210
1828.72	214
1830.79	218
1832.86	226
1834.94	220
1837.01	212
1839.08	212
1841.15	222
1843.21	194
1845.28	208
1847.35	218
1849.41	216
1851.48	214
1853.55	220
1855.61	200
1857.67	210
1859.74	216
1861.8	220
1863.86	218
1865.92	218
1867.98	228
1870.05	216
1872.1	230
1874.16	228
1876.22	218
1878.28	228
1880.34	230
1882.39	234
1884.45	222
1886.5	212
1888.56	224
1890.61	224
1892.67	220
1894.72	222
1896.77	232
1898.82	206
1900.87	240
1902.92	224
1904.97	220
1907.02	228
1909.07	212
1911.12	244
1913.17	222
1915.21	226
1917.26	222
1919.3	240
1921.35	202
1923.39	224
1925.43	234
1927.48	218
1929.52	226
1931.56	234
1933.6	218
1935.64	228
1937.68	226
1939.72	218
1941.76	218
1943.8	214
1945.83	206
1947.87	196
1949.91	228
1951.94	220
1953.98	220
1956.01	218
1958.05	228
1960.08	210
1962.11	216
1964.14	218
1966.17	216
1968.2	220
1970.23	200
1972.26	232
1974.29	230
1976.32	204
1978.35	228
1980.37	218
1982.4	206
1984.43	208
1986.45	220
1988.48	216
1990.5	204
1992.52	214
1994.55	220
1996.57	230
1998.59	210
2000.61	206
2002.63	212
2004.65	204
2006.67	218
2008.69	202
2010.7	218
2012.72	210
2014.74	212
2016.75	220
2018.77	212
2020.78	214
2022.8	216
2024.81	208
2026.83	218
2028.84	226
2030.85	200
2032.86	220
2034.87	224
2036.88	210
2038.89	236
2040.9	206
2042.91	218
2044.91	220
2046.92	204
2048.93	228
2050.93	218
2052.94	230
2054.94	236
2056.95	220
2058.95	224
2060.95	216
2062.95	232
2064.96	230
2066.96	218
2068.96	222
2070.96	210
2072.96	232
2074.95	196
2076.95	214
2078.95	218
2080.95	226
2082.94	226
2084.94	218
2086.93	210
2088.93	218
2090.92	202
2092.91	212
2094.91	224
2096.9	202
2098.89	218
2100.88	202
2102.87	238
2104.86	208
2106.85	228
2108.84	212
2110.83	198
2112.81	222
2114.8	220
2116.78	218
2118.77	220
2120.75	204
2122.74	210
2124.72	204
2126.71	228
2128.69	218
2130.67	220
2132.65	216
2134.63	226
2136.61	222
2138.59	224
2140.57	224
2142.55	224
2144.53	198
2146.5	220
2148.48	218
2150.46	218
2152.43	212
2154.41	208
2156.38	210
2158.35	198
2160.33	204
2162.3	216
2164.27	214
2166.24	230
2168.21	202
2170.18	204
2172.15	218
2174.12	208
2176.09	208
2178.06	212
2180.03	220
2181.99	198
2183.96	216
2185.92	212
2187.89	218
2189.85	214
2191.82	204
2193.78	226
2195.74	206
2197.7	228
2199.67	208
2201.63	224
2203.59	208
2205.55	214
2207.51	228
2209.46	208
2211.42	224
2213.38	220
2215.34	220
2217.29	224
2219.25	226
2221.2	226
2223.16	208
2225.11	218
2227.06	212
2229.02	200
2230.97	230
2232.92	214
2234.87	220
2236.82	234
2238.77	206
2240.72	220
2242.67	234
2244.62	224
2246.57	208
2248.51	200
2250.46	208
2252.4	210
2254.35	222
2256.29	202
2258.24	212
2260.18	222
2262.13	218
2264.07	220
2266.01	206
2267.95	220
2269.89	222
2271.83	234
2273.77	212
2275.71	238
2277.65	196
2279.58	226
2281.52	218
2283.46	222
2285.4	210
2287.33	202
2289.27	222
2291.2	212
2293.13	214
2295.07	226
2297	210
2298.93	230
2300.86	226
2302.79	232
2304.72	214
2306.65	222
2308.58	222
2310.51	218
2312.44	230
2314.37	226
2316.29	218
2318.22	242
2320.15	218
2322.07	238
2324	226
2325.92	216
2327.84	234
2329.77	220
2331.69	208
2333.61	208
2335.53	216
2337.45	214
2339.37	230
2341.29	226
2343.21	208
2345.13	222
2347.05	210
2348.97	202
2350.88	212
2352.8	232
2354.71	238
2356.63	214
2358.54	202
2360.46	210
2362.37	218
2364.28	216
2366.2	218
2368.11	228
2370.02	190
2371.93	206
2373.84	214
2375.75	222
2377.66	230
2379.57	214
2381.47	232
2383.38	226
2385.29	226
2387.2	218
2389.1	216
2391.01	228
2392.91	224
2394.81	230
2396.72	228
2398.62	212
2400.52	244
2402.42	226
2404.33	220
2406.23	238
2408.13	222
2410.03	226
2411.92	224
2413.82	248
2415.72	234
2417.62	220
2419.51	214
2421.41	208
2423.31	228
2425.2	218
2427.1	198
2428.99	206
2430.88	204
2432.78	220
2434.67	210
2436.56	216
2438.45	214
2440.34	216
2442.23	226
2444.12	222
2446.01	230
2447.9	220
2449.79	206