File: Mixture_Classification/Jesse_Dataset_v2/Pure Raman/Polypropylene oxide/633nm/ps-ppo-7jan25-0,0000-map2_Y09_X10.txt
182.393	650
184.993	630
187.593	580
190.193	582
192.79	572
195.387	560
197.983	534
200.578	496
203.174	484
205.766	490
208.36	466
210.951	426
213.542	428
216.131	436
218.721	458
221.309	480
223.897	572
226.483	684
229.069	864
231.654	1036
234.238	1130
236.821	1130
239.404	1046
241.984	970
244.566	824
247.145	720
249.723	606
252.302	508
254.878	426
257.455	400
260.03	374
262.604	300
265.178	322
267.75	290
270.322	286
272.893	264
275.463	286
278.032	288
280.601	300
283.168	316
285.734	348
288.301	420
290.866	486
293.429	570
295.992	578
298.556	580
301.117	516
303.677	498
306.236	430
308.795	420
311.354	370
313.911	366
316.467	350
319.022	370
321.577	358
324.13	368
326.684	354
329.236	392
331.787	378
334.337	374
336.887	404
339.435	386
341.983	358
344.529	338
347.075	334
349.621	328
352.165	312
354.708	340
357.251	338
359.793	328
362.334	324
364.874	312
367.413	332
369.951	328
372.489	330
375.026	332
377.562	316
380.097	310
382.631	256
385.164	274
387.697	254
390.229	234
392.76	262
395.29	224
397.819	246
400.346	238
402.873	242
405.4	266
407.926	280
410.451	326
412.976	344
415.499	360
418.02	344
420.542	302
423.063	306
425.583	256
428.101	238
430.619	228
433.137	204
435.654	220
438.169	180
440.684	194
443.198	186
445.712	188
448.223	202
450.735	192
453.246	180
455.755	188
458.264	198
460.771	178
463.279	222
465.786	230
468.291	244
470.796	262
473.301	288
475.803	334
478.306	392
480.807	436
483.308	474
485.807	492
488.307	422
490.804	358
493.302	298
495.798	274
498.294	248
500.788	250
503.283	228
505.775	254
508.269	250
510.759	328
513.251	382
515.74	368
518.23	302
520.718	288
523.204	340
525.692	330
528.177	398
530.663	458
533.147	590
535.629	676
538.113	714
540.594	734
543.074	670
545.555	562
548.034	438
550.512	384
552.989	388
555.467	422
557.942	472
560.417	620
562.892	930
565.365	1482
567.838	2396
570.309	3292
572.78	3398
575.251	2534
577.72	1480
580.189	914
582.656	666
585.123	602
587.589	580
590.055	534
592.52	502
594.983	476
597.446	432
599.908	388
602.369	318
604.829	278
607.289	244
609.747	250
612.205	232
614.663	220
617.119	228
619.574	224
622.029	240
624.483	280
626.936	278
629.389	276
631.84	296
634.291	324
636.741	312
639.19	300
641.639	278
644.086	268
646.533	244
648.979	240
651.424	228
653.869	212
656.313	220
658.754	198
661.196	200
663.638	202
666.078	180
668.518	184
670.957	194
673.394	178
675.831	186
678.268	184
680.703	186
683.137	176
685.571	192
688.005	182
690.437	182
692.868	184
695.299	190
697.729	184
700.159	180
702.586	196
705.014	204
707.441	194
709.866	224
712.292	246
714.716	270
717.14	248
719.563	226
721.984	218
724.406	230
726.825	214
729.246	208
731.665	234
734.082	208
736.5	208
738.916	234
741.332	262
743.746	286
746.161	324
748.574	340
750.987	312
753.398	312
755.81	290
758.219	262
760.629	220
763.037	222
765.445	228
767.852	204
770.258	220
772.664	238
775.068	198
777.472	230
779.876	242
782.278	240
784.679	236
787.08	220
789.48	212
791.879	210
794.278	204
796.675	204
799.072	210
801.467	230
803.864	216
806.258	224
808.651	226
811.044	212
813.437	210
815.828	220
818.218	234
820.608	264
822.997	274
825.385	344
827.773	468
830.16	724
832.546	1106
834.931	1074
837.315	652
839.699	412
842.081	316
844.463	292
846.844	268
849.226	274
851.606	254
853.985	264
856.363	278
858.741	252
861.117	246
863.493	222
865.868	242
868.243	228
870.616	206
872.989	208
875.36	206
877.731	204
880.102	204
882.472	216
884.841	206
887.209	206
889.577	182
891.944	196
894.31	194
896.674	216
899.039	208
901.403	190
903.766	204
906.128	190
908.49	212
910.849	192
913.209	192
915.569	194
917.927	190
920.284	206
922.641	196
924.997	214
927.353	200
929.707	218
932.061	224
934.414	214
936.765	208
939.117	210
941.469	240
943.818	270
946.167	266
948.515	340
950.863	394
953.211	526
955.556	642
957.902	780
960.246	876
962.59	858
964.933	718
967.276	636
969.617	536
971.958	446
974.298	376
976.638	310
978.976	272
981.314	258
983.651	250
985.988	238
988.323	240
990.659	246
992.992	254
995.325	234
997.658	224
999.99	232
1002.32	224
1004.65	230
1006.98	220
1009.31	234
1011.64	232
1013.97	228
1016.29	246
1018.62	248
1020.94	256
1023.27	266
1025.59	260
1027.91	274
1030.24	278
1032.56	314
1034.88	282
1037.2	270
1039.52	274
1041.84	282
1044.15	276
1046.47	254
1048.79	250
1051.1	252
1053.42	236
1055.73	202
1058.04	224
1060.36	232
1062.67	220
1064.98	220
1067.29	224
1069.6	226
1071.91	246
1074.22	212
1076.52	210
1078.83	220
1081.14	208
1083.44	230
1085.75	210
1088.05	232
1090.35	232
1092.65	232
1094.95	236
1097.26	242
1099.56	234
1101.86	250
1104.15	290
1106.45	370
1108.75	592
1111.05	748
1113.34	858
1115.64	720
1117.93	516
1120.22	394
1122.52	306
1124.81	316
1127.1	280
1129.39	264
1131.68	260
1133.97	264
1136.26	256
1138.54	262
1140.83	266
1143.12	266
1145.4	238
1147.69	236
1149.97	232
1152.25	246
1154.54	252
1156.82	252
1159.1	276
1161.38	294
1163.66	306
1165.94	272
1168.22	282
1170.49	272
1172.77	286
1175.05	302
1177.32	312
1179.6	362
1181.87	442
1184.14	560
1186.42	632
1188.69	566
1190.96	514
1193.23	432
1195.5	424
1197.77	428
1200.03	472
1202.3	466
1204.57	468
1206.83	422
1209.1	352
1211.36	322
1213.63	294
1215.89	266
1218.15	262
1220.41	268
1222.67	260
1224.93	312
1227.19	318
1229.45	374
1231.71	358
1233.97	314
1236.22	284
1238.48	278
1240.73	264
1242.99	246
1245.24	254
1247.5	252
1249.75	230
1252	246
1254.25	248
1256.5	248
1258.75	234
1261	264
1263.25	248
1265.49	258
1267.74	282
1269.99	260
1272.23	260
1274.48	268
1276.72	288
1278.96	308
1281.21	336
1283.45	374
1285.69	374
1287.93	400
1290.17	440
1292.41	478
1294.64	566
1296.88	726
1299.12	1024
1301.36	1432
1303.59	1928
1305.82	2024
1308.06	1758
1310.29	1250
1312.52	908
1314.76	712
1316.99	594
1319.22	560
1321.45	488
1323.68	484
1325.9	466
1328.13	460
1330.36	446
1332.58	398
1334.81	368
1337.04	356
1339.26	336
1341.48	344
1343.71	360
1345.93	394
1348.15	412
1350.37	414
1352.59	382
1354.81	392
1357.03	342
1359.24	348
1361.46	320
1363.68	310
1365.89	336
1368.11	344
1370.32	414
1372.54	516
1374.75	692
1376.96	924
1379.17	986
1381.38	990
1383.59	862
1385.8	692
1388.01	526
1390.22	390
1392.43	318
1394.63	310
1396.84	294
1399.05	268
1401.25	290
1403.45	288
1405.66	282
1407.86	296
1410.06	292
1412.26	298
1414.46	324
1416.66	324
1418.86	354
1421.06	374
1423.26	410
1425.46	444
1427.65	410
1429.85	430
1432.04	440
1434.24	464
1436.43	474
1438.62	526
1440.82	512
1443.01	488
1445.2	464
1447.39	448
1449.58	450
1451.77	416
1453.95	406
1456.14	376
1458.33	384
1460.52	396
1462.7	394
1464.89	382
1467.07	366
1469.25	384
1471.44	378
1473.62	386
1475.8	360
1477.98	370
1480.16	360
1482.34	358
1484.52	348
1486.7	304
1488.87	314
1491.05	312
1493.23	308
1495.4	308
1497.58	284
1499.75	288
1501.92	316
1504.1	308
1506.27	306
1508.44	292
1510.61	282
1512.78	282
1514.95	282
1517.12	300
1519.28	282
1521.45	290
1523.62	276
1525.78	280
1527.95	284
1530.11	302
1532.28	294
1534.44	282
1536.6	290
1538.76	282
1540.93	284
1543.09	290
1545.25	282
1547.41	304
1549.56	292
1551.72	282
1553.88	310
1556.03	282
1558.19	294
1560.35	310
1562.5	302
1564.65	308
1566.81	320
1568.96	342
1571.11	330
1573.26	352
1575.41	380
1577.56	412
1579.71	428
1581.86	454
1584.01	522
1586.15	562
1588.3	626
1590.45	754
1592.59	872
1594.74	994
1596.88	1110
1599.02	1344
1601.17	1340
1603.31	1402
1605.45	1334
1607.59	1232
1609.73	1106
1611.87	972
1614.01	824
1616.14	708
1618.28	614
1620.42	538
1622.55	440
1624.69	412
1626.82	364
1628.96	332
1631.09	320
1633.22	320
1635.36	308
1637.49	262
1639.62	292
1641.75	270
1643.88	272
1646	268
1648.13	260
1650.26	270
1652.39	252
1654.51	262
1656.64	260
1658.76	264
1660.89	270
1663.01	252
1665.13	254
1667.26	264
1669.38	258
1671.5	244
1673.62	252
1675.74	238
1677.86	268
1679.97	258
1682.09	264
1684.21	266
1686.33	272
1688.44	254
1690.56	264
1692.67	264
1694.78	278
1696.9	268
1699.01	282
1701.12	266
1703.23	270
1705.34	258
1707.45	252
1709.56	254
1711.67	240
1713.78	272
1715.88	254
1717.99	240
1720.1	230
1722.2	250
1724.31	240
1726.41	234
1728.51	250
1730.62	240
1732.72	232
1734.82	234
1736.92	226
1739.02	238
1741.12	244
1743.22	224
1745.32	230
1747.42	234
1749.51	236
1751.61	244
1753.7	238
1755.8	226
1757.89	234
1759.99	232
1762.08	228
1764.17	240
1766.26	250
1768.36	238
1770.45	220
1772.54	244
1774.62	254
1776.71	220
1778.8	232
1780.89	236
1782.98	240
1785.06	244
1787.15	226
1789.23	236
1791.32	254
1793.4	238
1795.48	250
1797.56	248
1799.65	248
1801.73	230
1803.81	226
1805.89	222
1807.97	258
1810.04	242
1812.12	240
1814.2	218
1816.28	218
1818.35	228
1820.43	224
1822.5	234
1824.58	212
1826.65	222
1828.72	242
1830.79	244
1832.86	224
1834.94	238
1837.01	232
1839.08	212
1841.15	228
1843.21	218
1845.28	218
1847.35	228
1849.41	226
1851.48	232
1853.55	236
1855.61	224
1857.67	220
1859.74	232
1861.8	226
1863.86	230
1865.92	242
1867.98	230
1870.05	234
1872.1	222
1874.16	234
1876.22	242
1878.28	250
1880.34	228
1882.39	250
1884.45	224
1886.5	240
1888.56	236
1890.61	224
1892.67	214
1894.72	242
1896.77	212
1898.82	226
1900.87	228
1902.92	230
1904.97	228
1907.02	222
1909.07	246
1911.12	234
1913.17	234
1915.21	222
1917.26	244
1919.3	222
1921.35	228
1923.39	250
1925.43	240
1927.48	238
1929.52	228
1931.56	222
1933.6	246
1935.64	224
1937.68	226
1939.72	238
1941.76	222
1943.8	224
1945.83	226
1947.87	224
1949.91	208
1951.94	232
1953.98	224
1956.01	228
1958.05	236
1960.08	220
1962.11	240
1964.14	226
1966.17	228
1968.2	232
1970.23	256
1972.26	238
1974.29	232
1976.32	226
1978.35	234
1980.37	236
1982.4	232
1984.43	236
1986.45	214
1988.48	232
1990.5	220
1992.52	228
1994.55	224
1996.57	234
1998.59	216
2000.61	240
2002.63	220
2004.65	246
2006.67	236
2008.69	204
2010.7	236
2012.72	252
2014.74	232
2016.75	232
2018.77	236
2020.78	214
2022.8	242
2024.81	228
2026.83	234
2028.84	246
2030.85	226
2032.86	222
2034.87	250
2036.88	238
2038.89	236
2040.9	216
2042.91	236
2044.91	238
2046.92	216
2048.93	238
2050.93	220
2052.94	228
2054.94	242
2056.95	246
2058.95	244
2060.95	226
2062.95	202
2064.96	220
2066.96	232
2068.96	228
2070.96	240
2072.96	244
2074.95	236
2076.95	240
2078.95	218
2080.95	222
2082.94	250
2084.94	234
2086.93	228
2088.93	234
2090.92	226
2092.91	224
2094.91	198
2096.9	220
2098.89	230
2100.88	226
2102.87	254
2104.86	212
2106.85	232
2108.84	226
2110.83	214
2112.81	244
2114.8	240
2116.78	234
2118.77	228
2120.75	218
2122.74	232
2124.72	218
2126.71	236
2128.69	224
2130.67	222
2132.65	212
2134.63	224
2136.61	226
2138.59	208
2140.57	212
2142.55	222
2144.53	232
2146.5	224
2148.48	224
2150.46	218
2152.43	230
2154.41	220
2156.38	218
2158.35	218
2160.33	230
2162.3	226
2164.27	212
2166.24	216
2168.21	230
2170.18	230
2172.15	234
2174.12	210
2176.09	238
2178.06	230
2180.03	224
2181.99	216
2183.96	210
2185.92	236
2187.89	224
2189.85	242
2191.82	236
2193.78	216
2195.74	226
2197.7	222
2199.67	218
2201.63	208
2203.59	230
2205.55	210
2207.51	226
2209.46	214
2211.42	224
2213.38	240
2215.34	212
2217.29	232
2219.25	202
2221.2	222
2223.16	224
2225.11	216
2227.06	222
2229.02	228
2230.97	218
2232.92	222
2234.87	204
2236.82	232
2238.77	230
2240.72	224
2242.67	234
2244.62	222
2246.57	224
2248.51	236
2250.46	220
2252.4	234
2254.35	210
2256.29	238
2258.24	232
2260.18	216
2262.13	222
2264.07	220
2266.01	206
2267.95	230
2269.89	214
2271.83	220
2273.77	234
2275.71	222
2277.65	224
2279.58	220
2281.52	220
2283.46	228
2285.4	228
2287.33	206
2289.27	226
2291.2	228
2293.13	228
2295.07	242
2297	210
2298.93	228
2300.86	232
2302.79	212
2304.72	220
2306.65	228
2308.58	216
2310.51	222
2312.44	236
2314.37	228
2316.29	212
2318.22	232
2320.15	250
2322.07	230
2324	224
2325.92	240
2327.84	242
2329.77	236
2331.69	236
2333.61	226
2335.53	228
2337.45	220
2339.37	220
2341.29	222
2343.21	222
2345.13	224
2347.05	220
2348.97	224
2350.88	240
2352.8	232
2354.71	232
2356.63	218
2358.54	212
2360.46	230
2362.37	216
2364.28	222
2366.2	210
2368.11	226
2370.02	236
2371.93	224
2373.84	236
2375.75	232
2377.66	224
2379.57	218
2381.47	220
2383.38	228
2385.29	212
2387.2	234
2389.1	218
2391.01	234
2392.91	228
2394.81	220
2396.72	232
2398.62	218
2400.52	240
2402.42	244
2404.33	242
2406.23	220
2408.13	224
2410.03	230
2411.92	242
2413.82	246
2415.72	224
2417.62	218
2419.51	228
2421.41	242
2423.31	220
2425.2	230
2427.1	218
2428.99	220
2430.88	242
2432.78	206
2434.67	216
2436.56	222
2438.45	216
2440.34	232
2442.23	224
2444.12	226
2446.01	240
2447.9	216
2449.79	216