File: Mixture_Classification/Jesse_Dataset_v2/Pure Raman/Polypropylene oxide/633nm/ps-ppo-7jan25-0,0000-map2_Y02_X02.txt
182.393	736
184.993	644
187.593	670
190.193	654
192.79	642
195.387	574
197.983	554
200.578	550
203.174	544
205.766	540
208.36	490
210.951	514
213.542	452
216.131	472
218.721	478
221.309	516
223.897	626
226.483	752
229.069	978
231.654	1168
234.238	1314
236.821	1240
239.404	1218
241.984	1022
244.566	882
247.145	784
249.723	650
252.302	582
254.878	498
257.455	428
260.03	372
262.604	336
265.178	314
267.75	306
270.322	282
272.893	290
275.463	280
278.032	306
280.601	318
283.168	334
285.734	388
288.301	466
290.866	530
293.429	594
295.992	626
298.556	616
301.117	606
303.677	536
306.236	454
308.795	454
311.354	428
313.911	372
316.467	378
319.022	382
321.577	390
324.13	380
326.684	380
329.236	394
331.787	382
334.337	416
336.887	424
339.435	406
341.983	368
344.529	336
347.075	360
349.621	344
352.165	384
354.708	370
357.251	366
359.793	352
362.334	342
364.874	328
367.413	326
369.951	338
372.489	356
375.026	356
377.562	328
380.097	288
382.631	292
385.164	262
387.697	260
390.229	252
392.76	250
395.29	230
397.819	246
400.346	236
402.873	250
405.4	254
407.926	252
410.451	336
412.976	370
415.499	392
418.02	372
420.542	332
423.063	294
425.583	262
428.101	228
430.619	240
433.137	222
435.654	208
438.169	190
440.684	182
443.198	170
445.712	172
448.223	182
450.735	180
453.246	182
455.755	172
458.264	180
460.771	188
463.279	184
465.786	218
468.291	264
470.796	282
473.301	332
475.803	356
478.306	404
480.807	470
483.308	498
485.807	534
488.307	450
490.804	350
493.302	316
495.798	264
498.294	242
500.788	222
503.283	236
505.775	218
508.269	258
510.759	336
513.251	418
515.74	394
518.23	324
520.718	300
523.204	302
525.692	366
528.177	426
530.663	472
533.147	614
535.629	716
538.113	808
540.594	786
543.074	682
545.555	550
548.034	460
550.512	382
552.989	386
555.467	446
557.942	502
560.417	702
562.892	1044
565.365	1738
567.838	2768
570.309	3672
572.78	3734
575.251	2680
577.72	1594
580.189	974
582.656	736
585.123	644
587.589	636
590.055	552
592.52	554
594.983	510
597.446	464
599.908	396
602.369	320
604.829	282
607.289	240
609.747	218
612.205	228
614.663	228
617.119	234
619.574	246
622.029	244
624.483	258
626.936	284
629.389	304
631.84	338
634.291	332
636.741	340
639.19	322
641.639	298
644.086	282
646.533	266
648.979	242
651.424	232
653.869	220
656.313	220
658.754	204
661.196	190
663.638	202
666.078	178
668.518	170
670.957	174
673.394	160
675.831	166
678.268	164
680.703	178
683.137	168
685.571	176
688.005	172
690.437	164
692.868	164
695.299	176
697.729	180
700.159	174
702.586	172
705.014	180
707.441	212
709.866	194
712.292	226
714.716	250
717.14	248
719.563	224
721.984	204
724.406	194
726.825	214
729.246	210
731.665	218
734.082	214
736.5	228
738.916	234
741.332	272
743.746	290
746.161	322
748.574	324
750.987	310
753.398	328
755.81	282
758.219	272
760.629	216
763.037	218
765.445	194
767.852	190
770.258	202
772.664	210
775.068	198
777.472	206
779.876	216
782.278	232
784.679	206
787.08	218
789.48	208
791.879	208
794.278	206
796.675	190
799.072	200
801.467	204
803.864	198
806.258	214
808.651	226
811.044	222
813.437	214
815.828	232
818.218	238
820.608	232
822.997	272
825.385	338
827.773	516
830.16	840
832.546	1230
834.931	1128
837.315	690
839.699	410
842.081	314
844.463	268
846.844	248
849.226	272
851.606	260
853.985	246
856.363	256
858.741	252
861.117	252
863.493	226
865.868	192
868.243	218
870.616	202
872.989	182
875.36	184
877.731	206
880.102	194
882.472	194
884.841	194
887.209	182
889.577	194
891.944	170
894.31	182
896.674	180
899.039	188
901.403	186
903.766	190
906.128	184
908.49	184
910.849	180
913.209	186
915.569	184
917.927	174
920.284	184
922.641	200
924.997	202
927.353	190
929.707	190
932.061	192
934.414	190
936.765	212
939.117	222
941.469	242
943.818	264
946.167	302
948.515	364
950.863	446
953.211	558
955.556	704
957.902	852
960.246	952
962.59	924
964.933	748
967.276	658
969.617	528
971.958	462
974.298	388
976.638	324
978.976	266
981.314	260
983.651	240
985.988	226
988.323	214
990.659	242
992.992	224
995.325	216
997.658	186
999.99	204
1002.32	208
1004.65	220
1006.98	204
1009.31	212
1011.64	214
1013.97	218
1016.29	230
1018.62	244
1020.94	254
1023.27	244
1025.59	266
1027.91	268
1030.24	272
1032.56	296
1034.88	298
1037.2	272
1039.52	264
1041.84	278
1044.15	268
1046.47	254
1048.79	228
1051.1	210
1053.42	226
1055.73	218
1058.04	212
1060.36	224
1062.67	200
1064.98	214
1067.29	206
1069.6	198
1071.91	204
1074.22	196
1076.52	206
1078.83	192
1081.14	218
1083.44	190
1085.75	194
1088.05	214
1090.35	212
1092.65	224
1094.95	218
1097.26	208
1099.56	244
1101.86	266
1104.15	308
1106.45	372
1108.75	580
1111.05	852
1113.34	916
1115.64	750
1117.93	514
1120.22	388
1122.52	324
1124.81	304
1127.1	296
1129.39	248
1131.68	242
1133.97	244
1136.26	254
1138.54	250
1140.83	256
1143.12	272
1145.4	240
1147.69	216
1149.97	236
1152.25	216
1154.54	228
1156.82	228
1159.1	266
1161.38	302
1163.66	268
1165.94	294
1168.22	258
1170.49	244
1172.77	268
1175.05	288
1177.32	318
1179.6	374
1181.87	442
1184.14	564
1186.42	662
1188.69	608
1190.96	522
1193.23	464
1195.5	428
1197.77	438
1200.03	478
1202.3	472
1204.57	482
1206.83	416
1209.1	382
1211.36	318
1213.63	280
1215.89	252
1218.15	234
1220.41	242
1222.67	248
1224.93	296
1227.19	328
1229.45	344
1231.71	346
1233.97	298
1236.22	282
1238.48	268
1240.73	228
1242.99	250
1245.24	222
1247.5	246
1249.75	236
1252	234
1254.25	228
1256.5	242
1258.75	224
1261	222
1263.25	256
1265.49	248
1267.74	252
1269.99	254
1272.23	246
1274.48	288
1276.72	276
1278.96	302
1281.21	330
1283.45	374
1285.69	412
1287.93	418
1290.17	448
1292.41	486
1294.64	620
1296.88	818
1299.12	1156
1301.36	1542
1303.59	2070
1305.82	2214
1308.06	1914
1310.29	1346
1312.52	958
1314.76	772
1316.99	628
1319.22	574
1321.45	522
1323.68	480
1325.9	458
1328.13	462
1330.36	454
1332.58	424
1334.81	368
1337.04	354
1339.26	328
1341.48	360
1343.71	360
1345.93	366
1348.15	378
1350.37	394
1352.59	402
1354.81	386
1357.03	356
1359.24	332
1361.46	334
1363.68	318
1365.89	322
1368.11	364
1370.32	392
1372.54	540
1374.75	776
1376.96	970
1379.17	1084
1381.38	1066
1383.59	930
1385.8	756
1388.01	528
1390.22	422
1392.43	320
1394.63	322
1396.84	294
1399.05	282
1401.25	274
1403.45	264
1405.66	280
1407.86	290
1410.06	300
1412.26	282
1414.46	310
1416.66	344
1418.86	354
1421.06	378
1423.26	372
1425.46	402
1427.65	428
1429.85	462
1432.04	446
1434.24	474
1436.43	492
1438.62	500
1440.82	518
1443.01	522
1445.2	450
1447.39	468
1449.58	426
1451.77	380
1453.95	398
1456.14	400
1458.33	384
1460.52	382
1462.7	374
1464.89	382
1467.07	378
1469.25	364
1471.44	356
1473.62	372
1475.8	372
1477.98	352
1480.16	354
1482.34	340
1484.52	328
1486.7	322
1488.87	294
1491.05	292
1493.23	294
1495.4	290
1497.58	302
1499.75	286
1501.92	268
1504.1	270
1506.27	274
1508.44	278
1510.61	298
1512.78	284
1514.95	284
1517.12	290
1519.28	296
1521.45	272
1523.62	262
1525.78	260
1527.95	284
1530.11	282
1532.28	258
1534.44	262
1536.6	278
1538.76	262
1540.93	284
1543.09	268
1545.25	286
1547.41	284
1549.56	302
1551.72	302
1553.88	296
1556.03	302
1558.19	300
1560.35	296
1562.5	292
1564.65	322
1566.81	288
1568.96	324
1571.11	336
1573.26	356
1575.41	356
1577.56	392
1579.71	430
1581.86	446
1584.01	518
1586.15	586
1588.3	688
1590.45	782
1592.59	918
1594.74	1106
1596.88	1232
1599.02	1432
1601.17	1474
1603.31	1530
1605.45	1486
1607.59	1326
1609.73	1200
1611.87	1046
1614.01	872
1616.14	752
1618.28	622
1620.42	542
1622.55	466
1624.69	374
1626.82	368
1628.96	350
1631.09	326
1633.22	302
1635.36	304
1637.49	290
1639.62	274
1641.75	258
1643.88	260
1646	250
1648.13	242
1650.26	274
1652.39	246
1654.51	236
1656.64	242
1658.76	262
1660.89	250
1663.01	230
1665.13	248
1667.26	226
1669.38	218
1671.5	252
1673.62	240
1675.74	238
1677.86	230
1679.97	228
1682.09	236
1684.21	242
1686.33	246
1688.44	234
1690.56	250
1692.67	256
1694.78	236
1696.9	246
1699.01	256
1701.12	250
1703.23	240
1705.34	242
1707.45	226
1709.56	258
1711.67	242
1713.78	242
1715.88	232
1717.99	244
1720.1	240
1722.2	232
1724.31	224
1726.41	240
1728.51	222
1730.62	226
1732.72	216
1734.82	210
1736.92	238
1739.02	232
1741.12	230
1743.22	214
1745.32	204
1747.42	230
1749.51	212
1751.61	208
1753.7	222
1755.8	208
1757.89	214
1759.99	226
1762.08	198
1764.17	218
1766.26	212
1768.36	228
1770.45	212
1772.54	200
1774.62	214
1776.71	212
1778.8	232
1780.89	200
1782.98	222
1785.06	216
1787.15	218
1789.23	208
1791.32	214
1793.4	224
1795.48	214
1797.56	206
1799.65	204
1801.73	208
1803.81	220
1805.89	210
1807.97	212
1810.04	224
1812.12	214
1814.2	204
1816.28	206
1818.35	216
1820.43	210
1822.5	210
1824.58	208
1826.65	204
1828.72	202
1830.79	214
1832.86	192
1834.94	206
1837.01	216
1839.08	208
1841.15	200
1843.21	190
1845.28	210
1847.35	204
1849.41	204
1851.48	206
1853.55	222
1855.61	198
1857.67	204
1859.74	226
1861.8	216
1863.86	226
1865.92	202
1867.98	222
1870.05	204
1872.1	218
1874.16	218
1876.22	220
1878.28	212
1880.34	218
1882.39	208
1884.45	206
1886.5	212
1888.56	216
1890.61	226
1892.67	204
1894.72	224
1896.77	232
1898.82	210
1900.87	220
1902.92	220
1904.97	208
1907.02	218
1909.07	214
1911.12	226
1913.17	232
1915.21	220
1917.26	222
1919.3	216
1921.35	214
1923.39	202
1925.43	220
1927.48	216
1929.52	208
1931.56	236
1933.6	212
1935.64	196
1937.68	214
1939.72	208
1941.76	198
1943.8	200
1945.83	210
1947.87	206
1949.91	232
1951.94	204
1953.98	202
1956.01	210
1958.05	198
1960.08	218
1962.11	206
1964.14	200
1966.17	216
1968.2	210
1970.23	202
1972.26	202
1974.29	218
1976.32	214
1978.35	222
1980.37	220
1982.4	206
1984.43	204
1986.45	214
1988.48	202
1990.5	194
1992.52	208
1994.55	214
1996.57	222
1998.59	200
2000.61	218
2002.63	210
2004.65	218
2006.67	220
2008.69	206
2010.7	216
2012.72	214
2014.74	234
2016.75	224
2018.77	204
2020.78	210
2022.8	216
2024.81	210
2026.83	210
2028.84	200
2030.85	216
2032.86	212
2034.87	224
2036.88	198
2038.89	214
2040.9	206
2042.91	222
2044.91	214
2046.92	234
2048.93	200
2050.93	216
2052.94	224
2054.94	206
2056.95	206
2058.95	212
2060.95	220
2062.95	218
2064.96	206
2066.96	220
2068.96	222
2070.96	204
2072.96	208
2074.95	220
2076.95	210
2078.95	216
2080.95	216
2082.94	220
2084.94	218
2086.93	214
2088.93	210
2090.92	204
2092.91	216
2094.91	210
2096.9	228
2098.89	218
2100.88	224
2102.87	208
2104.86	204
2106.85	200
2108.84	206
2110.83	200
2112.81	218
2114.8	212
2116.78	204
2118.77	236
2120.75	206
2122.74	214
2124.72	212
2126.71	210
2128.69	214
2130.67	202
2132.65	220
2134.63	196
2136.61	222
2138.59	214
2140.57	214
2142.55	200
2144.53	212
2146.5	204
2148.48	226
2150.46	226
2152.43	208
2154.41	222
2156.38	220
2158.35	214
2160.33	194
2162.3	212
2164.27	214
2166.24	214
2168.21	210
2170.18	206
2172.15	222
2174.12	210
2176.09	200
2178.06	206
2180.03	222
2181.99	218
2183.96	216
2185.92	210
2187.89	230
2189.85	200
2191.82	194
2193.78	210
2195.74	220
2197.7	200
2199.67	200
2201.63	220
2203.59	204
2205.55	198
2207.51	214
2209.46	216
2211.42	200
2213.38	196
2215.34	222
2217.29	208
2219.25	208
2221.2	208
2223.16	222
2225.11	206
2227.06	214
2229.02	212
2230.97	224
2232.92	186
2234.87	214
2236.82	194
2238.77	194
2240.72	220
2242.67	222
2244.62	204
2246.57	204
2248.51	202
2250.46	212
2252.4	224
2254.35	224
2256.29	222
2258.24	204
2260.18	226
2262.13	210
2264.07	216
2266.01	192
2267.95	210
2269.89	206
2271.83	216
2273.77	210
2275.71	214
2277.65	206
2279.58	232
2281.52	198
2283.46	202
2285.4	206
2287.33	214
2289.27	236
2291.2	220
2293.13	214
2295.07	210
2297	194
2298.93	218
2300.86	224
2302.79	210
2304.72	216
2306.65	228
2308.58	222
2310.51	220
2312.44	236
2314.37	214
2316.29	208
2318.22	210
2320.15	236
2322.07	240
2324	232
2325.92	242
2327.84	230
2329.77	234
2331.69	222
2333.61	214
2335.53	214
2337.45	234
2339.37	232
2341.29	220
2343.21	224
2345.13	214
2347.05	204
2348.97	220
2350.88	196
2352.8	190
2354.71	214
2356.63	196
2358.54	208
2360.46	224
2362.37	224
2364.28	192
2366.2	216
2368.11	222
2370.02	224
2371.93	218
2373.84	214
2375.75	210
2377.66	210
2379.57	222
2381.47	216
2383.38	224
2385.29	232
2387.2	220
2389.1	216
2391.01	226
2392.91	214
2394.81	222
2396.72	212
2398.62	214
2400.52	212
2402.42	224
2404.33	226
2406.23	216
2408.13	222
2410.03	220
2411.92	216
2413.82	216
2415.72	216
2417.62	216
2419.51	218
2421.41	188
2423.31	214
2425.2	222
2427.1	212
2428.99	216
2430.88	214
2432.78	206
2434.67	214
2436.56	218
2438.45	210
2440.34	202
2442.23	202
2444.12	208
2446.01	220
2447.9	218
2449.79	218