File: Mixture_Classification/Jesse_Dataset_v2/Pure Raman/Polypropylene oxide/633nm/ps-ppo-7jan25-0,0000-map2_Y04_X05.txt
182.393	680
184.993	668
187.593	646
190.193	644
192.79	566
195.387	564
197.983	546
200.578	538
203.174	490
205.766	500
208.36	476
210.951	440
213.542	450
216.131	424
218.721	488
221.309	506
223.897	598
226.483	726
229.069	930
231.654	1160
234.238	1258
236.821	1256
239.404	1144
241.984	1022
244.566	848
247.145	742
249.723	640
252.302	540
254.878	466
257.455	404
260.03	356
262.604	330
265.178	292
267.75	272
270.322	266
272.893	272
275.463	282
278.032	272
280.601	298
283.168	308
285.734	376
288.301	446
290.866	536
293.429	608
295.992	596
298.556	620
301.117	556
303.677	482
306.236	468
308.795	406
311.354	382
313.911	374
316.467	344
319.022	366
321.577	350
324.13	358
326.684	376
329.236	402
331.787	396
334.337	420
336.887	376
339.435	372
341.983	340
344.529	342
347.075	334
349.621	344
352.165	324
354.708	332
357.251	368
359.793	342
362.334	316
364.874	306
367.413	324
369.951	300
372.489	318
375.026	316
377.562	314
380.097	274
382.631	252
385.164	250
387.697	246
390.229	230
392.76	218
395.29	232
397.819	212
400.346	222
402.873	254
405.4	228
407.926	260
410.451	294
412.976	360
415.499	366
418.02	330
420.542	302
423.063	266
425.583	262
428.101	202
430.619	224
433.137	192
435.654	194
438.169	164
440.684	180
443.198	156
445.712	162
448.223	166
450.735	176
453.246	158
455.755	156
458.264	156
460.771	182
463.279	186
465.786	206
468.291	200
470.796	248
473.301	294
475.803	326
478.306	396
480.807	406
483.308	490
485.807	502
488.307	452
490.804	374
493.302	302
495.798	256
498.294	234
500.788	198
503.283	218
505.775	202
508.269	250
510.759	320
513.251	396
515.74	364
518.23	308
520.718	286
523.204	296
525.692	322
528.177	390
530.663	450
533.147	588
535.629	694
538.113	768
540.594	768
543.074	680
545.555	552
548.034	430
550.512	374
552.989	382
555.467	408
557.942	510
560.417	658
562.892	1020
565.365	1664
567.838	2688
570.309	3686
572.78	3702
575.251	2584
577.72	1522
580.189	954
582.656	692
585.123	652
587.589	560
590.055	510
592.52	494
594.983	496
597.446	430
599.908	378
602.369	296
604.829	258
607.289	224
609.747	216
612.205	204
614.663	210
617.119	200
619.574	212
622.029	220
624.483	260
626.936	264
629.389	276
631.84	272
634.291	308
636.741	318
639.19	288
641.639	270
644.086	240
646.533	242
648.979	222
651.424	182
653.869	200
656.313	198
658.754	196
661.196	176
663.638	168
666.078	166
668.518	158
670.957	160
673.394	166
675.831	164
678.268	164
680.703	150
683.137	164
685.571	160
688.005	156
690.437	160
692.868	156
695.299	148
697.729	146
700.159	152
702.586	180
705.014	168
707.441	174
709.866	192
712.292	212
714.716	234
717.14	232
719.563	218
721.984	198
724.406	190
726.825	176
729.246	200
731.665	184
734.082	196
736.5	190
738.916	210
741.332	228
743.746	252
746.161	306
748.574	322
750.987	300
753.398	274
755.81	264
758.219	246
760.629	230
763.037	188
765.445	174
767.852	184
770.258	172
772.664	192
775.068	186
777.472	192
779.876	222
782.278	188
784.679	190
787.08	202
789.48	184
791.879	188
794.278	186
796.675	174
799.072	172
801.467	186
803.864	186
806.258	198
808.651	198
811.044	196
813.437	194
815.828	208
818.218	212
820.608	212
822.997	278
825.385	340
827.773	466
830.16	814
832.546	1134
834.931	1060
837.315	656
839.699	380
842.081	288
844.463	260
846.844	254
849.226	268
851.606	238
853.985	254
856.363	236
858.741	220
861.117	208
863.493	208
865.868	206
868.243	182
870.616	200
872.989	176
875.36	174
877.731	176
880.102	184
882.472	192
884.841	170
887.209	170
889.577	162
891.944	166
894.31	166
896.674	164
899.039	168
901.403	170
903.766	178
906.128	186
908.49	150
910.849	156
913.209	180
915.569	160
917.927	178
920.284	160
922.641	176
924.997	158
927.353	172
929.707	172
932.061	180
934.414	198
936.765	186
939.117	190
941.469	234
943.818	242
946.167	290
948.515	320
950.863	392
953.211	508
955.556	686
957.902	832
960.246	940
962.59	866
964.933	714
967.276	606
969.617	518
971.958	430
974.298	372
976.638	294
978.976	280
981.314	210
983.651	210
985.988	214
988.323	200
990.659	224
992.992	222
995.325	200
997.658	196
999.99	204
1002.32	178
1004.65	192
1006.98	180
1009.31	184
1011.64	202
1013.97	194
1016.29	202
1018.62	218
1020.94	218
1023.27	222
1025.59	248
1027.91	226
1030.24	264
1032.56	272
1034.88	292
1037.2	274
1039.52	258
1041.84	260
1044.15	242
1046.47	228
1048.79	210
1051.1	202
1053.42	196
1055.73	212
1058.04	188
1060.36	188
1062.67	192
1064.98	190
1067.29	184
1069.6	188
1071.91	188
1074.22	202
1076.52	190
1078.83	184
1081.14	184
1083.44	178
1085.75	182
1088.05	200
1090.35	202
1092.65	198
1094.95	202
1097.26	212
1099.56	220
1101.86	218
1104.15	286
1106.45	356
1108.75	542
1111.05	804
1113.34	852
1115.64	712
1117.93	498
1120.22	364
1122.52	296
1124.81	272
1127.1	256
1129.39	250
1131.68	220
1133.97	214
1136.26	220
1138.54	238
1140.83	228
1143.12	234
1145.4	222
1147.69	226
1149.97	218
1152.25	200
1154.54	206
1156.82	230
1159.1	246
1161.38	274
1163.66	246
1165.94	236
1168.22	268
1170.49	240
1172.77	262
1175.05	254
1177.32	330
1179.6	342
1181.87	438
1184.14	552
1186.42	634
1188.69	578
1190.96	500
1193.23	434
1195.5	386
1197.77	398
1200.03	434
1202.3	470
1204.57	420
1206.83	414
1209.1	350
1211.36	268
1213.63	236
1215.89	228
1218.15	220
1220.41	256
1222.67	234
1224.93	274
1227.19	328
1229.45	336
1231.71	352
1233.97	286
1236.22	258
1238.48	218
1240.73	236
1242.99	206
1245.24	218
1247.5	210
1249.75	206
1252	224
1254.25	212
1256.5	220
1258.75	210
1261	214
1263.25	232
1265.49	234
1267.74	224
1269.99	240
1272.23	256
1274.48	272
1276.72	264
1278.96	292
1281.21	314
1283.45	346
1285.69	370
1287.93	418
1290.17	444
1292.41	452
1294.64	576
1296.88	758
1299.12	1110
1301.36	1532
1303.59	2028
1305.82	2216
1308.06	1858
1310.29	1304
1312.52	948
1314.76	736
1316.99	592
1319.22	546
1321.45	504
1323.68	444
1325.9	448
1328.13	458
1330.36	408
1332.58	374
1334.81	368
1337.04	334
1339.26	332
1341.48	326
1343.71	352
1345.93	348
1348.15	354
1350.37	402
1352.59	356
1354.81	340
1357.03	328
1359.24	292
1361.46	304
1363.68	288
1365.89	296
1368.11	312
1370.32	372
1372.54	554
1374.75	740
1376.96	958
1379.17	1052
1381.38	1034
1383.59	890
1385.8	696
1388.01	534
1390.22	382
1392.43	316
1394.63	292
1396.84	274
1399.05	272
1401.25	266
1403.45	266
1405.66	236
1407.86	258
1410.06	270
1412.26	280
1414.46	284
1416.66	304
1418.86	316
1421.06	356
1423.26	390
1425.46	402
1427.65	406
1429.85	424
1432.04	438
1434.24	486
1436.43	484
1438.62	498
1440.82	508
1443.01	480
1445.2	464
1447.39	412
1449.58	390
1451.77	390
1453.95	390
1456.14	374
1458.33	354
1460.52	368
1462.7	370
1464.89	358
1467.07	354
1469.25	352
1471.44	382
1473.62	346
1475.8	348
1477.98	344
1480.16	338
1482.34	336
1484.52	312
1486.7	292
1488.87	280
1491.05	296
1493.23	288
1495.4	270
1497.58	280
1499.75	260
1501.92	274
1504.1	260
1506.27	246
1508.44	266
1510.61	282
1512.78	258
1514.95	260
1517.12	270
1519.28	260
1521.45	254
1523.62	270
1525.78	260
1527.95	252
1530.11	264
1532.28	272
1534.44	270
1536.6	278
1538.76	256
1540.93	272
1543.09	276
1545.25	258
1547.41	266
1549.56	278
1551.72	272
1553.88	272
1556.03	264
1558.19	280
1560.35	286
1562.5	276
1564.65	276
1566.81	300
1568.96	296
1571.11	344
1573.26	324
1575.41	332
1577.56	392
1579.71	402
1581.86	434
1584.01	504
1586.15	560
1588.3	634
1590.45	734
1592.59	890
1594.74	1066
1596.88	1192
1599.02	1368
1601.17	1464
1603.31	1500
1605.45	1350
1607.59	1244
1609.73	1146
1611.87	990
1614.01	866
1616.14	754
1618.28	610
1620.42	498
1622.55	458
1624.69	404
1626.82	360
1628.96	324
1631.09	290
1633.22	292
1635.36	278
1637.49	258
1639.62	236
1641.75	248
1643.88	240
1646	244
1648.13	238
1650.26	222
1652.39	232
1654.51	230
1656.64	236
1658.76	234
1660.89	236
1663.01	232
1665.13	222
1667.26	220
1669.38	228
1671.5	206
1673.62	204
1675.74	210
1677.86	208
1679.97	234
1682.09	222
1684.21	214
1686.33	214
1688.44	220
1690.56	230
1692.67	228
1694.78	232
1696.9	226
1699.01	244
1701.12	234
1703.23	216
1705.34	210
1707.45	236
1709.56	216
1711.67	226
1713.78	210
1715.88	220
1717.99	224
1720.1	226
1722.2	220
1724.31	200
1726.41	222
1728.51	222
1730.62	200
1732.72	204
1734.82	186
1736.92	202
1739.02	204
1741.12	198
1743.22	198
1745.32	198
1747.42	212
1749.51	218
1751.61	208
1753.7	190
1755.8	194
1757.89	184
1759.99	192
1762.08	212
1764.17	206
1766.26	208
1768.36	210
1770.45	196
1772.54	198
1774.62	206
1776.71	204
1778.8	224
1780.89	206
1782.98	200
1785.06	210
1787.15	202
1789.23	198
1791.32	210
1793.4	190
1795.48	208
1797.56	210
1799.65	190
1801.73	200
1803.81	184
1805.89	204
1807.97	184
1810.04	206
1812.12	174
1814.2	202
1816.28	194
1818.35	206
1820.43	194
1822.5	200
1824.58	200
1826.65	202
1828.72	204
1830.79	198
1832.86	206
1834.94	202
1837.01	200
1839.08	200
1841.15	204
1843.21	200
1845.28	194
1847.35	188
1849.41	188
1851.48	208
1853.55	196
1855.61	204
1857.67	200
1859.74	198
1861.8	202
1863.86	194
1865.92	194
1867.98	184
1870.05	186
1872.1	188
1874.16	194
1876.22	202
1878.28	198
1880.34	200
1882.39	198
1884.45	196
1886.5	210
1888.56	206
1890.61	168
1892.67	202
1894.72	196
1896.77	212
1898.82	206
1900.87	192
1902.92	210
1904.97	194
1907.02	204
1909.07	198
1911.12	186
1913.17	216
1915.21	198
1917.26	200
1919.3	216
1921.35	196
1923.39	208
1925.43	206
1927.48	184
1929.52	198
1931.56	204
1933.6	220
1935.64	212
1937.68	220
1939.72	208
1941.76	190
1943.8	210
1945.83	198
1947.87	200
1949.91	194
1951.94	190
1953.98	192
1956.01	196
1958.05	208
1960.08	206
1962.11	198
1964.14	188
1966.17	180
1968.2	208
1970.23	198
1972.26	208
1974.29	202
1976.32	194
1978.35	206
1980.37	210
1982.4	208
1984.43	190
1986.45	200
1988.48	206
1990.5	206
1992.52	220
1994.55	206
1996.57	200
1998.59	196
2000.61	194
2002.63	208
2004.65	184
2006.67	210
2008.69	200
2010.7	204
2012.72	216
2014.74	212
2016.75	198
2018.77	200
2020.78	208
2022.8	186
2024.81	198
2026.83	190
2028.84	198
2030.85	200
2032.86	200
2034.87	212
2036.88	196
2038.89	194
2040.9	204
2042.91	192
2044.91	188
2046.92	202
2048.93	204
2050.93	194
2052.94	190
2054.94	204
2056.95	206
2058.95	188
2060.95	206
2062.95	194
2064.96	206
2066.96	210
2068.96	212
2070.96	192
2072.96	214
2074.95	202
2076.95	194
2078.95	202
2080.95	204
2082.94	200
2084.94	202
2086.93	204
2088.93	214
2090.92	190
2092.91	212
2094.91	208
2096.9	212
2098.89	202
2100.88	206
2102.87	206
2104.86	190
2106.85	196
2108.84	210
2110.83	194
2112.81	214
2114.8	200
2116.78	186
2118.77	214
2120.75	200
2122.74	180
2124.72	190
2126.71	202
2128.69	196
2130.67	214
2132.65	196
2134.63	188
2136.61	200
2138.59	196
2140.57	202
2142.55	198
2144.53	186
2146.5	208
2148.48	222
2150.46	204
2152.43	200
2154.41	202
2156.38	206
2158.35	198
2160.33	196
2162.3	200
2164.27	212
2166.24	198
2168.21	192
2170.18	188
2172.15	192
2174.12	194
2176.09	204
2178.06	216
2180.03	206
2181.99	202
2183.96	194
2185.92	206
2187.89	212
2189.85	212
2191.82	196
2193.78	208
2195.74	200
2197.7	206
2199.67	204
2201.63	192
2203.59	200
2205.55	192
2207.51	188
2209.46	200
2211.42	196
2213.38	190
2215.34	192
2217.29	196
2219.25	206
2221.2	218
2223.16	214
2225.11	210
2227.06	174
2229.02	208
2230.97	198
2232.92	218
2234.87	198
2236.82	210
2238.77	208
2240.72	196
2242.67	196
2244.62	190
2246.57	194
2248.51	206
2250.46	196
2252.4	188
2254.35	188
2256.29	196
2258.24	210
2260.18	200
2262.13	184
2264.07	204
2266.01	210
2267.95	216
2269.89	202
2271.83	220
2273.77	182
2275.71	208
2277.65	186
2279.58	204
2281.52	206
2283.46	206
2285.4	212
2287.33	200
2289.27	202
2291.2	204
2293.13	206
2295.07	184
2297	216
2298.93	198
2300.86	210
2302.79	200
2304.72	194
2306.65	200
2308.58	216
2310.51	206
2312.44	222
2314.37	204
2316.29	216
2318.22	222
2320.15	224
2322.07	220
2324	222
2325.92	208
2327.84	200
2329.77	202
2331.69	212
2333.61	198
2335.53	208
2337.45	210
2339.37	198
2341.29	208
2343.21	224
2345.13	210
2347.05	220
2348.97	200
2350.88	196
2352.8	216
2354.71	204
2356.63	192
2358.54	200
2360.46	210
2362.37	194
2364.28	218
2366.2	208
2368.11	210
2370.02	194
2371.93	200
2373.84	196
2375.75	206
2377.66	204
2379.57	206
2381.47	210
2383.38	210
2385.29	218
2387.2	204
2389.1	220
2391.01	210
2392.91	208
2394.81	206
2396.72	220
2398.62	216
2400.52	206
2402.42	236
2404.33	210
2406.23	212
2408.13	214
2410.03	214
2411.92	214
2413.82	222
2415.72	206
2417.62	192
2419.51	196
2421.41	198
2423.31	206
2425.2	182
2427.1	210
2428.99	210
2430.88	196
2432.78	184
2434.67	190
2436.56	222
2438.45	202
2440.34	202
2442.23	208
2444.12	216
2446.01	224
2447.9	186
2449.79	200