File: Mixture_Classification/Jesse_Dataset_v2/Pure Raman/Polypropylene oxide/633nm/ps-ppo-7jan25-0,0000-map2_Y01_X08.txt
182.393	702
184.993	706
187.593	664
190.193	644
192.79	590
195.387	570
197.983	516
200.578	552
203.174	516
205.766	530
208.36	494
210.951	482
213.542	460
216.131	482
218.721	514
221.309	532
223.897	634
226.483	756
229.069	980
231.654	1210
234.238	1264
236.821	1246
239.404	1178
241.984	1040
244.566	920
247.145	756
249.723	642
252.302	560
254.878	508
257.455	412
260.03	390
262.604	340
265.178	308
267.75	302
270.322	292
272.893	290
275.463	264
278.032	298
280.601	318
283.168	370
285.734	402
288.301	462
290.866	538
293.429	608
295.992	680
298.556	654
301.117	594
303.677	528
306.236	508
308.795	428
311.354	400
313.911	388
316.467	396
319.022	358
321.577	378
324.13	374
326.684	374
329.236	384
331.787	414
334.337	422
336.887	426
339.435	418
341.983	382
344.529	352
347.075	350
349.621	380
352.165	394
354.708	358
357.251	378
359.793	354
362.334	344
364.874	334
367.413	340
369.951	338
372.489	360
375.026	350
377.562	292
380.097	326
382.631	302
385.164	268
387.697	266
390.229	258
392.76	246
395.29	236
397.819	234
400.346	228
402.873	244
405.4	268
407.926	304
410.451	324
412.976	368
415.499	404
418.02	354
420.542	340
423.063	282
425.583	256
428.101	228
430.619	216
433.137	224
435.654	202
438.169	198
440.684	180
443.198	184
445.712	178
448.223	194
450.735	176
453.246	176
455.755	184
458.264	192
460.771	192
463.279	192
465.786	234
468.291	256
470.796	268
473.301	296
475.803	366
478.306	398
480.807	458
483.308	502
485.807	532
488.307	474
490.804	352
493.302	324
495.798	286
498.294	242
500.788	228
503.283	224
505.775	226
508.269	266
510.759	358
513.251	414
515.74	378
518.23	306
520.718	302
523.204	324
525.692	344
528.177	394
530.663	506
533.147	608
535.629	734
538.113	778
540.594	772
543.074	726
545.555	564
548.034	448
550.512	392
552.989	426
555.467	432
557.942	512
560.417	710
562.892	1076
565.365	1654
567.838	2688
570.309	3790
572.78	3758
575.251	2684
577.72	1566
580.189	930
582.656	720
585.123	648
587.589	604
590.055	560
592.52	518
594.983	514
597.446	482
599.908	390
602.369	322
604.829	292
607.289	256
609.747	236
612.205	224
614.663	220
617.119	228
619.574	230
622.029	256
624.483	270
626.936	268
629.389	304
631.84	314
634.291	338
636.741	322
639.19	310
641.639	280
644.086	252
646.533	248
648.979	250
651.424	236
653.869	226
656.313	210
658.754	214
661.196	202
663.638	202
666.078	182
668.518	198
670.957	176
673.394	174
675.831	182
678.268	168
680.703	174
683.137	164
685.571	184
688.005	164
690.437	162
692.868	166
695.299	176
697.729	180
700.159	186
702.586	192
705.014	192
707.441	210
709.866	212
712.292	228
714.716	244
717.14	248
719.563	216
721.984	218
724.406	222
726.825	228
729.246	214
731.665	210
734.082	208
736.5	212
738.916	204
741.332	250
743.746	280
746.161	320
748.574	346
750.987	316
753.398	298
755.81	270
758.219	262
760.629	236
763.037	208
765.445	204
767.852	192
770.258	202
772.664	208
775.068	212
777.472	236
779.876	240
782.278	234
784.679	210
787.08	216
789.48	210
791.879	200
794.278	212
796.675	198
799.072	190
801.467	204
803.864	226
806.258	204
808.651	246
811.044	226
813.437	230
815.828	212
818.218	210
820.608	254
822.997	296
825.385	340
827.773	498
830.16	832
832.546	1218
834.931	1130
837.315	670
839.699	406
842.081	316
844.463	296
846.844	262
849.226	268
851.606	256
853.985	264
856.363	256
858.741	228
861.117	236
863.493	216
865.868	230
868.243	196
870.616	204
872.989	190
875.36	208
877.731	198
880.102	192
882.472	182
884.841	190
887.209	196
889.577	182
891.944	180
894.31	188
896.674	194
899.039	172
901.403	172
903.766	204
906.128	188
908.49	198
910.849	184
913.209	196
915.569	188
917.927	196
920.284	178
922.641	198
924.997	200
927.353	202
929.707	200
932.061	208
934.414	220
936.765	212
939.117	230
941.469	228
943.818	270
946.167	314
948.515	340
950.863	410
953.211	590
955.556	710
957.902	882
960.246	960
962.59	932
964.933	788
967.276	648
969.617	572
971.958	462
974.298	368
976.638	304
978.976	256
981.314	260
983.651	232
985.988	242
988.323	228
990.659	256
992.992	248
995.325	228
997.658	210
999.99	190
1002.32	210
1004.65	216
1006.98	176
1009.31	202
1011.64	232
1013.97	230
1016.29	250
1018.62	250
1020.94	246
1023.27	248
1025.59	266
1027.91	274
1030.24	286
1032.56	316
1034.88	304
1037.2	280
1039.52	292
1041.84	258
1044.15	256
1046.47	226
1048.79	222
1051.1	222
1053.42	238
1055.73	206
1058.04	224
1060.36	208
1062.67	194
1064.98	214
1067.29	190
1069.6	208
1071.91	208
1074.22	208
1076.52	198
1078.83	214
1081.14	210
1083.44	212
1085.75	212
1088.05	228
1090.35	224
1092.65	214
1094.95	224
1097.26	224
1099.56	250
1101.86	266
1104.15	294
1106.45	400
1108.75	582
1111.05	878
1113.34	940
1115.64	746
1117.93	498
1120.22	370
1122.52	330
1124.81	300
1127.1	272
1129.39	246
1131.68	258
1133.97	260
1136.26	236
1138.54	260
1140.83	242
1143.12	272
1145.4	256
1147.69	230
1149.97	234
1152.25	228
1154.54	242
1156.82	270
1159.1	260
1161.38	276
1163.66	294
1165.94	278
1168.22	278
1170.49	252
1172.77	266
1175.05	268
1177.32	328
1179.6	352
1181.87	446
1184.14	580
1186.42	628
1188.69	608
1190.96	530
1193.23	464
1195.5	428
1197.77	450
1200.03	462
1202.3	496
1204.57	502
1206.83	430
1209.1	384
1211.36	302
1213.63	272
1215.89	264
1218.15	258
1220.41	250
1222.67	260
1224.93	288
1227.19	340
1229.45	342
1231.71	354
1233.97	306
1236.22	272
1238.48	256
1240.73	272
1242.99	234
1245.24	250
1247.5	238
1249.75	230
1252	232
1254.25	226
1256.5	240
1258.75	254
1261	244
1263.25	236
1265.49	268
1267.74	264
1269.99	254
1272.23	280
1274.48	278
1276.72	286
1278.96	314
1281.21	338
1283.45	364
1285.69	406
1287.93	404
1290.17	456
1292.41	508
1294.64	626
1296.88	804
1299.12	1136
1301.36	1634
1303.59	2046
1305.82	2280
1308.06	1884
1310.29	1352
1312.52	974
1314.76	778
1316.99	640
1319.22	580
1321.45	526
1323.68	488
1325.9	468
1328.13	470
1330.36	444
1332.58	392
1334.81	392
1337.04	374
1339.26	344
1341.48	350
1343.71	380
1345.93	380
1348.15	412
1350.37	382
1352.59	388
1354.81	360
1357.03	380
1359.24	316
1361.46	318
1363.68	312
1365.89	350
1368.11	358
1370.32	410
1372.54	556
1374.75	782
1376.96	978
1379.17	1092
1381.38	1030
1383.59	954
1385.8	704
1388.01	558
1390.22	416
1392.43	334
1394.63	306
1396.84	310
1399.05	288
1401.25	274
1403.45	290
1405.66	290
1407.86	290
1410.06	288
1412.26	294
1414.46	296
1416.66	314
1418.86	368
1421.06	364
1423.26	428
1425.46	418
1427.65	456
1429.85	444
1432.04	450
1434.24	472
1436.43	500
1438.62	516
1440.82	526
1443.01	516
1445.2	492
1447.39	484
1449.58	430
1451.77	418
1453.95	404
1456.14	376
1458.33	394
1460.52	392
1462.7	396
1464.89	392
1467.07	390
1469.25	378
1471.44	376
1473.62	362
1475.8	358
1477.98	378
1480.16	366
1482.34	334
1484.52	352
1486.7	328
1488.87	328
1491.05	330
1493.23	304
1495.4	302
1497.58	308
1499.75	296
1501.92	302
1504.1	282
1506.27	290
1508.44	294
1510.61	286
1512.78	274
1514.95	298
1517.12	268
1519.28	294
1521.45	286
1523.62	258
1525.78	276
1527.95	282
1530.11	300
1532.28	302
1534.44	286
1536.6	262
1538.76	276
1540.93	288
1543.09	290
1545.25	292
1547.41	294
1549.56	288
1551.72	298
1553.88	294
1556.03	294
1558.19	294
1560.35	288
1562.5	308
1564.65	286
1566.81	324
1568.96	318
1571.11	340
1573.26	358
1575.41	368
1577.56	396
1579.71	448
1581.86	462
1584.01	510
1586.15	596
1588.3	700
1590.45	814
1592.59	924
1594.74	1052
1596.88	1208
1599.02	1366
1601.17	1500
1603.31	1534
1605.45	1472
1607.59	1308
1609.73	1156
1611.87	1000
1614.01	866
1616.14	762
1618.28	640
1620.42	568
1622.55	456
1624.69	412
1626.82	374
1628.96	338
1631.09	326
1633.22	324
1635.36	296
1637.49	282
1639.62	270
1641.75	276
1643.88	270
1646	252
1648.13	250
1650.26	270
1652.39	236
1654.51	248
1656.64	240
1658.76	248
1660.89	240
1663.01	246
1665.13	224
1667.26	248
1669.38	252
1671.5	232
1673.62	220
1675.74	228
1677.86	234
1679.97	224
1682.09	254
1684.21	258
1686.33	264
1688.44	258
1690.56	260
1692.67	260
1694.78	272
1696.9	266
1699.01	270
1701.12	244
1703.23	250
1705.34	262
1707.45	244
1709.56	254
1711.67	240
1713.78	240
1715.88	234
1717.99	234
1720.1	224
1722.2	226
1724.31	220
1726.41	218
1728.51	244
1730.62	234
1732.72	242
1734.82	218
1736.92	208
1739.02	228
1741.12	214
1743.22	230
1745.32	226
1747.42	222
1749.51	228
1751.61	222
1753.7	216
1755.8	224
1757.89	222
1759.99	214
1762.08	238
1764.17	210
1766.26	220
1768.36	240
1770.45	226
1772.54	218
1774.62	238
1776.71	214
1778.8	218
1780.89	240
1782.98	224
1785.06	200
1787.15	198
1789.23	220
1791.32	228
1793.4	216
1795.48	232
1797.56	226
1799.65	236
1801.73	236
1803.81	234
1805.89	220
1807.97	232
1810.04	218
1812.12	222
1814.2	212
1816.28	240
1818.35	218
1820.43	228
1822.5	212
1824.58	236
1826.65	214
1828.72	220
1830.79	234
1832.86	224
1834.94	210
1837.01	198
1839.08	244
1841.15	224
1843.21	234
1845.28	226
1847.35	216
1849.41	210
1851.48	214
1853.55	240
1855.61	212
1857.67	220
1859.74	214
1861.8	206
1863.86	216
1865.92	236
1867.98	218
1870.05	214
1872.1	212
1874.16	214
1876.22	220
1878.28	230
1880.34	216
1882.39	222
1884.45	218
1886.5	210
1888.56	218
1890.61	218
1892.67	228
1894.72	210
1896.77	240
1898.82	226
1900.87	232
1902.92	234
1904.97	218
1907.02	234
1909.07	238
1911.12	202
1913.17	210
1915.21	226
1917.26	232
1919.3	226
1921.35	210
1923.39	224
1925.43	210
1927.48	230
1929.52	218
1931.56	218
1933.6	228
1935.64	228
1937.68	228
1939.72	208
1941.76	220
1943.8	208
1945.83	226
1947.87	224
1949.91	222
1951.94	226
1953.98	224
1956.01	218
1958.05	202
1960.08	214
1962.11	216
1964.14	208
1966.17	218
1968.2	202
1970.23	208
1972.26	212
1974.29	222
1976.32	220
1978.35	224
1980.37	224
1982.4	222
1984.43	232
1986.45	214
1988.48	228
1990.5	220
1992.52	218
1994.55	210
1996.57	228
1998.59	210
2000.61	224
2002.63	222
2004.65	230
2006.67	228
2008.69	224
2010.7	212
2012.72	232
2014.74	220
2016.75	218
2018.77	216
2020.78	230
2022.8	216
2024.81	216
2026.83	240
2028.84	220
2030.85	206
2032.86	210
2034.87	220
2036.88	212
2038.89	240
2040.9	226
2042.91	228
2044.91	206
2046.92	232
2048.93	228
2050.93	224
2052.94	220
2054.94	222
2056.95	220
2058.95	224
2060.95	224
2062.95	222
2064.96	240
2066.96	238
2068.96	210
2070.96	216
2072.96	222
2074.95	218
2076.95	220
2078.95	220
2080.95	208
2082.94	222
2084.94	208
2086.93	230
2088.93	214
2090.92	228
2092.91	218
2094.91	220
2096.9	232
2098.89	216
2100.88	226
2102.87	208
2104.86	216
2106.85	194
2108.84	218
2110.83	212
2112.81	206
2114.8	220
2116.78	206
2118.77	216
2120.75	206
2122.74	236
2124.72	206
2126.71	224
2128.69	216
2130.67	206
2132.65	244
2134.63	218
2136.61	234
2138.59	216
2140.57	208
2142.55	212
2144.53	224
2146.5	226
2148.48	230
2150.46	212
2152.43	206
2154.41	204
2156.38	222
2158.35	224
2160.33	204
2162.3	214
2164.27	200
2166.24	206
2168.21	212
2170.18	224
2172.15	220
2174.12	228
2176.09	202
2178.06	214
2180.03	224
2181.99	210
2183.96	218
2185.92	216
2187.89	232
2189.85	230
2191.82	216
2193.78	228
2195.74	222
2197.7	200
2199.67	240
2201.63	224
2203.59	194
2205.55	208
2207.51	220
2209.46	216
2211.42	210
2213.38	208
2215.34	228
2217.29	214
2219.25	208
2221.2	224
2223.16	188
2225.11	210
2227.06	210
2229.02	226
2230.97	216
2232.92	210
2234.87	206
2236.82	218
2238.77	222
2240.72	218
2242.67	212
2244.62	236
2246.57	214
2248.51	200
2250.46	220
2252.4	232
2254.35	212
2256.29	216
2258.24	222
2260.18	210
2262.13	222
2264.07	204
2266.01	228
2267.95	224
2269.89	224
2271.83	212
2273.77	220
2275.71	204
2277.65	230
2279.58	228
2281.52	214
2283.46	224
2285.4	228
2287.33	224
2289.27	212
2291.2	226
2293.13	220
2295.07	220
2297	240
2298.93	194
2300.86	214
2302.79	216
2304.72	214
2306.65	220
2308.58	224
2310.51	208
2312.44	212
2314.37	224
2316.29	212
2318.22	240
2320.15	232
2322.07	218
2324	222
2325.92	242
2327.84	234
2329.77	204
2331.69	222
2333.61	216
2335.53	210
2337.45	218
2339.37	230
2341.29	214
2343.21	214
2345.13	222
2347.05	210
2348.97	220
2350.88	232
2352.8	228
2354.71	226
2356.63	218
2358.54	204
2360.46	212
2362.37	212
2364.28	208
2366.2	198
2368.11	218
2370.02	208
2371.93	206
2373.84	212
2375.75	230
2377.66	216
2379.57	228
2381.47	212
2383.38	250
2385.29	236
2387.2	236
2389.1	218
2391.01	236
2392.91	232
2394.81	232
2396.72	218
2398.62	234
2400.52	224
2402.42	236
2404.33	236
2406.23	216
2408.13	238
2410.03	220
2411.92	240
2413.82	226
2415.72	216
2417.62	214
2419.51	222
2421.41	220
2423.31	210
2425.2	202
2427.1	222
2428.99	228
2430.88	210
2432.78	226
2434.67	218
2436.56	222
2438.45	208
2440.34	210
2442.23	228
2444.12	244
2446.01	208
2447.9	218
2449.79	212