File: Mixture_Classification/Jesse_Dataset_v2/Pure Raman/Polypropylene oxide/633nm/ps-ppo-7jan25-0,0000-map2_Y06_X10.txt
182.393	672
184.993	680
187.593	640
190.193	610
192.79	590
195.387	574
197.983	538
200.578	520
203.174	500
205.766	502
208.36	478
210.951	478
213.542	430
216.131	436
218.721	488
221.309	508
223.897	594
226.483	762
229.069	962
231.654	1104
234.238	1204
236.821	1230
239.404	1176
241.984	990
244.566	832
247.145	738
249.723	632
252.302	550
254.878	478
257.455	400
260.03	372
262.604	336
265.178	310
267.75	308
270.322	306
272.893	280
275.463	292
278.032	296
280.601	312
283.168	334
285.734	414
288.301	460
290.866	530
293.429	598
295.992	642
298.556	626
301.117	546
303.677	474
306.236	446
308.795	470
311.354	398
313.911	390
316.467	352
319.022	392
321.577	340
324.13	396
326.684	384
329.236	416
331.787	400
334.337	410
336.887	420
339.435	380
341.983	366
344.529	362
347.075	350
349.621	340
352.165	356
354.708	366
357.251	366
359.793	336
362.334	320
364.874	342
367.413	326
369.951	340
372.489	340
375.026	344
377.562	328
380.097	288
382.631	290
385.164	270
387.697	252
390.229	246
392.76	244
395.29	242
397.819	238
400.346	240
402.873	256
405.4	274
407.926	294
410.451	330
412.976	360
415.499	364
418.02	362
420.542	314
423.063	292
425.583	258
428.101	228
430.619	236
433.137	222
435.654	200
438.169	206
440.684	190
443.198	188
445.712	186
448.223	186
450.735	180
453.246	186
455.755	186
458.264	202
460.771	196
463.279	212
465.786	238
468.291	240
470.796	286
473.301	330
475.803	346
478.306	412
480.807	424
483.308	478
485.807	512
488.307	470
490.804	366
493.302	298
495.798	294
498.294	266
500.788	232
503.283	226
505.775	234
508.269	276
510.759	328
513.251	394
515.74	388
518.23	324
520.718	294
523.204	312
525.692	356
528.177	406
530.663	470
533.147	602
535.629	722
538.113	764
540.594	818
543.074	680
545.555	562
548.034	474
550.512	436
552.989	408
555.467	426
557.942	476
560.417	678
562.892	986
565.365	1618
567.838	2642
570.309	3646
572.78	3682
575.251	2582
577.72	1490
580.189	942
582.656	706
585.123	628
587.589	598
590.055	538
592.52	516
594.983	488
597.446	486
599.908	418
602.369	358
604.829	270
607.289	258
609.747	246
612.205	224
614.663	240
617.119	230
619.574	238
622.029	262
624.483	260
626.936	298
629.389	290
631.84	318
634.291	334
636.741	334
639.19	320
641.639	298
644.086	270
646.533	266
648.979	246
651.424	232
653.869	224
656.313	214
658.754	214
661.196	216
663.638	188
666.078	186
668.518	190
670.957	188
673.394	184
675.831	178
678.268	172
680.703	182
683.137	178
685.571	194
688.005	192
690.437	198
692.868	188
695.299	170
697.729	174
700.159	184
702.586	194
705.014	202
707.441	220
709.866	228
712.292	256
714.716	254
717.14	248
719.563	250
721.984	222
724.406	224
726.825	206
729.246	214
731.665	216
734.082	224
736.5	218
738.916	260
741.332	258
743.746	294
746.161	322
748.574	326
750.987	304
753.398	312
755.81	286
758.219	248
760.629	242
763.037	216
765.445	216
767.852	204
770.258	198
772.664	200
775.068	220
777.472	218
779.876	218
782.278	226
784.679	232
787.08	238
789.48	220
791.879	218
794.278	184
796.675	208
799.072	210
801.467	210
803.864	218
806.258	216
808.651	210
811.044	250
813.437	216
815.828	206
818.218	248
820.608	254
822.997	268
825.385	348
827.773	516
830.16	808
832.546	1178
834.931	1120
837.315	678
839.699	416
842.081	298
844.463	288
846.844	272
849.226	270
851.606	266
853.985	242
856.363	248
858.741	244
861.117	250
863.493	222
865.868	220
868.243	200
870.616	204
872.989	216
875.36	198
877.731	204
880.102	202
882.472	206
884.841	196
887.209	210
889.577	192
891.944	194
894.31	204
896.674	196
899.039	184
901.403	200
903.766	208
906.128	190
908.49	202
910.849	208
913.209	190
915.569	210
917.927	190
920.284	192
922.641	202
924.997	200
927.353	216
929.707	212
932.061	214
934.414	220
936.765	228
939.117	238
941.469	254
943.818	274
946.167	314
948.515	348
950.863	426
953.211	568
955.556	712
957.902	862
960.246	924
962.59	890
964.933	794
967.276	644
969.617	558
971.958	464
974.298	366
976.638	328
978.976	272
981.314	252
983.651	258
985.988	230
988.323	230
990.659	256
992.992	246
995.325	220
997.658	228
999.99	214
1002.32	242
1004.65	218
1006.98	218
1009.31	222
1011.64	216
1013.97	232
1016.29	246
1018.62	238
1020.94	258
1023.27	274
1025.59	274
1027.91	294
1030.24	306
1032.56	300
1034.88	314
1037.2	288
1039.52	288
1041.84	278
1044.15	266
1046.47	254
1048.79	260
1051.1	232
1053.42	240
1055.73	218
1058.04	214
1060.36	222
1062.67	220
1064.98	220
1067.29	218
1069.6	202
1071.91	234
1074.22	214
1076.52	220
1078.83	216
1081.14	222
1083.44	238
1085.75	198
1088.05	218
1090.35	208
1092.65	232
1094.95	240
1097.26	220
1099.56	244
1101.86	248
1104.15	312
1106.45	380
1108.75	588
1111.05	834
1113.34	912
1115.64	744
1117.93	536
1120.22	396
1122.52	312
1124.81	300
1127.1	302
1129.39	282
1131.68	258
1133.97	264
1136.26	254
1138.54	254
1140.83	296
1143.12	250
1145.4	246
1147.69	238
1149.97	226
1152.25	250
1154.54	240
1156.82	244
1159.1	272
1161.38	284
1163.66	300
1165.94	278
1168.22	256
1170.49	270
1172.77	304
1175.05	290
1177.32	332
1179.6	380
1181.87	448
1184.14	546
1186.42	644
1188.69	630
1190.96	518
1193.23	468
1195.5	440
1197.77	448
1200.03	476
1202.3	476
1204.57	472
1206.83	428
1209.1	376
1211.36	314
1213.63	276
1215.89	294
1218.15	254
1220.41	270
1222.67	276
1224.93	276
1227.19	336
1229.45	366
1231.71	368
1233.97	324
1236.22	296
1238.48	274
1240.73	256
1242.99	260
1245.24	224
1247.5	222
1249.75	254
1252	232
1254.25	256
1256.5	244
1258.75	232
1261	228
1263.25	256
1265.49	280
1267.74	264
1269.99	264
1272.23	280
1274.48	290
1276.72	310
1278.96	342
1281.21	342
1283.45	354
1285.69	388
1287.93	402
1290.17	466
1292.41	520
1294.64	624
1296.88	766
1299.12	1098
1301.36	1546
1303.59	2024
1305.82	2186
1308.06	1894
1310.29	1332
1312.52	978
1314.76	774
1316.99	630
1319.22	566
1321.45	500
1323.68	480
1325.9	464
1328.13	472
1330.36	430
1332.58	434
1334.81	368
1337.04	352
1339.26	362
1341.48	322
1343.71	364
1345.93	408
1348.15	380
1350.37	418
1352.59	384
1354.81	364
1357.03	364
1359.24	338
1361.46	324
1363.68	318
1365.89	352
1368.11	380
1370.32	428
1372.54	530
1374.75	758
1376.96	998
1379.17	1064
1381.38	1026
1383.59	930
1385.8	694
1388.01	548
1390.22	416
1392.43	366
1394.63	328
1396.84	302
1399.05	268
1401.25	292
1403.45	294
1405.66	296
1407.86	304
1410.06	290
1412.26	314
1414.46	304
1416.66	336
1418.86	346
1421.06	390
1423.26	404
1425.46	436
1427.65	448
1429.85	444
1432.04	444
1434.24	494
1436.43	504
1438.62	526
1440.82	528
1443.01	486
1445.2	498
1447.39	472
1449.58	432
1451.77	424
1453.95	412
1456.14	402
1458.33	384
1460.52	396
1462.7	400
1464.89	390
1467.07	404
1469.25	380
1471.44	398
1473.62	386
1475.8	382
1477.98	356
1480.16	374
1482.34	334
1484.52	350
1486.7	336
1488.87	304
1491.05	302
1493.23	310
1495.4	302
1497.58	290
1499.75	274
1501.92	302
1504.1	298
1506.27	298
1508.44	306
1510.61	292
1512.78	290
1514.95	282
1517.12	276
1519.28	286
1521.45	282
1523.62	290
1525.78	302
1527.95	292
1530.11	290
1532.28	298
1534.44	296
1536.6	284
1538.76	308
1540.93	284
1543.09	270
1545.25	292
1547.41	318
1549.56	308
1551.72	308
1553.88	310
1556.03	312
1558.19	306
1560.35	314
1562.5	304
1564.65	312
1566.81	332
1568.96	320
1571.11	348
1573.26	360
1575.41	390
1577.56	400
1579.71	438
1581.86	492
1584.01	532
1586.15	602
1588.3	668
1590.45	814
1592.59	910
1594.74	1052
1596.88	1222
1599.02	1380
1601.17	1458
1603.31	1460
1605.45	1412
1607.59	1292
1609.73	1136
1611.87	982
1614.01	910
1616.14	734
1618.28	638
1620.42	552
1622.55	476
1624.69	416
1626.82	380
1628.96	334
1631.09	344
1633.22	322
1635.36	322
1637.49	292
1639.62	294
1641.75	272
1643.88	284
1646	268
1648.13	258
1650.26	262
1652.39	260
1654.51	264
1656.64	246
1658.76	250
1660.89	270
1663.01	264
1665.13	264
1667.26	254
1669.38	254
1671.5	228
1673.62	270
1675.74	228
1677.86	256
1679.97	234
1682.09	256
1684.21	262
1686.33	270
1688.44	256
1690.56	276
1692.67	262
1694.78	276
1696.9	262
1699.01	276
1701.12	268
1703.23	282
1705.34	284
1707.45	244
1709.56	276
1711.67	244
1713.78	240
1715.88	254
1717.99	226
1720.1	250
1722.2	238
1724.31	236
1726.41	236
1728.51	234
1730.62	228
1732.72	252
1734.82	260
1736.92	236
1739.02	242
1741.12	232
1743.22	208
1745.32	236
1747.42	228
1749.51	222
1751.61	238
1753.7	232
1755.8	240
1757.89	232
1759.99	248
1762.08	220
1764.17	246
1766.26	258
1768.36	244
1770.45	224
1772.54	246
1774.62	242
1776.71	236
1778.8	224
1780.89	232
1782.98	238
1785.06	254
1787.15	234
1789.23	240
1791.32	238
1793.4	234
1795.48	236
1797.56	228
1799.65	232
1801.73	230
1803.81	234
1805.89	222
1807.97	236
1810.04	222
1812.12	236
1814.2	234
1816.28	222
1818.35	226
1820.43	220
1822.5	244
1824.58	230
1826.65	226
1828.72	238
1830.79	230
1832.86	228
1834.94	228
1837.01	242
1839.08	244
1841.15	232
1843.21	250
1845.28	214
1847.35	230
1849.41	226
1851.48	244
1853.55	240
1855.61	226
1857.67	212
1859.74	242
1861.8	224
1863.86	224
1865.92	236
1867.98	228
1870.05	244
1872.1	236
1874.16	226
1876.22	240
1878.28	220
1880.34	212
1882.39	232
1884.45	224
1886.5	228
1888.56	228
1890.61	234
1892.67	234
1894.72	234
1896.77	228
1898.82	232
1900.87	232
1902.92	232
1904.97	250
1907.02	230
1909.07	222
1911.12	252
1913.17	244
1915.21	248
1917.26	230
1919.3	230
1921.35	220
1923.39	240
1925.43	238
1927.48	240
1929.52	234
1931.56	234
1933.6	224
1935.64	242
1937.68	238
1939.72	206
1941.76	248
1943.8	236
1945.83	244
1947.87	244
1949.91	240
1951.94	226
1953.98	224
1956.01	234
1958.05	228
1960.08	234
1962.11	226
1964.14	230
1966.17	244
1968.2	214
1970.23	214
1972.26	226
1974.29	250
1976.32	248
1978.35	218
1980.37	218
1982.4	224
1984.43	240
1986.45	230
1988.48	242
1990.5	244
1992.52	238
1994.55	218
1996.57	248
1998.59	226
2000.61	218
2002.63	218
2004.65	242
2006.67	222
2008.69	254
2010.7	232
2012.72	226
2014.74	232
2016.75	224
2018.77	224
2020.78	240
2022.8	236
2024.81	222
2026.83	250
2028.84	220
2030.85	242
2032.86	240
2034.87	234
2036.88	224
2038.89	230
2040.9	230
2042.91	218
2044.91	228
2046.92	222
2048.93	228
2050.93	228
2052.94	214
2054.94	224
2056.95	238
2058.95	214
2060.95	244
2062.95	230
2064.96	238
2066.96	228
2068.96	234
2070.96	224
2072.96	234
2074.95	232
2076.95	226
2078.95	226
2080.95	236
2082.94	224
2084.94	220
2086.93	230
2088.93	228
2090.92	212
2092.91	238
2094.91	224
2096.9	236
2098.89	216
2100.88	244
2102.87	246
2104.86	224
2106.85	240
2108.84	238
2110.83	232
2112.81	226
2114.8	226
2116.78	224
2118.77	226
2120.75	208
2122.74	232
2124.72	230
2126.71	236
2128.69	224
2130.67	224
2132.65	250
2134.63	244
2136.61	226
2138.59	224
2140.57	220
2142.55	230
2144.53	240
2146.5	216
2148.48	230
2150.46	238
2152.43	218
2154.41	240
2156.38	238
2158.35	216
2160.33	232
2162.3	228
2164.27	226
2166.24	216
2168.21	240
2170.18	222
2172.15	224
2174.12	214
2176.09	246
2178.06	226
2180.03	240
2181.99	232
2183.96	218
2185.92	226
2187.89	248
2189.85	230
2191.82	234
2193.78	226
2195.74	218
2197.7	240
2199.67	232
2201.63	230
2203.59	224
2205.55	232
2207.51	244
2209.46	226
2211.42	212
2213.38	216
2215.34	218
2217.29	234
2219.25	240
2221.2	222
2223.16	226
2225.11	220
2227.06	238
2229.02	238
2230.97	228
2232.92	246
2234.87	244
2236.82	236
2238.77	240
2240.72	234
2242.67	226
2244.62	234
2246.57	234
2248.51	236
2250.46	214
2252.4	230
2254.35	236
2256.29	222
2258.24	232
2260.18	234
2262.13	234
2264.07	244
2266.01	236
2267.95	236
2269.89	242
2271.83	236
2273.77	246
2275.71	236
2277.65	234
2279.58	244
2281.52	216
2283.46	220
2285.4	212
2287.33	250
2289.27	220
2291.2	244
2293.13	228
2295.07	234
2297	222
2298.93	234
2300.86	212
2302.79	208
2304.72	232
2306.65	224
2308.58	224
2310.51	230
2312.44	244
2314.37	234
2316.29	244
2318.22	222
2320.15	220
2322.07	250
2324	236
2325.92	228
2327.84	240
2329.77	220
2331.69	236
2333.61	224
2335.53	234
2337.45	252
2339.37	262
2341.29	242
2343.21	242
2345.13	222
2347.05	228
2348.97	222
2350.88	232
2352.8	234
2354.71	232
2356.63	226
2358.54	238
2360.46	216
2362.37	240
2364.28	234
2366.2	232
2368.11	220
2370.02	218
2371.93	228
2373.84	240
2375.75	232
2377.66	216
2379.57	236
2381.47	232
2383.38	234
2385.29	228
2387.2	230
2389.1	234
2391.01	228
2392.91	230
2394.81	234
2396.72	232
2398.62	232
2400.52	234
2402.42	228
2404.33	230
2406.23	244
2408.13	234
2410.03	238
2411.92	228
2413.82	232
2415.72	222
2417.62	228
2419.51	224
2421.41	216
2423.31	230
2425.2	224
2427.1	224
2428.99	228
2430.88	214
2432.78	246
2434.67	224
2436.56	226
2438.45	228
2440.34	212
2442.23	218
2444.12	228
2446.01	210
2447.9	236
2449.79	230