File: Mixture_Classification/Jesse_Dataset_v2/Pure Raman/Polypropylene oxide/633nm/ps-ppo-7jan25-0,0000-map2_Y00_X02.txt
182.393	756
184.993	728
187.593	676
190.193	654
192.79	662
195.387	608
197.983	614
200.578	586
203.174	560
205.766	548
208.36	538
210.951	508
213.542	500
216.131	506
218.721	520
221.309	540
223.897	670
226.483	798
229.069	994
231.654	1224
234.238	1342
236.821	1350
239.404	1150
241.984	1064
244.566	922
247.145	812
249.723	684
252.302	588
254.878	518
257.455	448
260.03	424
262.604	358
265.178	358
267.75	324
270.322	318
272.893	326
275.463	306
278.032	342
280.601	332
283.168	374
285.734	420
288.301	502
290.866	572
293.429	660
295.992	692
298.556	680
301.117	604
303.677	514
306.236	532
308.795	458
311.354	448
313.911	428
316.467	404
319.022	396
321.577	412
324.13	400
326.684	418
329.236	462
331.787	436
334.337	454
336.887	434
339.435	432
341.983	408
344.529	380
347.075	380
349.621	392
352.165	386
354.708	412
357.251	380
359.793	376
362.334	354
364.874	332
367.413	368
369.951	380
372.489	374
375.026	356
377.562	364
380.097	300
382.631	314
385.164	280
387.697	274
390.229	306
392.76	266
395.29	266
397.819	290
400.346	290
402.873	286
405.4	276
407.926	318
410.451	352
412.976	396
415.499	400
418.02	400
420.542	366
423.063	318
425.583	268
428.101	268
430.619	270
433.137	268
435.654	242
438.169	230
440.684	222
443.198	220
445.712	204
448.223	218
450.735	202
453.246	210
455.755	212
458.264	216
460.771	220
463.279	224
465.786	270
468.291	278
470.796	312
473.301	334
475.803	390
478.306	446
480.807	500
483.308	550
485.807	594
488.307	500
490.804	380
493.302	340
495.798	294
498.294	266
500.788	274
503.283	262
505.775	252
508.269	296
510.759	364
513.251	444
515.74	430
518.23	330
520.718	304
523.204	336
525.692	384
528.177	458
530.663	514
533.147	660
535.629	746
538.113	836
540.594	814
543.074	772
545.555	630
548.034	514
550.512	430
552.989	422
555.467	478
557.942	544
560.417	792
562.892	1052
565.365	1764
567.838	2816
570.309	3814
572.78	3788
575.251	2698
577.72	1598
580.189	950
582.656	750
585.123	702
587.589	650
590.055	600
592.52	544
594.983	558
597.446	486
599.908	426
602.369	348
604.829	310
607.289	284
609.747	264
612.205	264
614.663	270
617.119	258
619.574	252
622.029	270
624.483	290
626.936	300
629.389	318
631.84	362
634.291	362
636.741	366
639.19	342
641.639	364
644.086	288
646.533	304
648.979	284
651.424	260
653.869	278
656.313	242
658.754	240
661.196	222
663.638	218
666.078	202
668.518	214
670.957	208
673.394	196
675.831	206
678.268	200
680.703	202
683.137	204
685.571	202
688.005	218
690.437	212
692.868	220
695.299	220
697.729	204
700.159	200
702.586	214
705.014	220
707.441	240
709.866	248
712.292	278
714.716	282
717.14	290
719.563	274
721.984	248
724.406	258
726.825	254
729.246	248
731.665	232
734.082	246
736.5	246
738.916	266
741.332	296
743.746	306
746.161	354
748.574	380
750.987	320
753.398	350
755.81	328
758.219	298
760.629	276
763.037	244
765.445	242
767.852	236
770.258	236
772.664	240
775.068	256
777.472	256
779.876	254
782.278	254
784.679	252
787.08	242
789.48	244
791.879	224
794.278	230
796.675	218
799.072	248
801.467	234
803.864	232
806.258	244
808.651	246
811.044	242
813.437	250
815.828	252
818.218	292
820.608	266
822.997	312
825.385	408
827.773	542
830.16	854
832.546	1212
834.931	1146
837.315	702
839.699	456
842.081	336
844.463	310
846.844	320
849.226	320
851.606	278
853.985	286
856.363	276
858.741	284
861.117	256
863.493	258
865.868	260
868.243	266
870.616	242
872.989	228
875.36	234
877.731	224
880.102	230
882.472	234
884.841	232
887.209	222
889.577	198
891.944	216
894.31	222
896.674	222
899.039	216
901.403	216
903.766	210
906.128	222
908.49	224
910.849	224
913.209	226
915.569	218
917.927	224
920.284	214
922.641	232
924.997	230
927.353	230
929.707	238
932.061	248
934.414	258
936.765	246
939.117	272
941.469	302
943.818	274
946.167	334
948.515	370
950.863	472
953.211	592
955.556	766
957.902	900
960.246	1018
962.59	926
964.933	848
967.276	680
969.617	594
971.958	502
974.298	418
976.638	352
978.976	314
981.314	278
983.651	270
985.988	256
988.323	256
990.659	278
992.992	282
995.325	248
997.658	256
999.99	258
1002.32	268
1004.65	242
1006.98	236
1009.31	240
1011.64	240
1013.97	248
1016.29	266
1018.62	290
1020.94	274
1023.27	266
1025.59	300
1027.91	298
1030.24	318
1032.56	340
1034.88	332
1037.2	330
1039.52	326
1041.84	298
1044.15	282
1046.47	290
1048.79	258
1051.1	250
1053.42	240
1055.73	258
1058.04	248
1060.36	238
1062.67	256
1064.98	224
1067.29	240
1069.6	246
1071.91	260
1074.22	232
1076.52	232
1078.83	262
1081.14	242
1083.44	242
1085.75	268
1088.05	258
1090.35	254
1092.65	258
1094.95	260
1097.26	280
1099.56	276
1101.86	302
1104.15	330
1106.45	444
1108.75	612
1111.05	888
1113.34	966
1115.64	758
1117.93	542
1120.22	410
1122.52	354
1124.81	344
1127.1	336
1129.39	300
1131.68	306
1133.97	292
1136.26	274
1138.54	290
1140.83	276
1143.12	284
1145.4	288
1147.69	270
1149.97	268
1152.25	270
1154.54	280
1156.82	312
1159.1	302
1161.38	338
1163.66	348
1165.94	328
1168.22	304
1170.49	282
1172.77	300
1175.05	320
1177.32	368
1179.6	418
1181.87	506
1184.14	638
1186.42	700
1188.69	692
1190.96	570
1193.23	518
1195.5	448
1197.77	472
1200.03	508
1202.3	556
1204.57	510
1206.83	472
1209.1	424
1211.36	352
1213.63	322
1215.89	302
1218.15	280
1220.41	282
1222.67	302
1224.93	332
1227.19	364
1229.45	396
1231.71	386
1233.97	354
1236.22	300
1238.48	304
1240.73	296
1242.99	274
1245.24	280
1247.5	270
1249.75	274
1252	258
1254.25	268
1256.5	268
1258.75	278
1261	278
1263.25	298
1265.49	292
1267.74	294
1269.99	308
1272.23	308
1274.48	312
1276.72	350
1278.96	342
1281.21	384
1283.45	416
1285.69	412
1287.93	434
1290.17	498
1292.41	552
1294.64	650
1296.88	872
1299.12	1190
1301.36	1652
1303.59	2156
1305.82	2274
1308.06	1938
1310.29	1386
1312.52	1004
1314.76	800
1316.99	664
1319.22	624
1321.45	542
1323.68	516
1325.9	514
1328.13	524
1330.36	514
1332.58	462
1334.81	404
1337.04	388
1339.26	396
1341.48	378
1343.71	406
1345.93	416
1348.15	422
1350.37	406
1352.59	424
1354.81	426
1357.03	412
1359.24	374
1361.46	358
1363.68	372
1365.89	372
1368.11	398
1370.32	440
1372.54	592
1374.75	834
1376.96	1068
1379.17	1116
1381.38	1100
1383.59	1000
1385.8	762
1388.01	560
1390.22	440
1392.43	384
1394.63	324
1396.84	320
1399.05	306
1401.25	336
1403.45	322
1405.66	340
1407.86	312
1410.06	340
1412.26	348
1414.46	352
1416.66	360
1418.86	390
1421.06	430
1423.26	474
1425.46	474
1427.65	498
1429.85	492
1432.04	504
1434.24	502
1436.43	524
1438.62	556
1440.82	580
1443.01	542
1445.2	516
1447.39	492
1449.58	446
1451.77	434
1453.95	458
1456.14	426
1458.33	448
1460.52	418
1462.7	430
1464.89	408
1467.07	430
1469.25	418
1471.44	414
1473.62	414
1475.8	394
1477.98	412
1480.16	418
1482.34	404
1484.52	378
1486.7	348
1488.87	348
1491.05	334
1493.23	334
1495.4	340
1497.58	330
1499.75	324
1501.92	302
1504.1	320
1506.27	338
1508.44	330
1510.61	332
1512.78	320
1514.95	332
1517.12	324
1519.28	316
1521.45	340
1523.62	308
1525.78	318
1527.95	320
1530.11	324
1532.28	300
1534.44	306
1536.6	328
1538.76	330
1540.93	308
1543.09	334
1545.25	322
1547.41	336
1549.56	324
1551.72	324
1553.88	338
1556.03	312
1558.19	340
1560.35	330
1562.5	324
1564.65	356
1566.81	332
1568.96	344
1571.11	356
1573.26	384
1575.41	416
1577.56	412
1579.71	466
1581.86	510
1584.01	552
1586.15	672
1588.3	730
1590.45	832
1592.59	958
1594.74	1114
1596.88	1296
1599.02	1450
1601.17	1524
1603.31	1602
1605.45	1446
1607.59	1364
1609.73	1180
1611.87	1050
1614.01	948
1616.14	776
1618.28	652
1620.42	568
1622.55	504
1624.69	458
1626.82	380
1628.96	370
1631.09	358
1633.22	338
1635.36	340
1637.49	314
1639.62	312
1641.75	312
1643.88	302
1646	300
1648.13	290
1650.26	286
1652.39	310
1654.51	278
1656.64	288
1658.76	298
1660.89	276
1663.01	262
1665.13	282
1667.26	270
1669.38	266
1671.5	256
1673.62	268
1675.74	280
1677.86	282
1679.97	274
1682.09	262
1684.21	286
1686.33	280
1688.44	284
1690.56	298
1692.67	286
1694.78	276
1696.9	306
1699.01	292
1701.12	272
1703.23	286
1705.34	296
1707.45	264
1709.56	250
1711.67	296
1713.78	270
1715.88	270
1717.99	260
1720.1	280
1722.2	236
1724.31	268
1726.41	270
1728.51	256
1730.62	244
1732.72	264
1734.82	246
1736.92	270
1739.02	262
1741.12	262
1743.22	256
1745.32	264
1747.42	256
1749.51	246
1751.61	272
1753.7	248
1755.8	238
1757.89	238
1759.99	254
1762.08	254
1764.17	274
1766.26	252
1768.36	234
1770.45	256
1772.54	242
1774.62	266
1776.71	258
1778.8	254
1780.89	266
1782.98	246
1785.06	250
1787.15	254
1789.23	272
1791.32	240
1793.4	258
1795.48	240
1797.56	222
1799.65	262
1801.73	278
1803.81	262
1805.89	244
1807.97	244
1810.04	254
1812.12	268
1814.2	258
1816.28	246
1818.35	258
1820.43	248
1822.5	254
1824.58	254
1826.65	268
1828.72	260
1830.79	250
1832.86	238
1834.94	248
1837.01	230
1839.08	252
1841.15	228
1843.21	252
1845.28	248
1847.35	236
1849.41	256
1851.48	250
1853.55	230
1855.61	248
1857.67	242
1859.74	244
1861.8	254
1863.86	250
1865.92	244
1867.98	248
1870.05	236
1872.1	254
1874.16	228
1876.22	252
1878.28	264
1880.34	254
1882.39	240
1884.45	250
1886.5	256
1888.56	252
1890.61	254
1892.67	268
1894.72	264
1896.77	234
1898.82	240
1900.87	264
1902.92	244
1904.97	256
1907.02	258
1909.07	238
1911.12	262
1913.17	252
1915.21	256
1917.26	258
1919.3	256
1921.35	242
1923.39	252
1925.43	260
1927.48	240
1929.52	250
1931.56	242
1933.6	256
1935.64	272
1937.68	254
1939.72	254
1941.76	258
1943.8	236
1945.83	250
1947.87	250
1949.91	254
1951.94	236
1953.98	252
1956.01	252
1958.05	256
1960.08	228
1962.11	240
1964.14	240
1966.17	252
1968.2	244
1970.23	254
1972.26	246
1974.29	238
1976.32	254
1978.35	244
1980.37	252
1982.4	236
1984.43	254
1986.45	234
1988.48	242
1990.5	244
1992.52	272
1994.55	250
1996.57	244
1998.59	270
2000.61	248
2002.63	240
2004.65	252
2006.67	250
2008.69	242
2010.7	256
2012.72	242
2014.74	254
2016.75	266
2018.77	248
2020.78	248
2022.8	248
2024.81	246
2026.83	238
2028.84	246
2030.85	242
2032.86	250
2034.87	250
2036.88	264
2038.89	226
2040.9	242
2042.91	258
2044.91	252
2046.92	228
2048.93	248
2050.93	246
2052.94	250
2054.94	240
2056.95	242
2058.95	248
2060.95	230
2062.95	258
2064.96	246
2066.96	252
2068.96	250
2070.96	238
2072.96	252
2074.95	254
2076.95	252
2078.95	246
2080.95	250
2082.94	236
2084.94	252
2086.93	240
2088.93	248
2090.92	240
2092.91	246
2094.91	236
2096.9	260
2098.89	238
2100.88	236
2102.87	260
2104.86	242
2106.85	238
2108.84	240
2110.83	236
2112.81	252
2114.8	250
2116.78	254
2118.77	230
2120.75	230
2122.74	238
2124.72	256
2126.71	254
2128.69	240
2130.67	250
2132.65	242
2134.63	232
2136.61	248
2138.59	232
2140.57	238
2142.55	226
2144.53	262
2146.5	256
2148.48	266
2150.46	244
2152.43	248
2154.41	230
2156.38	238
2158.35	236
2160.33	246
2162.3	256
2164.27	238
2166.24	250
2168.21	240
2170.18	244
2172.15	232
2174.12	246
2176.09	242
2178.06	260
2180.03	230
2181.99	240
2183.96	246
2185.92	226
2187.89	234
2189.85	246
2191.82	258
2193.78	220
2195.74	236
2197.7	232
2199.67	246
2201.63	258
2203.59	238
2205.55	224
2207.51	244
2209.46	264
2211.42	234
2213.38	226
2215.34	218
2217.29	240
2219.25	236
2221.2	232
2223.16	246
2225.11	250
2227.06	232
2229.02	278
2230.97	260
2232.92	248
2234.87	236
2236.82	230
2238.77	232
2240.72	232
2242.67	248
2244.62	230
2246.57	240
2248.51	246
2250.46	266
2252.4	240
2254.35	216
2256.29	238
2258.24	248
2260.18	236
2262.13	234
2264.07	230
2266.01	240
2267.95	244
2269.89	228
2271.83	252
2273.77	244
2275.71	256
2277.65	250
2279.58	248
2281.52	244
2283.46	256
2285.4	242
2287.33	214
2289.27	254
2291.2	262
2293.13	242
2295.07	252
2297	246
2298.93	250
2300.86	258
2302.79	228
2304.72	246
2306.65	226
2308.58	250
2310.51	254
2312.44	256
2314.37	244
2316.29	262
2318.22	218
2320.15	272
2322.07	246
2324	264
2325.92	238
2327.84	262
2329.77	244
2331.69	258
2333.61	252
2335.53	236
2337.45	254
2339.37	240
2341.29	230
2343.21	234
2345.13	244
2347.05	242
2348.97	236
2350.88	230
2352.8	228
2354.71	230
2356.63	236
2358.54	246
2360.46	218
2362.37	238
2364.28	230
2366.2	234
2368.11	236
2370.02	238
2371.93	238
2373.84	236
2375.75	246
2377.66	236
2379.57	252
2381.47	252
2383.38	246
2385.29	232
2387.2	240
2389.1	250
2391.01	238
2392.91	222
2394.81	236
2396.72	246
2398.62	252
2400.52	248
2402.42	254
2404.33	264
2406.23	256
2408.13	264
2410.03	240
2411.92	228
2413.82	236
2415.72	236
2417.62	240
2419.51	226
2421.41	248
2423.31	234
2425.2	230
2427.1	222
2428.99	228
2430.88	230
2432.78	246
2434.67	248
2436.56	238
2438.45	244
2440.34	220
2442.23	246
2444.12	234
2446.01	250
2447.9	236
2449.79	226