File: Mixture_Classification/Jesse_Dataset_v2/Pure Raman/Polypropylene oxide/633nm/ps-ppo-7jan25-0,0000-map2_Y04_X00.txt
182.393	758
184.993	704
187.593	654
190.193	630
192.79	598
195.387	602
197.983	606
200.578	558
203.174	538
205.766	540
208.36	536
210.951	536
213.542	486
216.131	480
218.721	496
221.309	562
223.897	614
226.483	752
229.069	916
231.654	1186
234.238	1274
236.821	1322
239.404	1228
241.984	1026
244.566	924
247.145	756
249.723	700
252.302	586
254.878	478
257.455	424
260.03	410
262.604	354
265.178	314
267.75	326
270.322	326
272.893	314
275.463	294
278.032	330
280.601	322
283.168	352
285.734	436
288.301	502
290.866	582
293.429	630
295.992	644
298.556	606
301.117	580
303.677	522
306.236	516
308.795	476
311.354	446
313.911	414
316.467	422
319.022	378
321.577	384
324.13	382
326.684	396
329.236	430
331.787	422
334.337	416
336.887	402
339.435	432
341.983	398
344.529	382
347.075	378
349.621	384
352.165	374
354.708	386
357.251	392
359.793	390
362.334	358
364.874	358
367.413	360
369.951	370
372.489	366
375.026	364
377.562	356
380.097	316
382.631	294
385.164	272
387.697	312
390.229	280
392.76	264
395.29	262
397.819	264
400.346	248
402.873	248
405.4	276
407.926	302
410.451	378
412.976	384
415.499	398
418.02	360
420.542	330
423.063	300
425.583	284
428.101	272
430.619	242
433.137	232
435.654	218
438.169	226
440.684	208
443.198	200
445.712	208
448.223	210
450.735	198
453.246	208
455.755	200
458.264	188
460.771	204
463.279	234
465.786	244
468.291	264
470.796	310
473.301	322
475.803	376
478.306	444
480.807	462
483.308	518
485.807	544
488.307	500
490.804	386
493.302	336
495.798	284
498.294	266
500.788	252
503.283	236
505.775	250
508.269	292
510.759	348
513.251	432
515.74	408
518.23	340
520.718	336
523.204	338
525.692	368
528.177	424
530.663	512
533.147	598
535.629	750
538.113	822
540.594	822
543.074	710
545.555	608
548.034	482
550.512	420
552.989	402
555.467	448
557.942	502
560.417	674
562.892	1064
565.365	1630
567.838	2764
570.309	3822
572.78	3808
575.251	2680
577.72	1606
580.189	982
582.656	740
585.123	674
587.589	648
590.055	586
592.52	548
594.983	560
597.446	464
599.908	418
602.369	328
604.829	274
607.289	266
609.747	262
612.205	242
614.663	262
617.119	244
619.574	270
622.029	268
624.483	278
626.936	308
629.389	316
631.84	344
634.291	362
636.741	328
639.19	334
641.639	316
644.086	302
646.533	266
648.979	266
651.424	256
653.869	248
656.313	222
658.754	234
661.196	208
663.638	214
666.078	218
668.518	210
670.957	190
673.394	208
675.831	192
678.268	214
680.703	188
683.137	192
685.571	212
688.005	194
690.437	202
692.868	182
695.299	208
697.729	204
700.159	186
702.586	214
705.014	214
707.441	226
709.866	238
712.292	250
714.716	272
717.14	284
719.563	268
721.984	224
724.406	256
726.825	246
729.246	242
731.665	228
734.082	256
736.5	254
738.916	268
741.332	264
743.746	314
746.161	362
748.574	370
750.987	340
753.398	340
755.81	296
758.219	284
760.629	238
763.037	248
765.445	224
767.852	236
770.258	226
772.664	236
775.068	238
777.472	260
779.876	264
782.278	240
784.679	246
787.08	232
789.48	244
791.879	232
794.278	216
796.675	232
799.072	220
801.467	228
803.864	230
806.258	250
808.651	232
811.044	244
813.437	236
815.828	246
818.218	244
820.608	266
822.997	306
825.385	384
827.773	518
830.16	814
832.546	1220
834.931	1136
837.315	694
839.699	442
842.081	336
844.463	306
846.844	306
849.226	300
851.606	292
853.985	274
856.363	270
858.741	274
861.117	264
863.493	258
865.868	238
868.243	224
870.616	228
872.989	218
875.36	212
877.731	234
880.102	212
882.472	218
884.841	220
887.209	220
889.577	214
891.944	218
894.31	216
896.674	218
899.039	218
901.403	214
903.766	206
906.128	216
908.49	198
910.849	206
913.209	196
915.569	190
917.927	202
920.284	212
922.641	220
924.997	218
927.353	202
929.707	248
932.061	230
934.414	224
936.765	236
939.117	234
941.469	280
943.818	296
946.167	326
948.515	386
950.863	460
953.211	576
955.556	706
957.902	868
960.246	988
962.59	920
964.933	812
967.276	640
969.617	578
971.958	482
974.298	440
976.638	350
978.976	296
981.314	256
983.651	278
985.988	256
988.323	238
990.659	260
992.992	266
995.325	226
997.658	220
999.99	246
1002.32	230
1004.65	244
1006.98	236
1009.31	234
1011.64	248
1013.97	234
1016.29	244
1018.62	256
1020.94	282
1023.27	292
1025.59	306
1027.91	298
1030.24	304
1032.56	314
1034.88	322
1037.2	320
1039.52	294
1041.84	290
1044.15	268
1046.47	262
1048.79	248
1051.1	248
1053.42	252
1055.73	244
1058.04	220
1060.36	236
1062.67	238
1064.98	238
1067.29	228
1069.6	266
1071.91	250
1074.22	234
1076.52	256
1078.83	232
1081.14	238
1083.44	230
1085.75	252
1088.05	240
1090.35	236
1092.65	258
1094.95	258
1097.26	256
1099.56	250
1101.86	256
1104.15	310
1106.45	444
1108.75	600
1111.05	876
1113.34	968
1115.64	750
1117.93	520
1120.22	408
1122.52	372
1124.81	332
1127.1	294
1129.39	296
1131.68	296
1133.97	286
1136.26	290
1138.54	264
1140.83	282
1143.12	270
1145.4	280
1147.69	270
1149.97	242
1152.25	248
1154.54	262
1156.82	292
1159.1	310
1161.38	292
1163.66	302
1165.94	276
1168.22	270
1170.49	262
1172.77	306
1175.05	326
1177.32	334
1179.6	386
1181.87	506
1184.14	596
1186.42	692
1188.69	670
1190.96	554
1193.23	482
1195.5	462
1197.77	454
1200.03	484
1202.3	526
1204.57	470
1206.83	462
1209.1	386
1211.36	330
1213.63	298
1215.89	280
1218.15	280
1220.41	278
1222.67	282
1224.93	328
1227.19	346
1229.45	390
1231.71	398
1233.97	364
1236.22	272
1238.48	280
1240.73	268
1242.99	268
1245.24	258
1247.5	280
1249.75	268
1252	266
1254.25	248
1256.5	258
1258.75	284
1261	254
1263.25	280
1265.49	266
1267.74	308
1269.99	272
1272.23	306
1274.48	326
1276.72	306
1278.96	318
1281.21	360
1283.45	364
1285.69	420
1287.93	464
1290.17	474
1292.41	520
1294.64	642
1296.88	834
1299.12	1154
1301.36	1618
1303.59	2122
1305.82	2272
1308.06	1860
1310.29	1380
1312.52	948
1314.76	780
1316.99	646
1319.22	604
1321.45	548
1323.68	510
1325.9	508
1328.13	494
1330.36	516
1332.58	440
1334.81	414
1337.04	382
1339.26	384
1341.48	370
1343.71	368
1345.93	404
1348.15	420
1350.37	432
1352.59	412
1354.81	384
1357.03	354
1359.24	358
1361.46	340
1363.68	336
1365.89	338
1368.11	382
1370.32	452
1372.54	594
1374.75	796
1376.96	1040
1379.17	1106
1381.38	1130
1383.59	962
1385.8	762
1388.01	542
1390.22	430
1392.43	350
1394.63	334
1396.84	328
1399.05	320
1401.25	312
1403.45	314
1405.66	300
1407.86	302
1410.06	334
1412.26	338
1414.46	348
1416.66	370
1418.86	386
1421.06	390
1423.26	424
1425.46	460
1427.65	470
1429.85	458
1432.04	478
1434.24	496
1436.43	512
1438.62	538
1440.82	530
1443.01	538
1445.2	510
1447.39	480
1449.58	472
1451.77	444
1453.95	432
1456.14	436
1458.33	414
1460.52	420
1462.7	420
1464.89	392
1467.07	390
1469.25	400
1471.44	382
1473.62	408
1475.8	410
1477.98	382
1480.16	382
1482.34	392
1484.52	344
1486.7	336
1488.87	352
1491.05	318
1493.23	326
1495.4	318
1497.58	320
1499.75	306
1501.92	308
1504.1	306
1506.27	296
1508.44	324
1510.61	288
1512.78	300
1514.95	308
1517.12	312
1519.28	294
1521.45	306
1523.62	302
1525.78	302
1527.95	324
1530.11	318
1532.28	312
1534.44	320
1536.6	292
1538.76	300
1540.93	310
1543.09	312
1545.25	300
1547.41	316
1549.56	306
1551.72	326
1553.88	320
1556.03	324
1558.19	308
1560.35	324
1562.5	326
1564.65	320
1566.81	340
1568.96	340
1571.11	358
1573.26	386
1575.41	408
1577.56	414
1579.71	438
1581.86	472
1584.01	540
1586.15	600
1588.3	694
1590.45	818
1592.59	906
1594.74	1100
1596.88	1278
1599.02	1384
1601.17	1478
1603.31	1546
1605.45	1480
1607.59	1358
1609.73	1210
1611.87	1038
1614.01	912
1616.14	782
1618.28	640
1620.42	554
1622.55	498
1624.69	432
1626.82	428
1628.96	364
1631.09	344
1633.22	326
1635.36	316
1637.49	328
1639.62	316
1641.75	302
1643.88	308
1646	284
1648.13	274
1650.26	272
1652.39	260
1654.51	250
1656.64	282
1658.76	254
1660.89	272
1663.01	290
1665.13	262
1667.26	264
1669.38	272
1671.5	254
1673.62	268
1675.74	272
1677.86	258
1679.97	242
1682.09	252
1684.21	278
1686.33	274
1688.44	262
1690.56	278
1692.67	274
1694.78	284
1696.9	270
1699.01	270
1701.12	294
1703.23	282
1705.34	288
1707.45	272
1709.56	272
1711.67	272
1713.78	270
1715.88	280
1717.99	260
1720.1	254
1722.2	264
1724.31	248
1726.41	256
1728.51	250
1730.62	260
1732.72	238
1734.82	252
1736.92	244
1739.02	238
1741.12	252
1743.22	262
1745.32	244
1747.42	248
1749.51	252
1751.61	252
1753.7	258
1755.8	242
1757.89	260
1759.99	242
1762.08	240
1764.17	238
1766.26	234
1768.36	248
1770.45	254
1772.54	252
1774.62	246
1776.71	246
1778.8	252
1780.89	236
1782.98	254
1785.06	262
1787.15	230
1789.23	242
1791.32	242
1793.4	234
1795.48	238
1797.56	218
1799.65	262
1801.73	248
1803.81	244
1805.89	256
1807.97	258
1810.04	238
1812.12	246
1814.2	250
1816.28	248
1818.35	240
1820.43	240
1822.5	238
1824.58	238
1826.65	250
1828.72	236
1830.79	248
1832.86	242
1834.94	230
1837.01	224
1839.08	230
1841.15	244
1843.21	248
1845.28	254
1847.35	242
1849.41	244
1851.48	242
1853.55	242
1855.61	244
1857.67	244
1859.74	250
1861.8	246
1863.86	240
1865.92	228
1867.98	246
1870.05	236
1872.1	240
1874.16	242
1876.22	256
1878.28	244
1880.34	246
1882.39	250
1884.45	226
1886.5	254
1888.56	242
1890.61	238
1892.67	246
1894.72	240
1896.77	240
1898.82	252
1900.87	246
1902.92	240
1904.97	232
1907.02	242
1909.07	232
1911.12	246
1913.17	264
1915.21	246
1917.26	248
1919.3	242
1921.35	244
1923.39	228
1925.43	228
1927.48	246
1929.52	252
1931.56	240
1933.6	240
1935.64	244
1937.68	238
1939.72	236
1941.76	238
1943.8	242
1945.83	220
1947.87	240
1949.91	230
1951.94	246
1953.98	254
1956.01	242
1958.05	246
1960.08	246
1962.11	252
1964.14	234
1966.17	236
1968.2	240
1970.23	228
1972.26	226
1974.29	244
1976.32	250
1978.35	220
1980.37	244
1982.4	242
1984.43	252
1986.45	236
1988.48	248
1990.5	240
1992.52	252
1994.55	240
1996.57	246
1998.59	244
2000.61	238
2002.63	238
2004.65	238
2006.67	226
2008.69	252
2010.7	232
2012.72	250
2014.74	254
2016.75	240
2018.77	232
2020.78	230
2022.8	254
2024.81	238
2026.83	246
2028.84	240
2030.85	240
2032.86	232
2034.87	250
2036.88	250
2038.89	232
2040.9	244
2042.91	256
2044.91	240
2046.92	260
2048.93	234
2050.93	240
2052.94	234
2054.94	236
2056.95	230
2058.95	260
2060.95	252
2062.95	226
2064.96	252
2066.96	226
2068.96	246
2070.96	250
2072.96	238
2074.95	246
2076.95	250
2078.95	256
2080.95	230
2082.94	226
2084.94	244
2086.93	242
2088.93	248
2090.92	232
2092.91	246
2094.91	242
2096.9	250
2098.89	244
2100.88	234
2102.87	228
2104.86	230
2106.85	234
2108.84	238
2110.83	236
2112.81	234
2114.8	238
2116.78	248
2118.77	234
2120.75	232
2122.74	238
2124.72	236
2126.71	232
2128.69	230
2130.67	244
2132.65	240
2134.63	240
2136.61	236
2138.59	228
2140.57	254
2142.55	234
2144.53	228
2146.5	248
2148.48	250
2150.46	234
2152.43	232
2154.41	236
2156.38	238
2158.35	244
2160.33	234
2162.3	240
2164.27	226
2166.24	244
2168.21	230
2170.18	232
2172.15	226
2174.12	242
2176.09	226
2178.06	238
2180.03	220
2181.99	228
2183.96	230
2185.92	228
2187.89	244
2189.85	236
2191.82	236
2193.78	226
2195.74	242
2197.7	220
2199.67	230
2201.63	230
2203.59	220
2205.55	248
2207.51	230
2209.46	254
2211.42	222
2213.38	238
2215.34	234
2217.29	244
2219.25	228
2221.2	236
2223.16	244
2225.11	212
2227.06	234
2229.02	238
2230.97	234
2232.92	236
2234.87	232
2236.82	238
2238.77	236
2240.72	230
2242.67	224
2244.62	228
2246.57	224
2248.51	254
2250.46	222
2252.4	236
2254.35	230
2256.29	220
2258.24	228
2260.18	232
2262.13	244
2264.07	218
2266.01	238
2267.95	234
2269.89	234
2271.83	228
2273.77	266
2275.71	262
2277.65	232
2279.58	246
2281.52	244
2283.46	244
2285.4	232
2287.33	236
2289.27	238
2291.2	230
2293.13	238
2295.07	222
2297	218
2298.93	218
2300.86	230
2302.79	228
2304.72	228
2306.65	240
2308.58	248
2310.51	240
2312.44	250
2314.37	250
2316.29	244
2318.22	258
2320.15	244
2322.07	256
2324	248
2325.92	254
2327.84	222
2329.77	242
2331.69	242
2333.61	228
2335.53	232
2337.45	242
2339.37	240
2341.29	238
2343.21	236
2345.13	232
2347.05	222
2348.97	246
2350.88	240
2352.8	226
2354.71	230
2356.63	240
2358.54	230
2360.46	244
2362.37	250
2364.28	238
2366.2	214
2368.11	242
2370.02	236
2371.93	224
2373.84	246
2375.75	238
2377.66	240
2379.57	250
2381.47	250
2383.38	230
2385.29	252
2387.2	232
2389.1	258
2391.01	236
2392.91	238
2394.81	242
2396.72	222
2398.62	254
2400.52	238
2402.42	258
2404.33	222
2406.23	242
2408.13	240
2410.03	240
2411.92	238
2413.82	242
2415.72	234
2417.62	220
2419.51	246
2421.41	244
2423.31	232
2425.2	240
2427.1	242
2428.99	232
2430.88	212
2432.78	240
2434.67	232
2436.56	242
2438.45	226
2440.34	218
2442.23	234
2444.12	234
2446.01	230
2447.9	216
2449.79	244