File: Mixture_Classification/Jesse_Dataset_v2/Pure Raman/Polypropylene oxide/633nm/ps-ppo-7jan25-0,0000-map2_Y02_X00.txt
182.393	774
184.993	712
187.593	672
190.193	672
192.79	640
195.387	612
197.983	606
200.578	560
203.174	582
205.766	546
208.36	532
210.951	494
213.542	510
216.131	488
218.721	480
221.309	552
223.897	628
226.483	790
229.069	982
231.654	1218
234.238	1350
236.821	1316
239.404	1230
241.984	1078
244.566	902
247.145	806
249.723	676
252.302	598
254.878	490
257.455	444
260.03	424
262.604	380
265.178	336
267.75	336
270.322	340
272.893	334
275.463	324
278.032	350
280.601	348
283.168	392
285.734	412
288.301	488
290.866	580
293.429	614
295.992	656
298.556	654
301.117	616
303.677	544
306.236	514
308.795	454
311.354	458
313.911	396
316.467	400
319.022	398
321.577	398
324.13	408
326.684	386
329.236	428
331.787	404
334.337	466
336.887	448
339.435	404
341.983	404
344.529	420
347.075	368
349.621	408
352.165	396
354.708	412
357.251	410
359.793	386
362.334	370
364.874	376
367.413	366
369.951	376
372.489	386
375.026	356
377.562	342
380.097	336
382.631	304
385.164	292
387.697	290
390.229	292
392.76	268
395.29	290
397.819	276
400.346	278
402.873	286
405.4	294
407.926	322
410.451	370
412.976	384
415.499	426
418.02	398
420.542	358
423.063	318
425.583	288
428.101	262
430.619	260
433.137	256
435.654	238
438.169	244
440.684	206
443.198	224
445.712	208
448.223	224
450.735	222
453.246	206
455.755	218
458.264	224
460.771	242
463.279	230
465.786	266
468.291	294
470.796	324
473.301	362
475.803	392
478.306	428
480.807	484
483.308	526
485.807	570
488.307	484
490.804	422
493.302	354
495.798	296
498.294	284
500.788	250
503.283	246
505.775	268
508.269	302
510.759	376
513.251	452
515.74	416
518.23	342
520.718	332
523.204	344
525.692	372
528.177	434
530.663	526
533.147	626
535.629	780
538.113	820
540.594	808
543.074	752
545.555	608
548.034	468
550.512	428
552.989	434
555.467	484
557.942	522
560.417	766
562.892	1122
565.365	1718
567.838	2786
570.309	3780
572.78	3822
575.251	2664
577.72	1596
580.189	996
582.656	766
585.123	678
587.589	652
590.055	594
592.52	576
594.983	556
597.446	490
599.908	404
602.369	364
604.829	302
607.289	286
609.747	264
612.205	258
614.663	262
617.119	254
619.574	280
622.029	302
624.483	286
626.936	328
629.389	342
631.84	350
634.291	366
636.741	374
639.19	346
641.639	326
644.086	296
646.533	280
648.979	276
651.424	250
653.869	252
656.313	240
658.754	230
661.196	248
663.638	226
666.078	200
668.518	208
670.957	216
673.394	206
675.831	208
678.268	232
680.703	212
683.137	224
685.571	202
688.005	228
690.437	194
692.868	214
695.299	198
697.729	208
700.159	218
702.586	214
705.014	212
707.441	238
709.866	246
712.292	278
714.716	300
717.14	292
719.563	246
721.984	250
724.406	260
726.825	248
729.246	240
731.665	244
734.082	250
736.5	278
738.916	274
741.332	264
743.746	318
746.161	368
748.574	396
750.987	346
753.398	338
755.81	314
758.219	292
760.629	278
763.037	254
765.445	254
767.852	230
770.258	232
772.664	236
775.068	248
777.472	256
779.876	264
782.278	262
784.679	258
787.08	248
789.48	258
791.879	244
794.278	238
796.675	240
799.072	228
801.467	238
803.864	230
806.258	258
808.651	266
811.044	252
813.437	234
815.828	248
818.218	280
820.608	294
822.997	310
825.385	368
827.773	574
830.16	852
832.546	1216
834.931	1158
837.315	672
839.699	456
842.081	332
844.463	322
846.844	330
849.226	316
851.606	288
853.985	304
856.363	296
858.741	268
861.117	288
863.493	256
865.868	254
868.243	256
870.616	238
872.989	232
875.36	254
877.731	254
880.102	246
882.472	244
884.841	234
887.209	224
889.577	234
891.944	208
894.31	234
896.674	232
899.039	212
901.403	226
903.766	228
906.128	238
908.49	224
910.849	216
913.209	224
915.569	218
917.927	232
920.284	228
922.641	210
924.997	220
927.353	216
929.707	240
932.061	238
934.414	276
936.765	250
939.117	258
941.469	280
943.818	312
946.167	330
948.515	386
950.863	448
953.211	584
955.556	774
957.902	888
960.246	970
962.59	940
964.933	834
967.276	658
969.617	586
971.958	514
974.298	412
976.638	346
978.976	310
981.314	290
983.651	268
985.988	264
988.323	270
990.659	310
992.992	260
995.325	254
997.658	260
999.99	244
1002.32	252
1004.65	260
1006.98	272
1009.31	248
1011.64	236
1013.97	260
1016.29	258
1018.62	272
1020.94	292
1023.27	298
1025.59	290
1027.91	316
1030.24	328
1032.56	330
1034.88	354
1037.2	332
1039.52	324
1041.84	324
1044.15	302
1046.47	264
1048.79	272
1051.1	274
1053.42	270
1055.73	270
1058.04	260
1060.36	228
1062.67	270
1064.98	264
1067.29	254
1069.6	252
1071.91	240
1074.22	238
1076.52	244
1078.83	234
1081.14	274
1083.44	250
1085.75	260
1088.05	270
1090.35	264
1092.65	254
1094.95	270
1097.26	248
1099.56	274
1101.86	302
1104.15	332
1106.45	422
1108.75	632
1111.05	916
1113.34	1000
1115.64	786
1117.93	568
1120.22	444
1122.52	364
1124.81	344
1127.1	320
1129.39	308
1131.68	286
1133.97	308
1136.26	306
1138.54	288
1140.83	300
1143.12	302
1145.4	308
1147.69	274
1149.97	278
1152.25	288
1154.54	294
1156.82	278
1159.1	318
1161.38	322
1163.66	336
1165.94	316
1168.22	306
1170.49	292
1172.77	314
1175.05	328
1177.32	350
1179.6	406
1181.87	508
1184.14	634
1186.42	682
1188.69	662
1190.96	588
1193.23	500
1195.5	518
1197.77	498
1200.03	500
1202.3	530
1204.57	518
1206.83	480
1209.1	416
1211.36	356
1213.63	326
1215.89	282
1218.15	264
1220.41	298
1222.67	282
1224.93	332
1227.19	378
1229.45	392
1231.71	386
1233.97	352
1236.22	340
1238.48	306
1240.73	268
1242.99	266
1245.24	266
1247.5	284
1249.75	280
1252	270
1254.25	270
1256.5	266
1258.75	262
1261	276
1263.25	292
1265.49	308
1267.74	294
1269.99	310
1272.23	302
1274.48	324
1276.72	316
1278.96	356
1281.21	394
1283.45	388
1285.69	440
1287.93	454
1290.17	510
1292.41	566
1294.64	660
1296.88	838
1299.12	1154
1301.36	1682
1303.59	2180
1305.82	2256
1308.06	1918
1310.29	1346
1312.52	992
1314.76	842
1316.99	676
1319.22	616
1321.45	558
1323.68	552
1325.9	514
1328.13	526
1330.36	500
1332.58	466
1334.81	432
1337.04	374
1339.26	386
1341.48	380
1343.71	410
1345.93	406
1348.15	446
1350.37	442
1352.59	438
1354.81	408
1357.03	366
1359.24	350
1361.46	376
1363.68	360
1365.89	372
1368.11	406
1370.32	444
1372.54	606
1374.75	852
1376.96	1026
1379.17	1096
1381.38	1098
1383.59	990
1385.8	754
1388.01	560
1390.22	452
1392.43	358
1394.63	358
1396.84	320
1399.05	342
1401.25	304
1403.45	316
1405.66	326
1407.86	308
1410.06	324
1412.26	354
1414.46	378
1416.66	368
1418.86	412
1421.06	426
1423.26	468
1425.46	492
1427.65	458
1429.85	464
1432.04	492
1434.24	508
1436.43	540
1438.62	554
1440.82	584
1443.01	554
1445.2	534
1447.39	492
1449.58	478
1451.77	436
1453.95	436
1456.14	438
1458.33	430
1460.52	424
1462.7	424
1464.89	448
1467.07	406
1469.25	412
1471.44	404
1473.62	384
1475.8	404
1477.98	390
1480.16	404
1482.34	384
1484.52	378
1486.7	354
1488.87	348
1491.05	336
1493.23	360
1495.4	342
1497.58	316
1499.75	328
1501.92	326
1504.1	312
1506.27	316
1508.44	330
1510.61	342
1512.78	306
1514.95	324
1517.12	300
1519.28	336
1521.45	324
1523.62	296
1525.78	328
1527.95	342
1530.11	322
1532.28	300
1534.44	332
1536.6	342
1538.76	312
1540.93	336
1543.09	304
1545.25	320
1547.41	330
1549.56	334
1551.72	330
1553.88	334
1556.03	320
1558.19	330
1560.35	332
1562.5	316
1564.65	380
1566.81	336
1568.96	362
1571.11	376
1573.26	396
1575.41	400
1577.56	428
1579.71	476
1581.86	512
1584.01	550
1586.15	624
1588.3	716
1590.45	838
1592.59	908
1594.74	1112
1596.88	1326
1599.02	1424
1601.17	1550
1603.31	1514
1605.45	1502
1607.59	1376
1609.73	1172
1611.87	1072
1614.01	928
1616.14	800
1618.28	686
1620.42	582
1622.55	502
1624.69	448
1626.82	398
1628.96	380
1631.09	334
1633.22	350
1635.36	340
1637.49	302
1639.62	310
1641.75	294
1643.88	294
1646	268
1648.13	310
1650.26	270
1652.39	276
1654.51	268
1656.64	302
1658.76	284
1660.89	290
1663.01	286
1665.13	272
1667.26	282
1669.38	280
1671.5	284
1673.62	266
1675.74	288
1677.86	270
1679.97	268
1682.09	240
1684.21	304
1686.33	288
1688.44	290
1690.56	292
1692.67	308
1694.78	290
1696.9	306
1699.01	294
1701.12	270
1703.23	292
1705.34	312
1707.45	296
1709.56	302
1711.67	286
1713.78	302
1715.88	292
1717.99	272
1720.1	272
1722.2	262
1724.31	258
1726.41	268
1728.51	254
1730.62	244
1732.72	256
1734.82	270
1736.92	274
1739.02	274
1741.12	258
1743.22	252
1745.32	258
1747.42	248
1749.51	246
1751.61	260
1753.7	260
1755.8	272
1757.89	246
1759.99	240
1762.08	244
1764.17	264
1766.26	246
1768.36	266
1770.45	250
1772.54	262
1774.62	256
1776.71	272
1778.8	250
1780.89	266
1782.98	262
1785.06	254
1787.15	264
1789.23	274
1791.32	244
1793.4	252
1795.48	268
1797.56	236
1799.65	260
1801.73	246
1803.81	256
1805.89	260
1807.97	256
1810.04	272
1812.12	256
1814.2	260
1816.28	250
1818.35	240
1820.43	266
1822.5	248
1824.58	262
1826.65	240
1828.72	256
1830.79	238
1832.86	246
1834.94	274
1837.01	246
1839.08	244
1841.15	260
1843.21	254
1845.28	244
1847.35	256
1849.41	256
1851.48	250
1853.55	242
1855.61	242
1857.67	244
1859.74	252
1861.8	260
1863.86	228
1865.92	254
1867.98	242
1870.05	254
1872.1	244
1874.16	244
1876.22	264
1878.28	274
1880.34	250
1882.39	254
1884.45	256
1886.5	246
1888.56	246
1890.61	238
1892.67	268
1894.72	258
1896.77	250
1898.82	250
1900.87	254
1902.92	268
1904.97	250
1907.02	274
1909.07	278
1911.12	272
1913.17	246
1915.21	250
1917.26	244
1919.3	254
1921.35	266
1923.39	266
1925.43	262
1927.48	238
1929.52	272
1931.56	226
1933.6	240
1935.64	256
1937.68	266
1939.72	246
1941.76	248
1943.8	250
1945.83	250
1947.87	248
1949.91	240
1951.94	254
1953.98	254
1956.01	234
1958.05	232
1960.08	244
1962.11	248
1964.14	228
1966.17	248
1968.2	254
1970.23	238
1972.26	254
1974.29	246
1976.32	236
1978.35	248
1980.37	246
1982.4	246
1984.43	256
1986.45	238
1988.48	246
1990.5	266
1992.52	254
1994.55	246
1996.57	234
1998.59	262
2000.61	248
2002.63	252
2004.65	230
2006.67	266
2008.69	262
2010.7	270
2012.72	242
2014.74	268
2016.75	258
2018.77	254
2020.78	246
2022.8	252
2024.81	260
2026.83	276
2028.84	246
2030.85	248
2032.86	244
2034.87	258
2036.88	252
2038.89	248
2040.9	252
2042.91	256
2044.91	250
2046.92	258
2048.93	248
2050.93	254
2052.94	244
2054.94	248
2056.95	254
2058.95	266
2060.95	256
2062.95	250
2064.96	256
2066.96	250
2068.96	270
2070.96	266
2072.96	230
2074.95	248
2076.95	254
2078.95	264
2080.95	236
2082.94	248
2084.94	252
2086.93	246
2088.93	244
2090.92	226
2092.91	266
2094.91	250
2096.9	260
2098.89	254
2100.88	246
2102.87	248
2104.86	234
2106.85	250
2108.84	250
2110.83	252
2112.81	234
2114.8	248
2116.78	244
2118.77	240
2120.75	240
2122.74	258
2124.72	230
2126.71	232
2128.69	248
2130.67	252
2132.65	264
2134.63	258
2136.61	248
2138.59	246
2140.57	262
2142.55	252
2144.53	226
2146.5	230
2148.48	240
2150.46	262
2152.43	248
2154.41	240
2156.38	252
2158.35	244
2160.33	262
2162.3	254
2164.27	254
2166.24	242
2168.21	240
2170.18	222
2172.15	242
2174.12	252
2176.09	266
2178.06	232
2180.03	248
2181.99	248
2183.96	240
2185.92	234
2187.89	236
2189.85	254
2191.82	242
2193.78	244
2195.74	258
2197.7	230
2199.67	248
2201.63	238
2203.59	244
2205.55	236
2207.51	244
2209.46	250
2211.42	256
2213.38	244
2215.34	244
2217.29	220
2219.25	234
2221.2	244
2223.16	242
2225.11	244
2227.06	236
2229.02	232
2230.97	254
2232.92	224
2234.87	242
2236.82	226
2238.77	252
2240.72	260
2242.67	246
2244.62	238
2246.57	230
2248.51	244
2250.46	220
2252.4	244
2254.35	230
2256.29	246
2258.24	236
2260.18	230
2262.13	240
2264.07	254
2266.01	236
2267.95	236
2269.89	244
2271.83	242
2273.77	260
2275.71	240
2277.65	246
2279.58	250
2281.52	232
2283.46	254
2285.4	228
2287.33	256
2289.27	234
2291.2	236
2293.13	270
2295.07	236
2297	232
2298.93	228
2300.86	244
2302.79	236
2304.72	262
2306.65	244
2308.58	250
2310.51	240
2312.44	244
2314.37	260
2316.29	242
2318.22	254
2320.15	262
2322.07	250
2324	272
2325.92	252
2327.84	244
2329.77	270
2331.69	228
2333.61	236
2335.53	244
2337.45	252
2339.37	250
2341.29	250
2343.21	248
2345.13	248
2347.05	264
2348.97	242
2350.88	252
2352.8	258
2354.71	254
2356.63	240
2358.54	242
2360.46	248
2362.37	234
2364.28	240
2366.2	246
2368.11	252
2370.02	242
2371.93	240
2373.84	244
2375.75	252
2377.66	250
2379.57	250
2381.47	266
2383.38	222
2385.29	240
2387.2	244
2389.1	234
2391.01	240
2392.91	232
2394.81	238
2396.72	260
2398.62	244
2400.52	226
2402.42	256
2404.33	258
2406.23	246
2408.13	256
2410.03	230
2411.92	230
2413.82	242
2415.72	256
2417.62	234
2419.51	256
2421.41	230
2423.31	240
2425.2	216
2427.1	236
2428.99	228
2430.88	236
2432.78	226
2434.67	240
2436.56	210
2438.45	254
2440.34	244
2442.23	228
2444.12	244
2446.01	218
2447.9	234
2449.79	264