File: Mixture_Classification/Jesse_Dataset_v2/Pure Raman/Polypropylene oxide/633nm/ps-ppo-7jan25-0,0000-map2_Y03_X00.txt
182.393	726
184.993	720
187.593	670
190.193	652
192.79	630
195.387	594
197.983	562
200.578	560
203.174	564
205.766	546
208.36	508
210.951	516
213.542	482
216.131	498
218.721	518
221.309	578
223.897	636
226.483	802
229.069	960
231.654	1196
234.238	1334
236.821	1304
239.404	1222
241.984	1032
244.566	904
247.145	782
249.723	710
252.302	562
254.878	524
257.455	446
260.03	400
262.604	364
265.178	350
267.75	318
270.322	316
272.893	320
275.463	324
278.032	322
280.601	328
283.168	352
285.734	414
288.301	490
290.866	548
293.429	632
295.992	676
298.556	654
301.117	610
303.677	518
306.236	494
308.795	456
311.354	414
313.911	424
316.467	406
319.022	412
321.577	416
324.13	406
326.684	414
329.236	430
331.787	434
334.337	436
336.887	444
339.435	416
341.983	382
344.529	410
347.075	376
349.621	368
352.165	392
354.708	412
357.251	404
359.793	382
362.334	360
364.874	376
367.413	386
369.951	374
372.489	374
375.026	356
377.562	350
380.097	350
382.631	322
385.164	296
387.697	290
390.229	278
392.76	264
395.29	266
397.819	278
400.346	260
402.873	284
405.4	302
407.926	320
410.451	360
412.976	400
415.499	416
418.02	382
420.542	334
423.063	304
425.583	288
428.101	260
430.619	236
433.137	242
435.654	244
438.169	216
440.684	202
443.198	228
445.712	210
448.223	208
450.735	226
453.246	204
455.755	200
458.264	206
460.771	232
463.279	236
465.786	254
468.291	280
470.796	308
473.301	338
475.803	380
478.306	430
480.807	478
483.308	546
485.807	542
488.307	498
490.804	382
493.302	344
495.798	300
498.294	272
500.788	250
503.283	256
505.775	284
508.269	302
510.759	372
513.251	428
515.74	434
518.23	360
520.718	320
523.204	346
525.692	360
528.177	430
530.663	516
533.147	636
535.629	752
538.113	802
540.594	806
543.074	778
545.555	636
548.034	500
550.512	428
552.989	442
555.467	484
557.942	550
560.417	748
562.892	1084
565.365	1768
567.838	2778
570.309	3878
572.78	3734
575.251	2704
577.72	1590
580.189	970
582.656	736
585.123	688
587.589	650
590.055	592
592.52	566
594.983	518
597.446	468
599.908	422
602.369	370
604.829	324
607.289	280
609.747	256
612.205	248
614.663	254
617.119	266
619.574	262
622.029	274
624.483	296
626.936	314
629.389	334
631.84	370
634.291	352
636.741	352
639.19	362
641.639	324
644.086	304
646.533	292
648.979	270
651.424	258
653.869	254
656.313	258
658.754	224
661.196	240
663.638	220
666.078	200
668.518	204
670.957	196
673.394	216
675.831	192
678.268	198
680.703	212
683.137	202
685.571	210
688.005	212
690.437	200
692.868	212
695.299	200
697.729	220
700.159	194
702.586	202
705.014	224
707.441	222
709.866	226
712.292	252
714.716	284
717.14	298
719.563	270
721.984	250
724.406	242
726.825	236
729.246	240
731.665	232
734.082	262
736.5	256
738.916	290
741.332	282
743.746	306
746.161	360
748.574	370
750.987	338
753.398	326
755.81	316
758.219	296
760.629	276
763.037	268
765.445	238
767.852	224
770.258	232
772.664	250
775.068	240
777.472	262
779.876	256
782.278	240
784.679	254
787.08	254
789.48	230
791.879	238
794.278	222
796.675	236
799.072	234
801.467	236
803.864	260
806.258	230
808.651	268
811.044	246
813.437	246
815.828	264
818.218	236
820.608	292
822.997	326
825.385	402
827.773	542
830.16	848
832.546	1254
834.931	1106
837.315	756
839.699	442
842.081	344
844.463	308
846.844	316
849.226	302
851.606	288
853.985	294
856.363	294
858.741	268
861.117	286
863.493	264
865.868	242
868.243	228
870.616	218
872.989	226
875.36	224
877.731	232
880.102	240
882.472	222
884.841	230
887.209	220
889.577	198
891.944	212
894.31	210
896.674	216
899.039	212
901.403	214
903.766	222
906.128	222
908.49	218
910.849	214
913.209	216
915.569	214
917.927	208
920.284	220
922.641	220
924.997	216
927.353	236
929.707	218
932.061	244
934.414	234
936.765	232
939.117	256
941.469	274
943.818	282
946.167	298
948.515	394
950.863	486
953.211	594
955.556	750
957.902	890
960.246	940
962.59	968
964.933	784
967.276	686
969.617	570
971.958	464
974.298	420
976.638	354
978.976	314
981.314	278
983.651	282
985.988	250
988.323	268
990.659	256
992.992	274
995.325	252
997.658	244
999.99	250
1002.32	236
1004.65	232
1006.98	266
1009.31	236
1011.64	230
1013.97	254
1016.29	268
1018.62	262
1020.94	294
1023.27	284
1025.59	296
1027.91	310
1030.24	326
1032.56	324
1034.88	310
1037.2	320
1039.52	312
1041.84	306
1044.15	290
1046.47	266
1048.79	278
1051.1	264
1053.42	252
1055.73	244
1058.04	254
1060.36	230
1062.67	242
1064.98	252
1067.29	244
1069.6	228
1071.91	240
1074.22	230
1076.52	248
1078.83	226
1081.14	222
1083.44	230
1085.75	258
1088.05	242
1090.35	268
1092.65	240
1094.95	250
1097.26	258
1099.56	286
1101.86	296
1104.15	338
1106.45	412
1108.75	632
1111.05	904
1113.34	944
1115.64	782
1117.93	546
1120.22	424
1122.52	364
1124.81	346
1127.1	328
1129.39	298
1131.68	314
1133.97	302
1136.26	284
1138.54	290
1140.83	284
1143.12	312
1145.4	264
1147.69	248
1149.97	262
1152.25	270
1154.54	286
1156.82	302
1159.1	312
1161.38	332
1163.66	312
1165.94	300
1168.22	302
1170.49	282
1172.77	308
1175.05	326
1177.32	334
1179.6	404
1181.87	494
1184.14	596
1186.42	692
1188.69	612
1190.96	564
1193.23	532
1195.5	468
1197.77	462
1200.03	500
1202.3	508
1204.57	502
1206.83	478
1209.1	422
1211.36	348
1213.63	294
1215.89	288
1218.15	298
1220.41	288
1222.67	302
1224.93	316
1227.19	378
1229.45	376
1231.71	398
1233.97	370
1236.22	324
1238.48	282
1240.73	258
1242.99	274
1245.24	294
1247.5	258
1249.75	274
1252	276
1254.25	268
1256.5	276
1258.75	270
1261	300
1263.25	280
1265.49	286
1267.74	284
1269.99	304
1272.23	298
1274.48	300
1276.72	324
1278.96	320
1281.21	394
1283.45	432
1285.69	436
1287.93	450
1290.17	512
1292.41	574
1294.64	660
1296.88	824
1299.12	1172
1301.36	1652
1303.59	2062
1305.82	2304
1308.06	1914
1310.29	1356
1312.52	1018
1314.76	782
1316.99	654
1319.22	574
1321.45	572
1323.68	540
1325.9	512
1328.13	510
1330.36	492
1332.58	438
1334.81	408
1337.04	384
1339.26	370
1341.48	394
1343.71	398
1345.93	420
1348.15	422
1350.37	430
1352.59	424
1354.81	406
1357.03	356
1359.24	344
1361.46	370
1363.68	354
1365.89	376
1368.11	404
1370.32	444
1372.54	608
1374.75	810
1376.96	1030
1379.17	1110
1381.38	1096
1383.59	968
1385.8	790
1388.01	576
1390.22	430
1392.43	390
1394.63	340
1396.84	348
1399.05	310
1401.25	316
1403.45	328
1405.66	316
1407.86	324
1410.06	338
1412.26	340
1414.46	354
1416.66	360
1418.86	388
1421.06	420
1423.26	436
1425.46	446
1427.65	492
1429.85	468
1432.04	504
1434.24	512
1436.43	536
1438.62	546
1440.82	572
1443.01	550
1445.2	506
1447.39	524
1449.58	464
1451.77	432
1453.95	420
1456.14	428
1458.33	440
1460.52	436
1462.7	400
1464.89	414
1467.07	418
1469.25	414
1471.44	408
1473.62	400
1475.8	430
1477.98	408
1480.16	390
1482.34	398
1484.52	364
1486.7	372
1488.87	364
1491.05	332
1493.23	324
1495.4	332
1497.58	326
1499.75	310
1501.92	332
1504.1	328
1506.27	310
1508.44	322
1510.61	322
1512.78	304
1514.95	304
1517.12	308
1519.28	328
1521.45	318
1523.62	304
1525.78	328
1527.95	316
1530.11	306
1532.28	318
1534.44	330
1536.6	326
1538.76	332
1540.93	318
1543.09	314
1545.25	320
1547.41	334
1549.56	360
1551.72	332
1553.88	340
1556.03	324
1558.19	316
1560.35	334
1562.5	320
1564.65	340
1566.81	336
1568.96	366
1571.11	374
1573.26	368
1575.41	410
1577.56	454
1579.71	460
1581.86	486
1584.01	542
1586.15	622
1588.3	696
1590.45	818
1592.59	940
1594.74	1096
1596.88	1328
1599.02	1396
1601.17	1512
1603.31	1524
1605.45	1440
1607.59	1336
1609.73	1256
1611.87	1020
1614.01	886
1616.14	772
1618.28	634
1620.42	564
1622.55	502
1624.69	462
1626.82	432
1628.96	384
1631.09	370
1633.22	354
1635.36	338
1637.49	304
1639.62	290
1641.75	320
1643.88	314
1646	330
1648.13	298
1650.26	278
1652.39	296
1654.51	290
1656.64	292
1658.76	278
1660.89	272
1663.01	274
1665.13	268
1667.26	266
1669.38	274
1671.5	260
1673.62	276
1675.74	254
1677.86	276
1679.97	284
1682.09	270
1684.21	278
1686.33	280
1688.44	300
1690.56	276
1692.67	274
1694.78	302
1696.9	296
1699.01	290
1701.12	282
1703.23	278
1705.34	270
1707.45	298
1709.56	264
1711.67	298
1713.78	292
1715.88	268
1717.99	262
1720.1	268
1722.2	264
1724.31	268
1726.41	268
1728.51	274
1730.62	282
1732.72	252
1734.82	244
1736.92	264
1739.02	260
1741.12	256
1743.22	256
1745.32	258
1747.42	262
1749.51	266
1751.61	280
1753.7	240
1755.8	258
1757.89	254
1759.99	240
1762.08	256
1764.17	240
1766.26	264
1768.36	266
1770.45	244
1772.54	248
1774.62	254
1776.71	268
1778.8	260
1780.89	260
1782.98	258
1785.06	250
1787.15	266
1789.23	244
1791.32	264
1793.4	268
1795.48	266
1797.56	256
1799.65	246
1801.73	268
1803.81	246
1805.89	240
1807.97	270
1810.04	256
1812.12	250
1814.2	238
1816.28	264
1818.35	260
1820.43	244
1822.5	230
1824.58	244
1826.65	258
1828.72	256
1830.79	244
1832.86	248
1834.94	246
1837.01	240
1839.08	250
1841.15	260
1843.21	240
1845.28	250
1847.35	242
1849.41	238
1851.48	252
1853.55	252
1855.61	252
1857.67	240
1859.74	242
1861.8	248
1863.86	244
1865.92	250
1867.98	222
1870.05	252
1872.1	252
1874.16	252
1876.22	244
1878.28	248
1880.34	258
1882.39	248
1884.45	254
1886.5	248
1888.56	230
1890.61	242
1892.67	246
1894.72	252
1896.77	260
1898.82	246
1900.87	242
1902.92	250
1904.97	244
1907.02	244
1909.07	244
1911.12	244
1913.17	250
1915.21	238
1917.26	254
1919.3	270
1921.35	264
1923.39	244
1925.43	266
1927.48	250
1929.52	258
1931.56	242
1933.6	254
1935.64	242
1937.68	246
1939.72	240
1941.76	242
1943.8	256
1945.83	252
1947.87	262
1949.91	240
1951.94	244
1953.98	242
1956.01	250
1958.05	244
1960.08	238
1962.11	260
1964.14	254
1966.17	250
1968.2	248
1970.23	236
1972.26	266
1974.29	246
1976.32	236
1978.35	236
1980.37	244
1982.4	248
1984.43	236
1986.45	228
1988.48	244
1990.5	244
1992.52	236
1994.55	252
1996.57	264
1998.59	254
2000.61	246
2002.63	246
2004.65	246
2006.67	242
2008.69	250
2010.7	242
2012.72	252
2014.74	274
2016.75	254
2018.77	262
2020.78	250
2022.8	264
2024.81	282
2026.83	258
2028.84	240
2030.85	252
2032.86	244
2034.87	270
2036.88	262
2038.89	238
2040.9	218
2042.91	224
2044.91	244
2046.92	268
2048.93	250
2050.93	248
2052.94	254
2054.94	250
2056.95	260
2058.95	240
2060.95	240
2062.95	260
2064.96	250
2066.96	252
2068.96	258
2070.96	254
2072.96	262
2074.95	238
2076.95	248
2078.95	248
2080.95	240
2082.94	250
2084.94	240
2086.93	248
2088.93	262
2090.92	256
2092.91	258
2094.91	250
2096.9	248
2098.89	234
2100.88	252
2102.87	244
2104.86	258
2106.85	246
2108.84	258
2110.83	244
2112.81	258
2114.8	244
2116.78	228
2118.77	254
2120.75	240
2122.74	236
2124.72	232
2126.71	218
2128.69	242
2130.67	248
2132.65	254
2134.63	248
2136.61	248
2138.59	244
2140.57	244
2142.55	240
2144.53	256
2146.5	248
2148.48	248
2150.46	252
2152.43	216
2154.41	244
2156.38	248
2158.35	234
2160.33	244
2162.3	242
2164.27	230
2166.24	236
2168.21	244
2170.18	248
2172.15	250
2174.12	232
2176.09	244
2178.06	240
2180.03	260
2181.99	244
2183.96	252
2185.92	246
2187.89	248
2189.85	232
2191.82	246
2193.78	258
2195.74	246
2197.7	228
2199.67	252
2201.63	224
2203.59	250
2205.55	244
2207.51	216
2209.46	236
2211.42	232
2213.38	230
2215.34	234
2217.29	224
2219.25	226
2221.2	230
2223.16	250
2225.11	240
2227.06	256
2229.02	256
2230.97	234
2232.92	222
2234.87	230
2236.82	230
2238.77	244
2240.72	236
2242.67	240
2244.62	228
2246.57	248
2248.51	236
2250.46	254
2252.4	228
2254.35	252
2256.29	236
2258.24	246
2260.18	252
2262.13	248
2264.07	232
2266.01	234
2267.95	252
2269.89	250
2271.83	234
2273.77	242
2275.71	230
2277.65	246
2279.58	244
2281.52	248
2283.46	242
2285.4	256
2287.33	252
2289.27	242
2291.2	244
2293.13	252
2295.07	242
2297	238
2298.93	264
2300.86	238
2302.79	232
2304.72	238
2306.65	256
2308.58	232
2310.51	238
2312.44	250
2314.37	256
2316.29	244
2318.22	234
2320.15	234
2322.07	248
2324	246
2325.92	248
2327.84	250
2329.77	228
2331.69	250
2333.61	248
2335.53	256
2337.45	260
2339.37	238
2341.29	242
2343.21	248
2345.13	226
2347.05	248
2348.97	240
2350.88	252
2352.8	222
2354.71	240
2356.63	240
2358.54	234
2360.46	234
2362.37	230
2364.28	244
2366.2	228
2368.11	242
2370.02	260
2371.93	238
2373.84	262
2375.75	242
2377.66	238
2379.57	258
2381.47	250
2383.38	240
2385.29	230
2387.2	242
2389.1	252
2391.01	248
2392.91	274
2394.81	240
2396.72	242
2398.62	248
2400.52	248
2402.42	244
2404.33	228
2406.23	246
2408.13	252
2410.03	260
2411.92	242
2413.82	240
2415.72	252
2417.62	244
2419.51	236
2421.41	262
2423.31	246
2425.2	232
2427.1	240
2428.99	244
2430.88	232
2432.78	236
2434.67	248
2436.56	264
2438.45	226
2440.34	224
2442.23	226
2444.12	242
2446.01	228
2447.9	244
2449.79	234