File: Mixture_Classification/Jesse_Dataset_v2/Pure Raman/Polypropylene oxide/633nm/ps-ppo-7jan25-0,0000-map2_Y06_X05.txt
182.393	692
184.993	674
187.593	640
190.193	618
192.79	574
195.387	572
197.983	518
200.578	508
203.174	504
205.766	532
208.36	492
210.951	454
213.542	454
216.131	440
218.721	456
221.309	522
223.897	580
226.483	704
229.069	914
231.654	1170
234.238	1220
236.821	1222
239.404	1106
241.984	982
244.566	814
247.145	722
249.723	652
252.302	520
254.878	476
257.455	390
260.03	352
262.604	328
265.178	320
267.75	296
270.322	296
272.893	274
275.463	278
278.032	304
280.601	304
283.168	336
285.734	394
288.301	444
290.866	512
293.429	588
295.992	620
298.556	608
301.117	538
303.677	500
306.236	448
308.795	418
311.354	398
313.911	366
316.467	394
319.022	350
321.577	338
324.13	344
326.684	390
329.236	380
331.787	402
334.337	402
336.887	388
339.435	372
341.983	364
344.529	356
347.075	330
349.621	360
352.165	334
354.708	360
357.251	348
359.793	322
362.334	334
364.874	310
367.413	322
369.951	306
372.489	314
375.026	342
377.562	306
380.097	280
382.631	260
385.164	246
387.697	240
390.229	234
392.76	224
395.29	234
397.819	220
400.346	236
402.873	232
405.4	234
407.926	258
410.451	328
412.976	348
415.499	362
418.02	340
420.542	310
423.063	268
425.583	236
428.101	230
430.619	208
433.137	196
435.654	176
438.169	192
440.684	158
443.198	166
445.712	158
448.223	158
450.735	172
453.246	176
455.755	174
458.264	158
460.771	168
463.279	180
465.786	218
468.291	226
470.796	264
473.301	296
475.803	344
478.306	408
480.807	428
483.308	476
485.807	490
488.307	440
490.804	346
493.302	308
495.798	284
498.294	222
500.788	224
503.283	216
505.775	232
508.269	256
510.759	320
513.251	384
515.74	364
518.23	314
520.718	292
523.204	294
525.692	312
528.177	376
530.663	470
533.147	554
535.629	716
538.113	782
540.594	790
543.074	650
545.555	578
548.034	442
550.512	380
552.989	386
555.467	420
557.942	504
560.417	668
562.892	998
565.365	1584
567.838	2618
570.309	3582
572.78	3692
575.251	2598
577.72	1536
580.189	930
582.656	702
585.123	626
587.589	584
590.055	520
592.52	514
594.983	480
597.446	456
599.908	358
602.369	310
604.829	270
607.289	248
609.747	204
612.205	202
614.663	204
617.119	214
619.574	220
622.029	234
624.483	236
626.936	258
629.389	278
631.84	284
634.291	314
636.741	318
639.19	302
641.639	278
644.086	276
646.533	242
648.979	232
651.424	204
653.869	204
656.313	198
658.754	186
661.196	154
663.638	186
666.078	166
668.518	170
670.957	160
673.394	158
675.831	148
678.268	158
680.703	162
683.137	164
685.571	160
688.005	152
690.437	158
692.868	148
695.299	166
697.729	150
700.159	156
702.586	178
705.014	156
707.441	184
709.866	214
712.292	204
714.716	252
717.14	224
719.563	212
721.984	208
724.406	192
726.825	206
729.246	210
731.665	206
734.082	204
736.5	222
738.916	220
741.332	234
743.746	266
746.161	302
748.574	318
750.987	320
753.398	266
755.81	290
758.219	256
760.629	210
763.037	182
765.445	190
767.852	186
770.258	190
772.664	172
775.068	182
777.472	216
779.876	224
782.278	224
784.679	198
787.08	194
789.48	190
791.879	180
794.278	182
796.675	182
799.072	176
801.467	182
803.864	198
806.258	198
808.651	204
811.044	212
813.437	196
815.828	212
818.218	216
820.608	248
822.997	236
825.385	354
827.773	468
830.16	740
832.546	1096
834.931	1090
837.315	626
839.699	394
842.081	304
844.463	254
846.844	256
849.226	260
851.606	254
853.985	236
856.363	230
858.741	220
861.117	218
863.493	218
865.868	188
868.243	188
870.616	178
872.989	182
875.36	186
877.731	186
880.102	174
882.472	182
884.841	162
887.209	166
889.577	184
891.944	166
894.31	174
896.674	188
899.039	162
901.403	162
903.766	178
906.128	172
908.49	170
910.849	166
913.209	166
915.569	160
917.927	176
920.284	174
922.641	162
924.997	176
927.353	174
929.707	174
932.061	182
934.414	184
936.765	190
939.117	220
941.469	230
943.818	226
946.167	290
948.515	328
950.863	426
953.211	512
955.556	676
957.902	796
960.246	900
962.59	884
964.933	762
967.276	612
969.617	542
971.958	454
974.298	372
976.638	302
978.976	268
981.314	244
983.651	216
985.988	204
988.323	208
990.659	228
992.992	226
995.325	208
997.658	190
999.99	200
1002.32	176
1004.65	212
1006.98	190
1009.31	190
1011.64	184
1013.97	208
1016.29	212
1018.62	202
1020.94	210
1023.27	246
1025.59	250
1027.91	256
1030.24	272
1032.56	308
1034.88	270
1037.2	268
1039.52	264
1041.84	258
1044.15	244
1046.47	230
1048.79	220
1051.1	192
1053.42	196
1055.73	206
1058.04	204
1060.36	208
1062.67	192
1064.98	198
1067.29	188
1069.6	188
1071.91	202
1074.22	188
1076.52	186
1078.83	200
1081.14	188
1083.44	194
1085.75	200
1088.05	194
1090.35	204
1092.65	216
1094.95	196
1097.26	206
1099.56	228
1101.86	230
1104.15	268
1106.45	348
1108.75	600
1111.05	826
1113.34	908
1115.64	722
1117.93	510
1120.22	372
1122.52	336
1124.81	284
1127.1	290
1129.39	236
1131.68	244
1133.97	244
1136.26	238
1138.54	238
1140.83	258
1143.12	254
1145.4	230
1147.69	222
1149.97	234
1152.25	214
1154.54	244
1156.82	238
1159.1	252
1161.38	264
1163.66	278
1165.94	250
1168.22	238
1170.49	244
1172.77	270
1175.05	282
1177.32	310
1179.6	322
1181.87	428
1184.14	554
1186.42	596
1188.69	580
1190.96	498
1193.23	444
1195.5	414
1197.77	424
1200.03	438
1202.3	470
1204.57	462
1206.83	410
1209.1	348
1211.36	284
1213.63	258
1215.89	248
1218.15	228
1220.41	228
1222.67	264
1224.93	260
1227.19	300
1229.45	330
1231.71	332
1233.97	298
1236.22	282
1238.48	244
1240.73	238
1242.99	226
1245.24	222
1247.5	224
1249.75	238
1252	216
1254.25	224
1256.5	214
1258.75	242
1261	226
1263.25	242
1265.49	240
1267.74	238
1269.99	250
1272.23	244
1274.48	278
1276.72	278
1278.96	302
1281.21	306
1283.45	346
1285.69	396
1287.93	400
1290.17	422
1292.41	490
1294.64	600
1296.88	752
1299.12	1078
1301.36	1558
1303.59	2014
1305.82	2238
1308.06	1884
1310.29	1294
1312.52	932
1314.76	762
1316.99	600
1319.22	528
1321.45	468
1323.68	472
1325.9	464
1328.13	472
1330.36	442
1332.58	396
1334.81	354
1337.04	346
1339.26	340
1341.48	352
1343.71	340
1345.93	360
1348.15	366
1350.37	366
1352.59	372
1354.81	354
1357.03	342
1359.24	314
1361.46	332
1363.68	302
1365.89	326
1368.11	344
1370.32	392
1372.54	546
1374.75	752
1376.96	968
1379.17	1006
1381.38	1040
1383.59	892
1385.8	724
1388.01	546
1390.22	414
1392.43	308
1394.63	276
1396.84	284
1399.05	280
1401.25	270
1403.45	258
1405.66	270
1407.86	298
1410.06	288
1412.26	274
1414.46	298
1416.66	316
1418.86	354
1421.06	372
1423.26	416
1425.46	372
1427.65	406
1429.85	450
1432.04	414
1434.24	468
1436.43	482
1438.62	506
1440.82	488
1443.01	466
1445.2	466
1447.39	444
1449.58	416
1451.77	402
1453.95	390
1456.14	384
1458.33	362
1460.52	366
1462.7	382
1464.89	380
1467.07	340
1469.25	348
1471.44	344
1473.62	340
1475.8	360
1477.98	344
1480.16	354
1482.34	330
1484.52	334
1486.7	324
1488.87	306
1491.05	298
1493.23	282
1495.4	264
1497.58	270
1499.75	278
1501.92	278
1504.1	276
1506.27	288
1508.44	256
1510.61	268
1512.78	278
1514.95	264
1517.12	268
1519.28	254
1521.45	254
1523.62	266
1525.78	246
1527.95	272
1530.11	272
1532.28	290
1534.44	254
1536.6	244
1538.76	288
1540.93	298
1543.09	266
1545.25	290
1547.41	256
1549.56	264
1551.72	276
1553.88	292
1556.03	278
1558.19	272
1560.35	294
1562.5	304
1564.65	306
1566.81	294
1568.96	298
1571.11	302
1573.26	346
1575.41	354
1577.56	402
1579.71	386
1581.86	416
1584.01	490
1586.15	558
1588.3	610
1590.45	754
1592.59	874
1594.74	1044
1596.88	1180
1599.02	1290
1601.17	1446
1603.31	1478
1605.45	1372
1607.59	1256
1609.73	1122
1611.87	988
1614.01	868
1616.14	748
1618.28	618
1620.42	516
1622.55	442
1624.69	404
1626.82	386
1628.96	326
1631.09	304
1633.22	318
1635.36	276
1637.49	276
1639.62	260
1641.75	252
1643.88	252
1646	240
1648.13	252
1650.26	250
1652.39	242
1654.51	240
1656.64	234
1658.76	234
1660.89	220
1663.01	222
1665.13	228
1667.26	240
1669.38	226
1671.5	208
1673.62	232
1675.74	222
1677.86	232
1679.97	220
1682.09	222
1684.21	228
1686.33	234
1688.44	224
1690.56	236
1692.67	242
1694.78	246
1696.9	244
1699.01	228
1701.12	248
1703.23	230
1705.34	254
1707.45	250
1709.56	232
1711.67	228
1713.78	252
1715.88	224
1717.99	220
1720.1	228
1722.2	212
1724.31	220
1726.41	206
1728.51	200
1730.62	214
1732.72	204
1734.82	200
1736.92	206
1739.02	220
1741.12	208
1743.22	208
1745.32	194
1747.42	208
1749.51	202
1751.61	196
1753.7	200
1755.8	214
1757.89	196
1759.99	220
1762.08	202
1764.17	224
1766.26	214
1768.36	200
1770.45	220
1772.54	210
1774.62	210
1776.71	226
1778.8	206
1780.89	208
1782.98	206
1785.06	202
1787.15	220
1789.23	200
1791.32	202
1793.4	196
1795.48	210
1797.56	194
1799.65	208
1801.73	214
1803.81	208
1805.89	228
1807.97	224
1810.04	228
1812.12	218
1814.2	202
1816.28	216
1818.35	194
1820.43	198
1822.5	198
1824.58	194
1826.65	204
1828.72	214
1830.79	204
1832.86	206
1834.94	198
1837.01	202
1839.08	202
1841.15	202
1843.21	204
1845.28	210
1847.35	196
1849.41	204
1851.48	222
1853.55	214
1855.61	196
1857.67	204
1859.74	194
1861.8	200
1863.86	198
1865.92	214
1867.98	194
1870.05	212
1872.1	220
1874.16	206
1876.22	208
1878.28	200
1880.34	194
1882.39	212
1884.45	204
1886.5	210
1888.56	204
1890.61	220
1892.67	194
1894.72	202
1896.77	226
1898.82	206
1900.87	214
1902.92	198
1904.97	208
1907.02	204
1909.07	234
1911.12	212
1913.17	218
1915.21	218
1917.26	206
1919.3	200
1921.35	222
1923.39	228
1925.43	218
1927.48	204
1929.52	210
1931.56	212
1933.6	210
1935.64	226
1937.68	210
1939.72	208
1941.76	204
1943.8	208
1945.83	208
1947.87	208
1949.91	206
1951.94	208
1953.98	216
1956.01	192
1958.05	214
1960.08	212
1962.11	188
1964.14	204
1966.17	212
1968.2	212
1970.23	206
1972.26	208
1974.29	214
1976.32	200
1978.35	198
1980.37	184
1982.4	214
1984.43	196
1986.45	214
1988.48	212
1990.5	208
1992.52	218
1994.55	206
1996.57	200
1998.59	222
2000.61	212
2002.63	192
2004.65	200
2006.67	204
2008.69	212
2010.7	192
2012.72	204
2014.74	210
2016.75	210
2018.77	212
2020.78	210
2022.8	222
2024.81	212
2026.83	206
2028.84	216
2030.85	222
2032.86	202
2034.87	218
2036.88	202
2038.89	208
2040.9	208
2042.91	192
2044.91	208
2046.92	212
2048.93	208
2050.93	196
2052.94	214
2054.94	218
2056.95	200
2058.95	218
2060.95	216
2062.95	204
2064.96	188
2066.96	210
2068.96	210
2070.96	208
2072.96	212
2074.95	210
2076.95	198
2078.95	228
2080.95	204
2082.94	208
2084.94	212
2086.93	208
2088.93	204
2090.92	210
2092.91	206
2094.91	202
2096.9	218
2098.89	202
2100.88	214
2102.87	212
2104.86	218
2106.85	202
2108.84	188
2110.83	208
2112.81	216
2114.8	210
2116.78	206
2118.77	190
2120.75	214
2122.74	206
2124.72	216
2126.71	202
2128.69	210
2130.67	206
2132.65	198
2134.63	204
2136.61	216
2138.59	212
2140.57	218
2142.55	196
2144.53	210
2146.5	206
2148.48	200
2150.46	208
2152.43	200
2154.41	196
2156.38	202
2158.35	198
2160.33	214
2162.3	178
2164.27	202
2166.24	216
2168.21	202
2170.18	206
2172.15	186
2174.12	206
2176.09	232
2178.06	206
2180.03	204
2181.99	212
2183.96	192
2185.92	220
2187.89	212
2189.85	194
2191.82	212
2193.78	222
2195.74	204
2197.7	194
2199.67	196
2201.63	200
2203.59	210
2205.55	192
2207.51	198
2209.46	198
2211.42	198
2213.38	198
2215.34	204
2217.29	198
2219.25	206
2221.2	200
2223.16	182
2225.11	200
2227.06	192
2229.02	208
2230.97	196
2232.92	206
2234.87	208
2236.82	220
2238.77	202
2240.72	222
2242.67	200
2244.62	192
2246.57	220
2248.51	212
2250.46	214
2252.4	208
2254.35	206
2256.29	210
2258.24	212
2260.18	208
2262.13	210
2264.07	198
2266.01	200
2267.95	204
2269.89	196
2271.83	198
2273.77	216
2275.71	202
2277.65	212
2279.58	208
2281.52	210
2283.46	212
2285.4	200
2287.33	222
2289.27	212
2291.2	206
2293.13	206
2295.07	196
2297	206
2298.93	208
2300.86	214
2302.79	220
2304.72	222
2306.65	224
2308.58	208
2310.51	218
2312.44	224
2314.37	216
2316.29	204
2318.22	210
2320.15	198
2322.07	210
2324	232
2325.92	218
2327.84	210
2329.77	210
2331.69	220
2333.61	228
2335.53	202
2337.45	206
2339.37	212
2341.29	208
2343.21	212
2345.13	218
2347.05	206
2348.97	218
2350.88	222
2352.8	218
2354.71	198
2356.63	216
2358.54	222
2360.46	196
2362.37	202
2364.28	214
2366.2	210
2368.11	194
2370.02	214
2371.93	214
2373.84	202
2375.75	204
2377.66	208
2379.57	214
2381.47	204
2383.38	200
2385.29	206
2387.2	210
2389.1	210
2391.01	218
2392.91	228
2394.81	202
2396.72	238
2398.62	214
2400.52	226
2402.42	222
2404.33	218
2406.23	212
2408.13	236
2410.03	204
2411.92	224
2413.82	224
2415.72	222
2417.62	212
2419.51	206
2421.41	206
2423.31	206
2425.2	194
2427.1	206
2428.99	216
2430.88	212
2432.78	220
2434.67	208
2436.56	222
2438.45	190
2440.34	218
2442.23	212
2444.12	196
2446.01	208
2447.9	214
2449.79	200