File: Mixture_Classification/Jesse_Dataset_v2/Pure Raman/Polypropylene oxide/633nm/ps-ppo-7jan25-0,0000-map2_Y06_X09.txt
182.393	668
184.993	656
187.593	656
190.193	618
192.79	578
195.387	570
197.983	556
200.578	512
203.174	520
205.766	508
208.36	492
210.951	462
213.542	454
216.131	456
218.721	436
221.309	522
223.897	566
226.483	738
229.069	916
231.654	1158
234.238	1238
236.821	1234
239.404	1122
241.984	988
244.566	848
247.145	744
249.723	654
252.302	554
254.878	450
257.455	392
260.03	356
262.604	336
265.178	298
267.75	294
270.322	298
272.893	272
275.463	292
278.032	284
280.601	296
283.168	324
285.734	392
288.301	434
290.866	536
293.429	604
295.992	606
298.556	592
301.117	568
303.677	488
306.236	464
308.795	446
311.354	404
313.911	366
316.467	348
319.022	360
321.577	346
324.13	350
326.684	368
329.236	396
331.787	412
334.337	376
336.887	390
339.435	362
341.983	370
344.529	348
347.075	350
349.621	368
352.165	338
354.708	356
357.251	372
359.793	334
362.334	338
364.874	322
367.413	306
369.951	340
372.489	348
375.026	330
377.562	304
380.097	300
382.631	282
385.164	254
387.697	254
390.229	246
392.76	226
395.29	244
397.819	236
400.346	240
402.873	240
405.4	246
407.926	270
410.451	322
412.976	336
415.499	358
418.02	316
420.542	302
423.063	274
425.583	250
428.101	244
430.619	228
433.137	222
435.654	208
438.169	180
440.684	182
443.198	172
445.712	166
448.223	166
450.735	176
453.246	174
455.755	174
458.264	174
460.771	194
463.279	210
465.786	204
468.291	242
470.796	296
473.301	298
475.803	358
478.306	390
480.807	406
483.308	512
485.807	502
488.307	456
490.804	356
493.302	300
495.798	266
498.294	236
500.788	212
503.283	218
505.775	238
508.269	266
510.759	300
513.251	414
515.74	376
518.23	328
520.718	296
523.204	314
525.692	352
528.177	386
530.663	464
533.147	574
535.629	744
538.113	762
540.594	750
543.074	714
545.555	574
548.034	440
550.512	384
552.989	402
555.467	430
557.942	516
560.417	686
562.892	998
565.365	1608
567.838	2602
570.309	3626
572.78	3656
575.251	2588
577.72	1498
580.189	952
582.656	696
585.123	656
587.589	574
590.055	558
592.52	510
594.983	492
597.446	460
599.908	368
602.369	328
604.829	268
607.289	240
609.747	218
612.205	210
614.663	214
617.119	214
619.574	232
622.029	218
624.483	246
626.936	252
629.389	296
631.84	282
634.291	330
636.741	324
639.19	302
641.639	304
644.086	258
646.533	250
648.979	242
651.424	212
653.869	218
656.313	206
658.754	204
661.196	190
663.638	176
666.078	164
668.518	174
670.957	146
673.394	170
675.831	172
678.268	164
680.703	168
683.137	172
685.571	164
688.005	174
690.437	178
692.868	182
695.299	174
697.729	162
700.159	166
702.586	168
705.014	188
707.441	194
709.866	208
712.292	240
714.716	256
717.14	248
719.563	218
721.984	226
724.406	198
726.825	186
729.246	202
731.665	216
734.082	222
736.5	214
738.916	210
741.332	240
743.746	286
746.161	316
748.574	342
750.987	306
753.398	296
755.81	294
758.219	272
760.629	208
763.037	192
765.445	176
767.852	198
770.258	204
772.664	196
775.068	206
777.472	218
779.876	220
782.278	226
784.679	210
787.08	212
789.48	208
791.879	208
794.278	184
796.675	184
799.072	204
801.467	190
803.864	198
806.258	216
808.651	220
811.044	216
813.437	194
815.828	208
818.218	218
820.608	244
822.997	278
825.385	342
827.773	460
830.16	776
832.546	1146
834.931	1114
837.315	660
839.699	374
842.081	308
844.463	270
846.844	266
849.226	276
851.606	282
853.985	242
856.363	244
858.741	248
861.117	226
863.493	222
865.868	220
868.243	198
870.616	180
872.989	192
875.36	200
877.731	184
880.102	190
882.472	200
884.841	184
887.209	186
889.577	188
891.944	190
894.31	188
896.674	172
899.039	194
901.403	180
903.766	174
906.128	182
908.49	176
910.849	162
913.209	180
915.569	170
917.927	174
920.284	180
922.641	186
924.997	188
927.353	180
929.707	182
932.061	214
934.414	210
936.765	204
939.117	220
941.469	222
943.818	270
946.167	292
948.515	340
950.863	412
953.211	536
955.556	716
957.902	854
960.246	928
962.59	858
964.933	746
967.276	614
969.617	512
971.958	410
974.298	370
976.638	294
978.976	258
981.314	244
983.651	248
985.988	212
988.323	240
990.659	222
992.992	218
995.325	214
997.658	196
999.99	208
1002.32	206
1004.65	192
1006.98	192
1009.31	204
1011.64	218
1013.97	204
1016.29	236
1018.62	234
1020.94	246
1023.27	254
1025.59	264
1027.91	262
1030.24	266
1032.56	286
1034.88	274
1037.2	286
1039.52	268
1041.84	282
1044.15	250
1046.47	228
1048.79	226
1051.1	224
1053.42	218
1055.73	210
1058.04	216
1060.36	208
1062.67	200
1064.98	198
1067.29	198
1069.6	208
1071.91	186
1074.22	206
1076.52	202
1078.83	204
1081.14	202
1083.44	208
1085.75	208
1088.05	202
1090.35	198
1092.65	198
1094.95	220
1097.26	212
1099.56	234
1101.86	286
1104.15	288
1106.45	398
1108.75	572
1111.05	774
1113.34	900
1115.64	764
1117.93	498
1120.22	368
1122.52	326
1124.81	298
1127.1	264
1129.39	238
1131.68	240
1133.97	246
1136.26	236
1138.54	244
1140.83	252
1143.12	234
1145.4	252
1147.69	226
1149.97	226
1152.25	218
1154.54	216
1156.82	250
1159.1	252
1161.38	268
1163.66	266
1165.94	284
1168.22	266
1170.49	256
1172.77	256
1175.05	274
1177.32	300
1179.6	356
1181.87	448
1184.14	520
1186.42	610
1188.69	610
1190.96	524
1193.23	460
1195.5	424
1197.77	434
1200.03	468
1202.3	468
1204.57	444
1206.83	422
1209.1	344
1211.36	292
1213.63	270
1215.89	260
1218.15	236
1220.41	240
1222.67	240
1224.93	288
1227.19	310
1229.45	350
1231.71	344
1233.97	322
1236.22	300
1238.48	238
1240.73	238
1242.99	242
1245.24	230
1247.5	236
1249.75	236
1252	228
1254.25	224
1256.5	246
1258.75	228
1261	236
1263.25	226
1265.49	250
1267.74	238
1269.99	242
1272.23	246
1274.48	262
1276.72	292
1278.96	306
1281.21	334
1283.45	358
1285.69	390
1287.93	424
1290.17	426
1292.41	460
1294.64	600
1296.88	748
1299.12	1066
1301.36	1582
1303.59	2042
1305.82	2178
1308.06	1826
1310.29	1334
1312.52	936
1314.76	750
1316.99	628
1319.22	536
1321.45	494
1323.68	470
1325.9	440
1328.13	452
1330.36	416
1332.58	426
1334.81	398
1337.04	350
1339.26	348
1341.48	328
1343.71	332
1345.93	366
1348.15	382
1350.37	390
1352.59	386
1354.81	368
1357.03	336
1359.24	332
1361.46	316
1363.68	300
1365.89	322
1368.11	350
1370.32	392
1372.54	512
1374.75	758
1376.96	970
1379.17	1036
1381.38	1012
1383.59	906
1385.8	676
1388.01	538
1390.22	396
1392.43	332
1394.63	322
1396.84	286
1399.05	286
1401.25	274
1403.45	288
1405.66	242
1407.86	278
1410.06	276
1412.26	296
1414.46	300
1416.66	352
1418.86	336
1421.06	366
1423.26	396
1425.46	424
1427.65	422
1429.85	430
1432.04	466
1434.24	442
1436.43	458
1438.62	512
1440.82	518
1443.01	496
1445.2	444
1447.39	440
1449.58	436
1451.77	392
1453.95	390
1456.14	396
1458.33	358
1460.52	392
1462.7	386
1464.89	366
1467.07	370
1469.25	356
1471.44	372
1473.62	346
1475.8	360
1477.98	360
1480.16	354
1482.34	350
1484.52	334
1486.7	326
1488.87	290
1491.05	270
1493.23	298
1495.4	302
1497.58	290
1499.75	278
1501.92	308
1504.1	278
1506.27	274
1508.44	280
1510.61	280
1512.78	276
1514.95	278
1517.12	274
1519.28	274
1521.45	274
1523.62	274
1525.78	278
1527.95	272
1530.11	274
1532.28	274
1534.44	280
1536.6	292
1538.76	270
1540.93	284
1543.09	286
1545.25	272
1547.41	272
1549.56	272
1551.72	292
1553.88	282
1556.03	288
1558.19	284
1560.35	286
1562.5	304
1564.65	306
1566.81	300
1568.96	316
1571.11	340
1573.26	340
1575.41	356
1577.56	404
1579.71	416
1581.86	440
1584.01	504
1586.15	584
1588.3	660
1590.45	774
1592.59	896
1594.74	1032
1596.88	1192
1599.02	1340
1601.17	1468
1603.31	1474
1605.45	1358
1607.59	1326
1609.73	1148
1611.87	1012
1614.01	888
1616.14	758
1618.28	610
1620.42	524
1622.55	456
1624.69	398
1626.82	364
1628.96	350
1631.09	338
1633.22	290
1635.36	288
1637.49	272
1639.62	272
1641.75	266
1643.88	262
1646	252
1648.13	242
1650.26	230
1652.39	252
1654.51	250
1656.64	234
1658.76	250
1660.89	240
1663.01	240
1665.13	266
1667.26	248
1669.38	236
1671.5	244
1673.62	238
1675.74	220
1677.86	228
1679.97	240
1682.09	226
1684.21	248
1686.33	246
1688.44	240
1690.56	250
1692.67	252
1694.78	262
1696.9	256
1699.01	254
1701.12	256
1703.23	236
1705.34	256
1707.45	240
1709.56	238
1711.67	230
1713.78	246
1715.88	228
1717.99	240
1720.1	214
1722.2	238
1724.31	226
1726.41	230
1728.51	222
1730.62	210
1732.72	220
1734.82	224
1736.92	214
1739.02	222
1741.12	232
1743.22	236
1745.32	216
1747.42	222
1749.51	222
1751.61	210
1753.7	226
1755.8	210
1757.89	222
1759.99	204
1762.08	218
1764.17	218
1766.26	214
1768.36	226
1770.45	206
1772.54	216
1774.62	218
1776.71	224
1778.8	224
1780.89	226
1782.98	214
1785.06	214
1787.15	224
1789.23	212
1791.32	208
1793.4	216
1795.48	212
1797.56	224
1799.65	230
1801.73	224
1803.81	220
1805.89	220
1807.97	220
1810.04	212
1812.12	222
1814.2	210
1816.28	210
1818.35	208
1820.43	214
1822.5	194
1824.58	200
1826.65	228
1828.72	210
1830.79	204
1832.86	194
1834.94	192
1837.01	216
1839.08	220
1841.15	216
1843.21	208
1845.28	206
1847.35	198
1849.41	220
1851.48	220
1853.55	198
1855.61	210
1857.67	214
1859.74	220
1861.8	198
1863.86	212
1865.92	214
1867.98	224
1870.05	208
1872.1	206
1874.16	230
1876.22	218
1878.28	212
1880.34	206
1882.39	204
1884.45	204
1886.5	228
1888.56	240
1890.61	218
1892.67	206
1894.72	214
1896.77	216
1898.82	208
1900.87	202
1902.92	222
1904.97	236
1907.02	198
1909.07	200
1911.12	222
1913.17	224
1915.21	222
1917.26	230
1919.3	234
1921.35	224
1923.39	216
1925.43	210
1927.48	232
1929.52	204
1931.56	224
1933.6	224
1935.64	222
1937.68	226
1939.72	224
1941.76	216
1943.8	210
1945.83	210
1947.87	218
1949.91	216
1951.94	218
1953.98	216
1956.01	210
1958.05	214
1960.08	206
1962.11	198
1964.14	212
1966.17	208
1968.2	222
1970.23	196
1972.26	222
1974.29	194
1976.32	198
1978.35	214
1980.37	214
1982.4	222
1984.43	216
1986.45	226
1988.48	228
1990.5	214
1992.52	212
1994.55	214
1996.57	206
1998.59	230
2000.61	206
2002.63	208
2004.65	210
2006.67	224
2008.69	204
2010.7	226
2012.72	218
2014.74	222
2016.75	214
2018.77	224
2020.78	204
2022.8	218
2024.81	216
2026.83	220
2028.84	218
2030.85	220
2032.86	220
2034.87	210
2036.88	218
2038.89	216
2040.9	212
2042.91	216
2044.91	224
2046.92	212
2048.93	208
2050.93	216
2052.94	216
2054.94	222
2056.95	204
2058.95	206
2060.95	218
2062.95	214
2064.96	228
2066.96	220
2068.96	230
2070.96	218
2072.96	202
2074.95	226
2076.95	214
2078.95	220
2080.95	224
2082.94	210
2084.94	216
2086.93	218
2088.93	224
2090.92	222
2092.91	208
2094.91	206
2096.9	208
2098.89	216
2100.88	214
2102.87	212
2104.86	214
2106.85	210
2108.84	218
2110.83	208
2112.81	192
2114.8	224
2116.78	204
2118.77	220
2120.75	216
2122.74	222
2124.72	210
2126.71	206
2128.69	214
2130.67	216
2132.65	218
2134.63	204
2136.61	218
2138.59	220
2140.57	222
2142.55	200
2144.53	224
2146.5	212
2148.48	208
2150.46	210
2152.43	224
2154.41	210
2156.38	230
2158.35	206
2160.33	222
2162.3	224
2164.27	212
2166.24	224
2168.21	204
2170.18	204
2172.15	204
2174.12	212
2176.09	214
2178.06	216
2180.03	208
2181.99	212
2183.96	230
2185.92	228
2187.89	226
2189.85	210
2191.82	204
2193.78	204
2195.74	190
2197.7	216
2199.67	208
2201.63	214
2203.59	200
2205.55	208
2207.51	214
2209.46	220
2211.42	212
2213.38	216
2215.34	228
2217.29	212
2219.25	204
2221.2	210
2223.16	206
2225.11	212
2227.06	196
2229.02	220
2230.97	210
2232.92	216
2234.87	232
2236.82	196
2238.77	242
2240.72	210
2242.67	206
2244.62	226
2246.57	220
2248.51	216
2250.46	220
2252.4	224
2254.35	226
2256.29	220
2258.24	220
2260.18	226
2262.13	212
2264.07	208
2266.01	210
2267.95	224
2269.89	212
2271.83	216
2273.77	218
2275.71	220
2277.65	222
2279.58	220
2281.52	220
2283.46	224
2285.4	202
2287.33	218
2289.27	198
2291.2	226
2293.13	224
2295.07	202
2297	212
2298.93	210
2300.86	208
2302.79	214
2304.72	210
2306.65	214
2308.58	228
2310.51	216
2312.44	202
2314.37	226
2316.29	228
2318.22	218
2320.15	220
2322.07	220
2324	224
2325.92	236
2327.84	214
2329.77	226
2331.69	214
2333.61	206
2335.53	224
2337.45	214
2339.37	232
2341.29	218
2343.21	216
2345.13	216
2347.05	218
2348.97	226
2350.88	218
2352.8	216
2354.71	206
2356.63	222
2358.54	196
2360.46	220
2362.37	216
2364.28	206
2366.2	216
2368.11	242
2370.02	212
2371.93	218
2373.84	232
2375.75	222
2377.66	220
2379.57	214
2381.47	220
2383.38	212
2385.29	214
2387.2	212
2389.1	222
2391.01	208
2392.91	234
2394.81	228
2396.72	238
2398.62	232
2400.52	234
2402.42	236
2404.33	216
2406.23	214
2408.13	220
2410.03	224
2411.92	224
2413.82	226
2415.72	230
2417.62	216
2419.51	218
2421.41	210
2423.31	214
2425.2	216
2427.1	216
2428.99	218
2430.88	222
2432.78	220
2434.67	226
2436.56	212
2438.45	218
2440.34	220
2442.23	234
2444.12	222
2446.01	208
2447.9	226
2449.79	212