File: Mixture_Classification/Jesse_Dataset_v2/Pure Raman/Polypropylene oxide/633nm/ps-ppo-7jan25-0,0000-map2_Y06_X03.txt
182.393	714
184.993	668
187.593	660
190.193	596
192.79	576
195.387	560
197.983	538
200.578	522
203.174	514
205.766	502
208.36	500
210.951	470
213.542	454
216.131	436
218.721	476
221.309	516
223.897	574
226.483	742
229.069	942
231.654	1132
234.238	1272
236.821	1226
239.404	1170
241.984	1022
244.566	888
247.145	784
249.723	658
252.302	536
254.878	470
257.455	396
260.03	374
262.604	332
265.178	296
267.75	292
270.322	276
272.893	286
275.463	282
278.032	288
280.601	294
283.168	338
285.734	386
288.301	440
290.866	528
293.429	566
295.992	612
298.556	602
301.117	572
303.677	506
306.236	448
308.795	420
311.354	400
313.911	350
316.467	370
319.022	342
321.577	352
324.13	362
326.684	376
329.236	398
331.787	398
334.337	404
336.887	424
339.435	390
341.983	372
344.529	366
347.075	350
349.621	350
352.165	352
354.708	372
357.251	330
359.793	346
362.334	316
364.874	324
367.413	328
369.951	316
372.489	332
375.026	348
377.562	318
380.097	280
382.631	278
385.164	246
387.697	254
390.229	232
392.76	226
395.29	224
397.819	232
400.346	246
402.873	244
405.4	256
407.926	278
410.451	318
412.976	348
415.499	370
418.02	344
420.542	294
423.063	272
425.583	258
428.101	240
430.619	210
433.137	206
435.654	188
438.169	184
440.684	172
443.198	160
445.712	162
448.223	178
450.735	182
453.246	162
455.755	166
458.264	168
460.771	190
463.279	188
465.786	208
468.291	232
470.796	274
473.301	294
475.803	346
478.306	390
480.807	430
483.308	492
485.807	486
488.307	426
490.804	350
493.302	320
495.798	270
498.294	228
500.788	216
503.283	218
505.775	218
508.269	246
510.759	326
513.251	382
515.74	382
518.23	318
520.718	290
523.204	312
525.692	336
528.177	368
530.663	464
533.147	584
535.629	700
538.113	772
540.594	778
543.074	716
545.555	574
548.034	434
550.512	396
552.989	372
555.467	448
557.942	490
560.417	682
562.892	1034
565.365	1638
567.838	2734
570.309	3760
572.78	3732
575.251	2656
577.72	1550
580.189	954
582.656	708
585.123	620
587.589	598
590.055	510
592.52	524
594.983	476
597.446	452
599.908	412
602.369	314
604.829	280
607.289	244
609.747	234
612.205	218
614.663	214
617.119	204
619.574	210
622.029	236
624.483	246
626.936	270
629.389	272
631.84	288
634.291	338
636.741	320
639.19	296
641.639	292
644.086	260
646.533	244
648.979	232
651.424	214
653.869	206
656.313	196
658.754	186
661.196	172
663.638	172
666.078	176
668.518	166
670.957	172
673.394	154
675.831	166
678.268	172
680.703	160
683.137	170
685.571	164
688.005	156
690.437	154
692.868	158
695.299	160
697.729	168
700.159	166
702.586	184
705.014	172
707.441	192
709.866	210
712.292	240
714.716	248
717.14	242
719.563	222
721.984	204
724.406	206
726.825	206
729.246	190
731.665	184
734.082	200
736.5	228
738.916	208
741.332	230
743.746	258
746.161	318
748.574	324
750.987	296
753.398	290
755.81	270
758.219	252
760.629	218
763.037	172
765.445	214
767.852	178
770.258	186
772.664	194
775.068	196
777.472	222
779.876	210
782.278	212
784.679	214
787.08	192
789.48	200
791.879	196
794.278	184
796.675	184
799.072	176
801.467	192
803.864	194
806.258	202
808.651	204
811.044	202
813.437	194
815.828	176
818.218	216
820.608	230
822.997	248
825.385	322
827.773	484
830.16	786
832.546	1124
834.931	1108
837.315	672
839.699	390
842.081	284
844.463	256
846.844	248
849.226	264
851.606	250
853.985	236
856.363	228
858.741	218
861.117	216
863.493	214
865.868	198
868.243	214
870.616	202
872.989	190
875.36	204
877.731	176
880.102	188
882.472	186
884.841	186
887.209	186
889.577	178
891.944	174
894.31	198
896.674	178
899.039	176
901.403	176
903.766	162
906.128	190
908.49	166
910.849	168
913.209	170
915.569	178
917.927	174
920.284	182
922.641	172
924.997	178
927.353	198
929.707	186
932.061	190
934.414	190
936.765	210
939.117	230
941.469	214
943.818	242
946.167	292
948.515	330
950.863	406
953.211	494
955.556	694
957.902	842
960.246	930
962.59	882
964.933	782
967.276	618
969.617	530
971.958	434
974.298	360
976.638	284
978.976	244
981.314	218
983.651	234
985.988	222
988.323	218
990.659	234
992.992	212
995.325	220
997.658	198
999.99	174
1002.32	188
1004.65	194
1006.98	184
1009.31	210
1011.64	204
1013.97	196
1016.29	206
1018.62	228
1020.94	244
1023.27	244
1025.59	254
1027.91	244
1030.24	288
1032.56	268
1034.88	268
1037.2	284
1039.52	256
1041.84	244
1044.15	234
1046.47	240
1048.79	222
1051.1	230
1053.42	204
1055.73	194
1058.04	190
1060.36	198
1062.67	206
1064.98	178
1067.29	186
1069.6	196
1071.91	194
1074.22	192
1076.52	204
1078.83	208
1081.14	196
1083.44	196
1085.75	198
1088.05	182
1090.35	204
1092.65	224
1094.95	204
1097.26	224
1099.56	224
1101.86	236
1104.15	282
1106.45	358
1108.75	576
1111.05	834
1113.34	898
1115.64	742
1117.93	516
1120.22	358
1122.52	320
1124.81	278
1127.1	268
1129.39	246
1131.68	254
1133.97	254
1136.26	252
1138.54	242
1140.83	240
1143.12	244
1145.4	232
1147.69	216
1149.97	224
1152.25	196
1154.54	234
1156.82	236
1159.1	248
1161.38	294
1163.66	294
1165.94	280
1168.22	246
1170.49	256
1172.77	246
1175.05	280
1177.32	302
1179.6	338
1181.87	444
1184.14	546
1186.42	648
1188.69	608
1190.96	554
1193.23	452
1195.5	426
1197.77	446
1200.03	444
1202.3	462
1204.57	448
1206.83	404
1209.1	372
1211.36	296
1213.63	276
1215.89	250
1218.15	246
1220.41	238
1222.67	270
1224.93	284
1227.19	296
1229.45	360
1231.71	334
1233.97	310
1236.22	256
1238.48	252
1240.73	252
1242.99	232
1245.24	212
1247.5	236
1249.75	220
1252	244
1254.25	234
1256.5	228
1258.75	230
1261	236
1263.25	236
1265.49	228
1267.74	238
1269.99	256
1272.23	248
1274.48	254
1276.72	284
1278.96	294
1281.21	320
1283.45	358
1285.69	388
1287.93	398
1290.17	406
1292.41	482
1294.64	580
1296.88	770
1299.12	1102
1301.36	1530
1303.59	2058
1305.82	2160
1308.06	1840
1310.29	1304
1312.52	972
1314.76	720
1316.99	630
1319.22	550
1321.45	476
1323.68	492
1325.9	454
1328.13	450
1330.36	446
1332.58	418
1334.81	366
1337.04	332
1339.26	328
1341.48	318
1343.71	344
1345.93	340
1348.15	386
1350.37	374
1352.59	398
1354.81	362
1357.03	320
1359.24	314
1361.46	310
1363.68	308
1365.89	326
1368.11	354
1370.32	406
1372.54	520
1374.75	766
1376.96	948
1379.17	1076
1381.38	1054
1383.59	894
1385.8	708
1388.01	530
1390.22	410
1392.43	344
1394.63	292
1396.84	288
1399.05	278
1401.25	262
1403.45	262
1405.66	264
1407.86	266
1410.06	278
1412.26	288
1414.46	308
1416.66	306
1418.86	328
1421.06	378
1423.26	376
1425.46	432
1427.65	410
1429.85	414
1432.04	440
1434.24	478
1436.43	462
1438.62	522
1440.82	512
1443.01	514
1445.2	454
1447.39	450
1449.58	440
1451.77	388
1453.95	386
1456.14	362
1458.33	382
1460.52	358
1462.7	386
1464.89	370
1467.07	366
1469.25	400
1471.44	356
1473.62	376
1475.8	358
1477.98	352
1480.16	364
1482.34	348
1484.52	318
1486.7	296
1488.87	300
1491.05	298
1493.23	306
1495.4	294
1497.58	290
1499.75	276
1501.92	288
1504.1	282
1506.27	272
1508.44	288
1510.61	270
1512.78	280
1514.95	264
1517.12	256
1519.28	258
1521.45	262
1523.62	288
1525.78	276
1527.95	262
1530.11	282
1532.28	274
1534.44	302
1536.6	286
1538.76	270
1540.93	282
1543.09	276
1545.25	292
1547.41	260
1549.56	288
1551.72	298
1553.88	274
1556.03	280
1558.19	280
1560.35	286
1562.5	304
1564.65	302
1566.81	306
1568.96	314
1571.11	322
1573.26	340
1575.41	348
1577.56	394
1579.71	412
1581.86	442
1584.01	512
1586.15	570
1588.3	636
1590.45	760
1592.59	892
1594.74	1064
1596.88	1212
1599.02	1382
1601.17	1494
1603.31	1528
1605.45	1432
1607.59	1278
1609.73	1180
1611.87	1038
1614.01	868
1616.14	740
1618.28	636
1620.42	514
1622.55	446
1624.69	378
1626.82	352
1628.96	340
1631.09	320
1633.22	290
1635.36	270
1637.49	256
1639.62	250
1641.75	266
1643.88	228
1646	246
1648.13	238
1650.26	244
1652.39	240
1654.51	228
1656.64	252
1658.76	230
1660.89	224
1663.01	234
1665.13	226
1667.26	238
1669.38	224
1671.5	212
1673.62	204
1675.74	230
1677.86	210
1679.97	222
1682.09	216
1684.21	232
1686.33	226
1688.44	230
1690.56	234
1692.67	250
1694.78	244
1696.9	244
1699.01	256
1701.12	258
1703.23	242
1705.34	234
1707.45	246
1709.56	234
1711.67	242
1713.78	246
1715.88	238
1717.99	230
1720.1	214
1722.2	224
1724.31	218
1726.41	222
1728.51	226
1730.62	204
1732.72	212
1734.82	228
1736.92	202
1739.02	204
1741.12	214
1743.22	204
1745.32	196
1747.42	224
1749.51	200
1751.61	204
1753.7	214
1755.8	214
1757.89	224
1759.99	194
1762.08	206
1764.17	204
1766.26	214
1768.36	208
1770.45	208
1772.54	204
1774.62	226
1776.71	226
1778.8	214
1780.89	212
1782.98	210
1785.06	226
1787.15	198
1789.23	212
1791.32	222
1793.4	200
1795.48	208
1797.56	214
1799.65	198
1801.73	194
1803.81	200
1805.89	196
1807.97	216
1810.04	216
1812.12	204
1814.2	216
1816.28	228
1818.35	208
1820.43	190
1822.5	210
1824.58	214
1826.65	226
1828.72	208
1830.79	212
1832.86	194
1834.94	226
1837.01	208
1839.08	204
1841.15	200
1843.21	198
1845.28	212
1847.35	198
1849.41	206
1851.48	214
1853.55	186
1855.61	212
1857.67	206
1859.74	198
1861.8	216
1863.86	202
1865.92	208
1867.98	202
1870.05	210
1872.1	208
1874.16	198
1876.22	202
1878.28	212
1880.34	220
1882.39	198
1884.45	198
1886.5	196
1888.56	214
1890.61	204
1892.67	222
1894.72	212
1896.77	212
1898.82	234
1900.87	188
1902.92	204
1904.97	206
1907.02	208
1909.07	210
1911.12	200
1913.17	212
1915.21	210
1917.26	204
1919.3	222
1921.35	220
1923.39	206
1925.43	190
1927.48	216
1929.52	206
1931.56	218
1933.6	216
1935.64	220
1937.68	224
1939.72	208
1941.76	208
1943.8	194
1945.83	224
1947.87	206
1949.91	222
1951.94	222
1953.98	198
1956.01	200
1958.05	196
1960.08	194
1962.11	204
1964.14	186
1966.17	210
1968.2	204
1970.23	208
1972.26	184
1974.29	204
1976.32	208
1978.35	212
1980.37	194
1982.4	212
1984.43	204
1986.45	200
1988.48	210
1990.5	206
1992.52	214
1994.55	196
1996.57	200
1998.59	210
2000.61	206
2002.63	216
2004.65	206
2006.67	200
2008.69	206
2010.7	214
2012.72	210
2014.74	206
2016.75	210
2018.77	216
2020.78	202
2022.8	204
2024.81	194
2026.83	206
2028.84	198
2030.85	204
2032.86	202
2034.87	204
2036.88	206
2038.89	212
2040.9	214
2042.91	198
2044.91	212
2046.92	206
2048.93	198
2050.93	212
2052.94	200
2054.94	200
2056.95	214
2058.95	210
2060.95	214
2062.95	198
2064.96	204
2066.96	204
2068.96	200
2070.96	198
2072.96	192
2074.95	208
2076.95	204
2078.95	206
2080.95	206
2082.94	220
2084.94	226
2086.93	204
2088.93	202
2090.92	192
2092.91	194
2094.91	196
2096.9	216
2098.89	202
2100.88	208
2102.87	206
2104.86	188
2106.85	200
2108.84	224
2110.83	218
2112.81	196
2114.8	214
2116.78	204
2118.77	222
2120.75	202
2122.74	214
2124.72	208
2126.71	198
2128.69	206
2130.67	188
2132.65	224
2134.63	222
2136.61	212
2138.59	210
2140.57	204
2142.55	198
2144.53	214
2146.5	216
2148.48	200
2150.46	220
2152.43	220
2154.41	192
2156.38	222
2158.35	192
2160.33	192
2162.3	216
2164.27	204
2166.24	222
2168.21	206
2170.18	210
2172.15	196
2174.12	188
2176.09	210
2178.06	204
2180.03	202
2181.99	212
2183.96	208
2185.92	204
2187.89	220
2189.85	208
2191.82	200
2193.78	224
2195.74	204
2197.7	198
2199.67	190
2201.63	216
2203.59	204
2205.55	194
2207.51	214
2209.46	192
2211.42	208
2213.38	194
2215.34	214
2217.29	208
2219.25	212
2221.2	210
2223.16	204
2225.11	196
2227.06	208
2229.02	202
2230.97	214
2232.92	202
2234.87	200
2236.82	210
2238.77	206
2240.72	218
2242.67	208
2244.62	194
2246.57	212
2248.51	212
2250.46	212
2252.4	204
2254.35	218
2256.29	216
2258.24	208
2260.18	206
2262.13	196
2264.07	204
2266.01	194
2267.95	212
2269.89	198
2271.83	212
2273.77	192
2275.71	212
2277.65	204
2279.58	192
2281.52	182
2283.46	208
2285.4	208
2287.33	218
2289.27	206
2291.2	220
2293.13	206
2295.07	216
2297	210
2298.93	208
2300.86	192
2302.79	212
2304.72	212
2306.65	206
2308.58	202
2310.51	208
2312.44	206
2314.37	212
2316.29	196
2318.22	218
2320.15	220
2322.07	232
2324	208
2325.92	204
2327.84	204
2329.77	202
2331.69	220
2333.61	200
2335.53	224
2337.45	206
2339.37	232
2341.29	236
2343.21	212
2345.13	206
2347.05	204
2348.97	218
2350.88	220
2352.8	198
2354.71	210
2356.63	208
2358.54	204
2360.46	224
2362.37	212
2364.28	220
2366.2	200
2368.11	204
2370.02	192
2371.93	214
2373.84	212
2375.75	202
2377.66	210
2379.57	210
2381.47	220
2383.38	204
2385.29	220
2387.2	204
2389.1	206
2391.01	226
2392.91	212
2394.81	208
2396.72	196
2398.62	224
2400.52	218
2402.42	228
2404.33	212
2406.23	206
2408.13	216
2410.03	210
2411.92	214
2413.82	194
2415.72	206
2417.62	214
2419.51	204
2421.41	212
2423.31	208
2425.2	194
2427.1	210
2428.99	206
2430.88	208
2432.78	196
2434.67	224
2436.56	188
2438.45	200
2440.34	224
2442.23	216
2444.12	206
2446.01	222
2447.9	202
2449.79	202