File: Mixture_Classification/Jesse_Dataset_v2/Pure Raman/Polypropylene oxide/633nm/ps-ppo-7jan25-0,0000-map2_Y08_X08.txt
182.393	690
184.993	664
187.593	650
190.193	634
192.79	574
195.387	570
197.983	518
200.578	520
203.174	522
205.766	492
208.36	488
210.951	466
213.542	452
216.131	470
218.721	482
221.309	492
223.897	592
226.483	702
229.069	924
231.654	1160
234.238	1242
236.821	1210
239.404	1118
241.984	1018
244.566	888
247.145	780
249.723	636
252.302	518
254.878	468
257.455	408
260.03	372
262.604	362
265.178	306
267.75	286
270.322	298
272.893	286
275.463	292
278.032	288
280.601	294
283.168	308
285.734	386
288.301	476
290.866	516
293.429	612
295.992	616
298.556	616
301.117	550
303.677	520
306.236	460
308.795	416
311.354	396
313.911	384
316.467	368
319.022	350
321.577	362
324.13	360
326.684	376
329.236	388
331.787	416
334.337	408
336.887	404
339.435	394
341.983	368
344.529	382
347.075	342
349.621	352
352.165	356
354.708	348
357.251	368
359.793	350
362.334	346
364.874	336
367.413	330
369.951	328
372.489	324
375.026	320
377.562	310
380.097	290
382.631	280
385.164	272
387.697	254
390.229	254
392.76	240
395.29	242
397.819	242
400.346	230
402.873	254
405.4	270
407.926	274
410.451	312
412.976	342
415.499	404
418.02	344
420.542	310
423.063	260
425.583	262
428.101	252
430.619	224
433.137	210
435.654	196
438.169	194
440.684	186
443.198	186
445.712	172
448.223	194
450.735	182
453.246	180
455.755	186
458.264	188
460.771	184
463.279	198
465.786	222
468.291	230
470.796	284
473.301	312
475.803	356
478.306	396
480.807	436
483.308	484
485.807	512
488.307	452
490.804	352
493.302	296
495.798	266
498.294	240
500.788	228
503.283	204
505.775	218
508.269	252
510.759	322
513.251	408
515.74	380
518.23	310
520.718	294
523.204	306
525.692	356
528.177	394
530.663	446
533.147	566
535.629	720
538.113	742
540.594	768
543.074	706
545.555	584
548.034	462
550.512	398
552.989	366
555.467	428
557.942	490
560.417	652
562.892	1008
565.365	1614
567.838	2594
570.309	3616
572.78	3568
575.251	2598
577.72	1534
580.189	938
582.656	694
585.123	622
587.589	612
590.055	564
592.52	502
594.983	506
597.446	450
599.908	394
602.369	334
604.829	258
607.289	248
609.747	232
612.205	232
614.663	216
617.119	232
619.574	234
622.029	246
624.483	254
626.936	260
629.389	290
631.84	312
634.291	310
636.741	318
639.19	312
641.639	280
644.086	282
646.533	258
648.979	236
651.424	222
653.869	212
656.313	212
658.754	182
661.196	192
663.638	184
666.078	174
668.518	172
670.957	182
673.394	170
675.831	158
678.268	166
680.703	164
683.137	178
685.571	180
688.005	168
690.437	186
692.868	170
695.299	176
697.729	184
700.159	162
702.586	174
705.014	190
707.441	194
709.866	214
712.292	236
714.716	240
717.14	238
719.563	232
721.984	224
724.406	208
726.825	194
729.246	202
731.665	212
734.082	204
736.5	232
738.916	222
741.332	254
743.746	258
746.161	282
748.574	340
750.987	292
753.398	292
755.81	290
758.219	266
760.629	216
763.037	204
765.445	198
767.852	206
770.258	200
772.664	186
775.068	222
777.472	202
779.876	230
782.278	224
784.679	210
787.08	220
789.48	188
791.879	202
794.278	216
796.675	204
799.072	192
801.467	186
803.864	190
806.258	222
808.651	222
811.044	226
813.437	212
815.828	200
818.218	224
820.608	244
822.997	276
825.385	336
827.773	468
830.16	762
832.546	1160
834.931	1108
837.315	686
839.699	402
842.081	292
844.463	280
846.844	266
849.226	246
851.606	268
853.985	254
856.363	250
858.741	254
861.117	226
863.493	226
865.868	220
868.243	198
870.616	204
872.989	190
875.36	188
877.731	196
880.102	182
882.472	202
884.841	186
887.209	202
889.577	198
891.944	188
894.31	172
896.674	168
899.039	192
901.403	168
903.766	184
906.128	172
908.49	176
910.849	186
913.209	184
915.569	168
917.927	184
920.284	180
922.641	182
924.997	182
927.353	192
929.707	200
932.061	204
934.414	198
936.765	220
939.117	228
941.469	222
943.818	250
946.167	276
948.515	342
950.863	392
953.211	512
955.556	682
957.902	844
960.246	926
962.59	862
964.933	738
967.276	620
969.617	520
971.958	456
974.298	376
976.638	296
978.976	274
981.314	240
983.651	230
985.988	228
988.323	218
990.659	244
992.992	246
995.325	210
997.658	204
999.99	206
1002.32	200
1004.65	202
1006.98	198
1009.31	218
1011.64	200
1013.97	208
1016.29	210
1018.62	244
1020.94	220
1023.27	248
1025.59	254
1027.91	258
1030.24	262
1032.56	280
1034.88	276
1037.2	292
1039.52	274
1041.84	264
1044.15	260
1046.47	222
1048.79	218
1051.1	216
1053.42	206
1055.73	206
1058.04	214
1060.36	212
1062.67	202
1064.98	222
1067.29	198
1069.6	192
1071.91	226
1074.22	204
1076.52	204
1078.83	198
1081.14	210
1083.44	228
1085.75	202
1088.05	196
1090.35	220
1092.65	208
1094.95	212
1097.26	220
1099.56	222
1101.86	266
1104.15	284
1106.45	352
1108.75	554
1111.05	824
1113.34	916
1115.64	704
1117.93	496
1120.22	386
1122.52	312
1124.81	314
1127.1	266
1129.39	268
1131.68	254
1133.97	250
1136.26	262
1138.54	258
1140.83	266
1143.12	254
1145.4	258
1147.69	230
1149.97	214
1152.25	254
1154.54	240
1156.82	234
1159.1	260
1161.38	304
1163.66	272
1165.94	274
1168.22	248
1170.49	264
1172.77	266
1175.05	262
1177.32	310
1179.6	374
1181.87	444
1184.14	552
1186.42	652
1188.69	610
1190.96	554
1193.23	438
1195.5	424
1197.77	438
1200.03	448
1202.3	484
1204.57	484
1206.83	428
1209.1	366
1211.36	322
1213.63	272
1215.89	256
1218.15	246
1220.41	230
1222.67	270
1224.93	270
1227.19	334
1229.45	338
1231.71	344
1233.97	294
1236.22	270
1238.48	254
1240.73	244
1242.99	232
1245.24	240
1247.5	220
1249.75	226
1252	224
1254.25	226
1256.5	234
1258.75	230
1261	256
1263.25	272
1265.49	240
1267.74	268
1269.99	256
1272.23	260
1274.48	280
1276.72	276
1278.96	288
1281.21	334
1283.45	356
1285.69	386
1287.93	390
1290.17	434
1292.41	508
1294.64	614
1296.88	772
1299.12	1090
1301.36	1530
1303.59	1998
1305.82	2134
1308.06	1818
1310.29	1312
1312.52	966
1314.76	760
1316.99	604
1319.22	544
1321.45	504
1323.68	496
1325.9	460
1328.13	462
1330.36	456
1332.58	412
1334.81	368
1337.04	356
1339.26	354
1341.48	344
1343.71	354
1345.93	360
1348.15	378
1350.37	400
1352.59	378
1354.81	344
1357.03	326
1359.24	326
1361.46	306
1363.68	342
1365.89	306
1368.11	340
1370.32	386
1372.54	532
1374.75	734
1376.96	984
1379.17	1030
1381.38	1060
1383.59	900
1385.8	722
1388.01	534
1390.22	390
1392.43	322
1394.63	294
1396.84	286
1399.05	274
1401.25	302
1403.45	266
1405.66	286
1407.86	284
1410.06	280
1412.26	296
1414.46	316
1416.66	332
1418.86	358
1421.06	366
1423.26	390
1425.46	410
1427.65	424
1429.85	424
1432.04	456
1434.24	444
1436.43	488
1438.62	506
1440.82	502
1443.01	482
1445.2	502
1447.39	438
1449.58	440
1451.77	412
1453.95	376
1456.14	396
1458.33	374
1460.52	368
1462.7	376
1464.89	372
1467.07	364
1469.25	370
1471.44	344
1473.62	354
1475.8	346
1477.98	402
1480.16	324
1482.34	356
1484.52	320
1486.7	320
1488.87	320
1491.05	294
1493.23	286
1495.4	314
1497.58	310
1499.75	298
1501.92	276
1504.1	254
1506.27	296
1508.44	268
1510.61	282
1512.78	272
1514.95	302
1517.12	272
1519.28	262
1521.45	290
1523.62	278
1525.78	272
1527.95	284
1530.11	276
1532.28	288
1534.44	276
1536.6	286
1538.76	282
1540.93	284
1543.09	274
1545.25	288
1547.41	262
1549.56	304
1551.72	284
1553.88	290
1556.03	306
1558.19	302
1560.35	298
1562.5	318
1564.65	304
1566.81	320
1568.96	320
1571.11	348
1573.26	358
1575.41	370
1577.56	380
1579.71	458
1581.86	440
1584.01	524
1586.15	590
1588.3	644
1590.45	768
1592.59	894
1594.74	1048
1596.88	1204
1599.02	1366
1601.17	1466
1603.31	1476
1605.45	1396
1607.59	1316
1609.73	1174
1611.87	986
1614.01	876
1616.14	726
1618.28	604
1620.42	536
1622.55	452
1624.69	410
1626.82	376
1628.96	340
1631.09	304
1633.22	278
1635.36	284
1637.49	292
1639.62	282
1641.75	274
1643.88	262
1646	258
1648.13	252
1650.26	242
1652.39	250
1654.51	230
1656.64	254
1658.76	240
1660.89	250
1663.01	248
1665.13	236
1667.26	252
1669.38	250
1671.5	232
1673.62	224
1675.74	240
1677.86	232
1679.97	244
1682.09	248
1684.21	236
1686.33	242
1688.44	250
1690.56	248
1692.67	246
1694.78	264
1696.9	254
1699.01	254
1701.12	260
1703.23	220
1705.34	242
1707.45	228
1709.56	246
1711.67	226
1713.78	236
1715.88	222
1717.99	248
1720.1	242
1722.2	232
1724.31	238
1726.41	224
1728.51	224
1730.62	218
1732.72	240
1734.82	224
1736.92	222
1739.02	222
1741.12	220
1743.22	226
1745.32	240
1747.42	220
1749.51	226
1751.61	230
1753.7	210
1755.8	220
1757.89	210
1759.99	232
1762.08	218
1764.17	222
1766.26	232
1768.36	234
1770.45	220
1772.54	210
1774.62	220
1776.71	218
1778.8	220
1780.89	210
1782.98	216
1785.06	228
1787.15	216
1789.23	220
1791.32	246
1793.4	230
1795.48	222
1797.56	216
1799.65	210
1801.73	214
1803.81	214
1805.89	212
1807.97	210
1810.04	228
1812.12	216
1814.2	212
1816.28	206
1818.35	226
1820.43	250
1822.5	208
1824.58	220
1826.65	230
1828.72	214
1830.79	222
1832.86	222
1834.94	218
1837.01	206
1839.08	236
1841.15	200
1843.21	220
1845.28	216
1847.35	216
1849.41	198
1851.48	222
1853.55	198
1855.61	194
1857.67	224
1859.74	222
1861.8	204
1863.86	212
1865.92	222
1867.98	216
1870.05	198
1872.1	228
1874.16	214
1876.22	232
1878.28	216
1880.34	212
1882.39	194
1884.45	212
1886.5	242
1888.56	224
1890.61	210
1892.67	234
1894.72	212
1896.77	220
1898.82	208
1900.87	230
1902.92	212
1904.97	226
1907.02	208
1909.07	226
1911.12	216
1913.17	234
1915.21	218
1917.26	202
1919.3	220
1921.35	210
1923.39	242
1925.43	208
1927.48	228
1929.52	214
1931.56	220
1933.6	198
1935.64	222
1937.68	228
1939.72	220
1941.76	220
1943.8	218
1945.83	236
1947.87	208
1949.91	222
1951.94	202
1953.98	224
1956.01	224
1958.05	208
1960.08	214
1962.11	216
1964.14	226
1966.17	234
1968.2	226
1970.23	230
1972.26	218
1974.29	216
1976.32	214
1978.35	204
1980.37	224
1982.4	224
1984.43	234
1986.45	206
1988.48	206
1990.5	214
1992.52	228
1994.55	212
1996.57	214
1998.59	214
2000.61	232
2002.63	208
2004.65	232
2006.67	204
2008.69	230
2010.7	230
2012.72	212
2014.74	216
2016.75	220
2018.77	208
2020.78	212
2022.8	220
2024.81	210
2026.83	206
2028.84	224
2030.85	204
2032.86	208
2034.87	216
2036.88	216
2038.89	202
2040.9	214
2042.91	196
2044.91	216
2046.92	222
2048.93	212
2050.93	218
2052.94	228
2054.94	222
2056.95	212
2058.95	222
2060.95	210
2062.95	218
2064.96	214
2066.96	222
2068.96	226
2070.96	230
2072.96	230
2074.95	220
2076.95	226
2078.95	210
2080.95	218
2082.94	208
2084.94	204
2086.93	210
2088.93	224
2090.92	220
2092.91	216
2094.91	210
2096.9	204
2098.89	212
2100.88	218
2102.87	216
2104.86	224
2106.85	218
2108.84	240
2110.83	226
2112.81	216
2114.8	208
2116.78	234
2118.77	208
2120.75	216
2122.74	196
2124.72	204
2126.71	204
2128.69	226
2130.67	214
2132.65	228
2134.63	204
2136.61	228
2138.59	222
2140.57	214
2142.55	206
2144.53	218
2146.5	210
2148.48	208
2150.46	204
2152.43	232
2154.41	214
2156.38	202
2158.35	206
2160.33	220
2162.3	210
2164.27	212
2166.24	218
2168.21	232
2170.18	206
2172.15	214
2174.12	220
2176.09	228
2178.06	210
2180.03	204
2181.99	224
2183.96	214
2185.92	218
2187.89	208
2189.85	234
2191.82	212
2193.78	228
2195.74	224
2197.7	212
2199.67	220
2201.63	218
2203.59	226
2205.55	208
2207.51	210
2209.46	214
2211.42	230
2213.38	234
2215.34	224
2217.29	222
2219.25	228
2221.2	232
2223.16	230
2225.11	214
2227.06	208
2229.02	202
2230.97	218
2232.92	216
2234.87	222
2236.82	212
2238.77	234
2240.72	212
2242.67	210
2244.62	222
2246.57	218
2248.51	200
2250.46	230
2252.4	236
2254.35	200
2256.29	226
2258.24	222
2260.18	212
2262.13	212
2264.07	218
2266.01	224
2267.95	216
2269.89	220
2271.83	242
2273.77	220
2275.71	220
2277.65	206
2279.58	212
2281.52	208
2283.46	216
2285.4	216
2287.33	220
2289.27	208
2291.2	212
2293.13	222
2295.07	230
2297	228
2298.93	210
2300.86	208
2302.79	216
2304.72	228
2306.65	232
2308.58	226
2310.51	244
2312.44	216
2314.37	228
2316.29	234
2318.22	240
2320.15	220
2322.07	234
2324	222
2325.92	214
2327.84	214
2329.77	234
2331.69	218
2333.61	212
2335.53	214
2337.45	222
2339.37	228
2341.29	230
2343.21	226
2345.13	224
2347.05	232
2348.97	222
2350.88	198
2352.8	216
2354.71	240
2356.63	210
2358.54	220
2360.46	210
2362.37	224
2364.28	204
2366.2	228
2368.11	212
2370.02	224
2371.93	218
2373.84	214
2375.75	238
2377.66	214
2379.57	210
2381.47	214
2383.38	238
2385.29	218
2387.2	242
2389.1	236
2391.01	224
2392.91	236
2394.81	232
2396.72	220
2398.62	226
2400.52	234
2402.42	234
2404.33	214
2406.23	220
2408.13	240
2410.03	220
2411.92	206
2413.82	204
2415.72	216
2417.62	242
2419.51	214
2421.41	218
2423.31	220
2425.2	216
2427.1	222
2428.99	216
2430.88	232
2432.78	216
2434.67	228
2436.56	214
2438.45	236
2440.34	222
2442.23	210
2444.12	236
2446.01	212
2447.9	228
2449.79	236