File: Mixture_Classification/Jesse_Dataset_v2/Pure Raman/Polypropylene oxide/633nm/ps-ppo-7jan25-0,0000-map2_Y10_X07.txt
182.393	628
184.993	670
187.593	602
190.193	614
192.79	580
195.387	576
197.983	494
200.578	506
203.174	482
205.766	480
208.36	470
210.951	444
213.542	434
216.131	436
218.721	456
221.309	478
223.897	564
226.483	702
229.069	934
231.654	1110
234.238	1194
236.821	1202
239.404	1098
241.984	964
244.566	864
247.145	696
249.723	616
252.302	508
254.878	468
257.455	396
260.03	352
262.604	320
265.178	310
267.75	276
270.322	270
272.893	272
275.463	254
278.032	288
280.601	286
283.168	306
285.734	372
288.301	430
290.866	518
293.429	582
295.992	584
298.556	598
301.117	558
303.677	464
306.236	428
308.795	400
311.354	370
313.911	356
316.467	344
319.022	332
321.577	364
324.13	356
326.684	336
329.236	366
331.787	372
334.337	388
336.887	390
339.435	360
341.983	368
344.529	330
347.075	330
349.621	334
352.165	342
354.708	334
357.251	338
359.793	294
362.334	324
364.874	300
367.413	324
369.951	324
372.489	306
375.026	320
377.562	286
380.097	288
382.631	262
385.164	250
387.697	226
390.229	230
392.76	234
395.29	212
397.819	210
400.346	232
402.873	240
405.4	244
407.926	268
410.451	308
412.976	336
415.499	342
418.02	308
420.542	302
423.063	262
425.583	246
428.101	222
430.619	206
433.137	198
435.654	194
438.169	174
440.684	172
443.198	172
445.712	168
448.223	182
450.735	162
453.246	160
455.755	156
458.264	158
460.771	174
463.279	168
465.786	196
468.291	212
470.796	246
473.301	288
475.803	338
478.306	410
480.807	412
483.308	476
485.807	462
488.307	450
490.804	354
493.302	306
495.798	260
498.294	222
500.788	206
503.283	200
505.775	222
508.269	258
510.759	300
513.251	400
515.74	372
518.23	304
520.718	284
523.204	274
525.692	320
528.177	364
530.663	438
533.147	552
535.629	656
538.113	740
540.594	748
543.074	660
545.555	512
548.034	458
550.512	366
552.989	334
555.467	426
557.942	482
560.417	608
562.892	930
565.365	1522
567.838	2454
570.309	3474
572.78	3492
575.251	2544
577.72	1554
580.189	904
582.656	686
585.123	602
587.589	556
590.055	512
592.52	490
594.983	486
597.446	440
599.908	358
602.369	306
604.829	260
607.289	240
609.747	222
612.205	198
614.663	212
617.119	214
619.574	218
622.029	224
624.483	232
626.936	266
629.389	276
631.84	278
634.291	312
636.741	296
639.19	292
641.639	274
644.086	262
646.533	226
648.979	216
651.424	204
653.869	210
656.313	184
658.754	192
661.196	184
663.638	168
666.078	170
668.518	164
670.957	162
673.394	168
675.831	160
678.268	158
680.703	162
683.137	144
685.571	176
688.005	156
690.437	160
692.868	170
695.299	146
697.729	168
700.159	154
702.586	162
705.014	184
707.441	188
709.866	202
712.292	222
714.716	244
717.14	226
719.563	212
721.984	202
724.406	206
726.825	186
729.246	200
731.665	202
734.082	198
736.5	196
738.916	216
741.332	228
743.746	252
746.161	290
748.574	318
750.987	292
753.398	284
755.81	272
758.219	248
760.629	226
763.037	194
765.445	190
767.852	186
770.258	178
772.664	188
775.068	194
777.472	190
779.876	212
782.278	222
784.679	210
787.08	200
789.48	186
791.879	172
794.278	206
796.675	196
799.072	176
801.467	172
803.864	198
806.258	210
808.651	210
811.044	198
813.437	202
815.828	210
818.218	210
820.608	234
822.997	272
825.385	322
827.773	458
830.16	734
832.546	1074
834.931	1066
837.315	650
839.699	404
842.081	290
844.463	272
846.844	248
849.226	244
851.606	258
853.985	240
856.363	238
858.741	234
861.117	216
863.493	216
865.868	220
868.243	208
870.616	180
872.989	202
875.36	186
877.731	198
880.102	190
882.472	170
884.841	176
887.209	172
889.577	168
891.944	172
894.31	170
896.674	174
899.039	168
901.403	164
903.766	162
906.128	174
908.49	170
910.849	178
913.209	176
915.569	158
917.927	172
920.284	176
922.641	186
924.997	178
927.353	180
929.707	182
932.061	178
934.414	208
936.765	214
939.117	194
941.469	226
943.818	226
946.167	280
948.515	324
950.863	400
953.211	504
955.556	620
957.902	806
960.246	908
962.59	844
964.933	680
967.276	638
969.617	514
971.958	426
974.298	344
976.638	304
978.976	250
981.314	232
983.651	216
985.988	210
988.323	218
990.659	230
992.992	226
995.325	202
997.658	198
999.99	200
1002.32	176
1004.65	180
1006.98	200
1009.31	206
1011.64	200
1013.97	186
1016.29	208
1018.62	202
1020.94	228
1023.27	244
1025.59	250
1027.91	258
1030.24	262
1032.56	256
1034.88	288
1037.2	250
1039.52	266
1041.84	246
1044.15	238
1046.47	216
1048.79	212
1051.1	218
1053.42	192
1055.73	186
1058.04	180
1060.36	202
1062.67	198
1064.98	194
1067.29	194
1069.6	194
1071.91	206
1074.22	200
1076.52	194
1078.83	200
1081.14	204
1083.44	200
1085.75	200
1088.05	200
1090.35	192
1092.65	224
1094.95	218
1097.26	196
1099.56	232
1101.86	242
1104.15	278
1106.45	368
1108.75	542
1111.05	772
1113.34	884
1115.64	712
1117.93	506
1120.22	364
1122.52	294
1124.81	296
1127.1	262
1129.39	264
1131.68	244
1133.97	248
1136.26	238
1138.54	226
1140.83	254
1143.12	254
1145.4	232
1147.69	216
1149.97	206
1152.25	220
1154.54	236
1156.82	230
1159.1	258
1161.38	260
1163.66	292
1165.94	242
1168.22	264
1170.49	236
1172.77	236
1175.05	264
1177.32	282
1179.6	336
1181.87	404
1184.14	536
1186.42	596
1188.69	568
1190.96	480
1193.23	412
1195.5	410
1197.77	398
1200.03	432
1202.3	426
1204.57	462
1206.83	402
1209.1	358
1211.36	288
1213.63	264
1215.89	230
1218.15	242
1220.41	246
1222.67	250
1224.93	288
1227.19	312
1229.45	322
1231.71	322
1233.97	286
1236.22	266
1238.48	242
1240.73	224
1242.99	234
1245.24	226
1247.5	220
1249.75	222
1252	228
1254.25	218
1256.5	206
1258.75	234
1261	244
1263.25	232
1265.49	238
1267.74	248
1269.99	248
1272.23	264
1274.48	260
1276.72	286
1278.96	284
1281.21	304
1283.45	350
1285.69	352
1287.93	388
1290.17	428
1292.41	492
1294.64	558
1296.88	746
1299.12	1002
1301.36	1452
1303.59	1936
1305.82	2056
1308.06	1788
1310.29	1270
1312.52	946
1314.76	748
1316.99	624
1319.22	542
1321.45	504
1323.68	492
1325.9	468
1328.13	452
1330.36	432
1332.58	378
1334.81	362
1337.04	344
1339.26	334
1341.48	314
1343.71	322
1345.93	342
1348.15	378
1350.37	376
1352.59	376
1354.81	348
1357.03	332
1359.24	322
1361.46	298
1363.68	296
1365.89	326
1368.11	332
1370.32	374
1372.54	504
1374.75	698
1376.96	922
1379.17	1034
1381.38	986
1383.59	892
1385.8	716
1388.01	520
1390.22	402
1392.43	320
1394.63	268
1396.84	286
1399.05	268
1401.25	262
1403.45	254
1405.66	262
1407.86	288
1410.06	266
1412.26	276
1414.46	290
1416.66	312
1418.86	352
1421.06	356
1423.26	364
1425.46	404
1427.65	412
1429.85	400
1432.04	418
1434.24	446
1436.43	474
1438.62	482
1440.82	490
1443.01	482
1445.2	482
1447.39	410
1449.58	404
1451.77	378
1453.95	356
1456.14	378
1458.33	394
1460.52	356
1462.7	360
1464.89	380
1467.07	350
1469.25	342
1471.44	356
1473.62	358
1475.8	360
1477.98	328
1480.16	344
1482.34	322
1484.52	338
1486.7	292
1488.87	292
1491.05	278
1493.23	258
1495.4	294
1497.58	274
1499.75	296
1501.92	296
1504.1	278
1506.27	268
1508.44	288
1510.61	270
1512.78	260
1514.95	280
1517.12	282
1519.28	284
1521.45	270
1523.62	286
1525.78	262
1527.95	296
1530.11	276
1532.28	262
1534.44	276
1536.6	260
1538.76	262
1540.93	260
1543.09	258
1545.25	264
1547.41	282
1549.56	268
1551.72	272
1553.88	268
1556.03	272
1558.19	286
1560.35	292
1562.5	286
1564.65	292
1566.81	298
1568.96	286
1571.11	340
1573.26	346
1575.41	354
1577.56	380
1579.71	418
1581.86	436
1584.01	488
1586.15	560
1588.3	610
1590.45	752
1592.59	840
1594.74	998
1596.88	1154
1599.02	1322
1601.17	1400
1603.31	1466
1605.45	1308
1607.59	1192
1609.73	1124
1611.87	1002
1614.01	846
1616.14	686
1618.28	598
1620.42	526
1622.55	440
1624.69	394
1626.82	356
1628.96	320
1631.09	300
1633.22	266
1635.36	272
1637.49	260
1639.62	276
1641.75	248
1643.88	258
1646	262
1648.13	240
1650.26	232
1652.39	250
1654.51	232
1656.64	236
1658.76	236
1660.89	232
1663.01	236
1665.13	234
1667.26	212
1669.38	232
1671.5	222
1673.62	230
1675.74	230
1677.86	228
1679.97	240
1682.09	236
1684.21	238
1686.33	244
1688.44	248
1690.56	250
1692.67	248
1694.78	256
1696.9	236
1699.01	242
1701.12	256
1703.23	248
1705.34	240
1707.45	250
1709.56	236
1711.67	230
1713.78	240
1715.88	228
1717.99	218
1720.1	218
1722.2	202
1724.31	240
1726.41	212
1728.51	230
1730.62	206
1732.72	222
1734.82	222
1736.92	228
1739.02	222
1741.12	228
1743.22	204
1745.32	212
1747.42	220
1749.51	206
1751.61	224
1753.7	218
1755.8	210
1757.89	210
1759.99	208
1762.08	214
1764.17	220
1766.26	228
1768.36	204
1770.45	206
1772.54	204
1774.62	208
1776.71	230
1778.8	210
1780.89	220
1782.98	204
1785.06	226
1787.15	212
1789.23	216
1791.32	208
1793.4	210
1795.48	208
1797.56	220
1799.65	208
1801.73	202
1803.81	220
1805.89	200
1807.97	208
1810.04	224
1812.12	200
1814.2	208
1816.28	208
1818.35	206
1820.43	214
1822.5	208
1824.58	204
1826.65	216
1828.72	202
1830.79	200
1832.86	202
1834.94	214
1837.01	202
1839.08	222
1841.15	226
1843.21	214
1845.28	210
1847.35	206
1849.41	212
1851.48	204
1853.55	202
1855.61	206
1857.67	202
1859.74	216
1861.8	208
1863.86	208
1865.92	204
1867.98	212
1870.05	208
1872.1	218
1874.16	200
1876.22	222
1878.28	230
1880.34	218
1882.39	236
1884.45	212
1886.5	204
1888.56	220
1890.61	202
1892.67	214
1894.72	208
1896.77	200
1898.82	218
1900.87	206
1902.92	218
1904.97	224
1907.02	222
1909.07	204
1911.12	212
1913.17	208
1915.21	214
1917.26	220
1919.3	210
1921.35	224
1923.39	218
1925.43	224
1927.48	224
1929.52	210
1931.56	194
1933.6	202
1935.64	226
1937.68	214
1939.72	222
1941.76	222
1943.8	212
1945.83	216
1947.87	222
1949.91	212
1951.94	188
1953.98	224
1956.01	196
1958.05	204
1960.08	212
1962.11	208
1964.14	210
1966.17	218
1968.2	216
1970.23	206
1972.26	214
1974.29	200
1976.32	224
1978.35	218
1980.37	206
1982.4	212
1984.43	204
1986.45	226
1988.48	210
1990.5	198
1992.52	226
1994.55	214
1996.57	216
1998.59	206
2000.61	204
2002.63	210
2004.65	208
2006.67	214
2008.69	214
2010.7	226
2012.72	214
2014.74	218
2016.75	210
2018.77	206
2020.78	220
2022.8	204
2024.81	222
2026.83	212
2028.84	224
2030.85	220
2032.86	212
2034.87	218
2036.88	222
2038.89	206
2040.9	200
2042.91	214
2044.91	222
2046.92	212
2048.93	198
2050.93	208
2052.94	214
2054.94	202
2056.95	218
2058.95	198
2060.95	214
2062.95	202
2064.96	208
2066.96	212
2068.96	218
2070.96	224
2072.96	206
2074.95	206
2076.95	208
2078.95	226
2080.95	208
2082.94	212
2084.94	210
2086.93	210
2088.93	196
2090.92	224
2092.91	210
2094.91	226
2096.9	222
2098.89	202
2100.88	222
2102.87	214
2104.86	208
2106.85	202
2108.84	190
2110.83	196
2112.81	214
2114.8	214
2116.78	220
2118.77	218
2120.75	220
2122.74	210
2124.72	210
2126.71	228
2128.69	222
2130.67	226
2132.65	224
2134.63	212
2136.61	200
2138.59	216
2140.57	224
2142.55	204
2144.53	228
2146.5	198
2148.48	234
2150.46	208
2152.43	206
2154.41	214
2156.38	210
2158.35	214
2160.33	208
2162.3	214
2164.27	226
2166.24	206
2168.21	222
2170.18	210
2172.15	202
2174.12	210
2176.09	214
2178.06	206
2180.03	200
2181.99	210
2183.96	220
2185.92	222
2187.89	220
2189.85	222
2191.82	214
2193.78	190
2195.74	210
2197.7	208
2199.67	220
2201.63	216
2203.59	216
2205.55	202
2207.51	214
2209.46	194
2211.42	232
2213.38	232
2215.34	220
2217.29	206
2219.25	222
2221.2	228
2223.16	198
2225.11	220
2227.06	196
2229.02	216
2230.97	212
2232.92	224
2234.87	214
2236.82	204
2238.77	204
2240.72	208
2242.67	222
2244.62	200
2246.57	208
2248.51	206
2250.46	220
2252.4	218
2254.35	220
2256.29	214
2258.24	222
2260.18	198
2262.13	216
2264.07	216
2266.01	226
2267.95	224
2269.89	212
2271.83	222
2273.77	200
2275.71	214
2277.65	212
2279.58	200
2281.52	224
2283.46	218
2285.4	200
2287.33	214
2289.27	194
2291.2	218
2293.13	222
2295.07	206
2297	216
2298.93	226
2300.86	236
2302.79	202
2304.72	226
2306.65	208
2308.58	212
2310.51	220
2312.44	224
2314.37	210
2316.29	196
2318.22	224
2320.15	208
2322.07	224
2324	224
2325.92	232
2327.84	214
2329.77	216
2331.69	214
2333.61	238
2335.53	234
2337.45	222
2339.37	210
2341.29	212
2343.21	220
2345.13	216
2347.05	218
2348.97	226
2350.88	216
2352.8	210
2354.71	196
2356.63	210
2358.54	194
2360.46	208
2362.37	222
2364.28	212
2366.2	198
2368.11	214
2370.02	206
2371.93	218
2373.84	220
2375.75	214
2377.66	206
2379.57	220
2381.47	210
2383.38	222
2385.29	204
2387.2	196
2389.1	220
2391.01	222
2392.91	216
2394.81	208
2396.72	216
2398.62	210
2400.52	212
2402.42	212
2404.33	232
2406.23	218
2408.13	242
2410.03	218
2411.92	218
2413.82	226
2415.72	218
2417.62	222
2419.51	224
2421.41	210
2423.31	214
2425.2	200
2427.1	206
2428.99	208
2430.88	212
2432.78	216
2434.67	202
2436.56	214
2438.45	216
2440.34	218
2442.23	210
2444.12	208
2446.01	214
2447.9	222
2449.79	216