File: Mixture_Classification/Jesse_Dataset_v2/Pure Raman/Polypropylene oxide/633nm/ps-ppo-7jan25-0,0000-map2_Y09_X05.txt
182.393	660
184.993	648
187.593	640
190.193	626
192.79	586
195.387	546
197.983	526
200.578	506
203.174	506
205.766	526
208.36	480
210.951	466
213.542	422
216.131	436
218.721	474
221.309	518
223.897	556
226.483	710
229.069	920
231.654	1122
234.238	1212
236.821	1254
239.404	1090
241.984	994
244.566	870
247.145	736
249.723	614
252.302	540
254.878	478
257.455	414
260.03	382
262.604	334
265.178	326
267.75	280
270.322	286
272.893	272
275.463	266
278.032	276
280.601	292
283.168	310
285.734	380
288.301	458
290.866	524
293.429	560
295.992	616
298.556	604
301.117	550
303.677	484
306.236	450
308.795	424
311.354	362
313.911	382
316.467	374
319.022	352
321.577	364
324.13	366
326.684	368
329.236	362
331.787	412
334.337	390
336.887	394
339.435	386
341.983	368
344.529	336
347.075	340
349.621	358
352.165	348
354.708	346
357.251	362
359.793	334
362.334	328
364.874	314
367.413	308
369.951	330
372.489	296
375.026	332
377.562	296
380.097	274
382.631	280
385.164	268
387.697	230
390.229	244
392.76	242
395.29	246
397.819	222
400.346	252
402.873	238
405.4	246
407.926	280
410.451	300
412.976	328
415.499	366
418.02	350
420.542	308
423.063	262
425.583	266
428.101	234
430.619	212
433.137	208
435.654	202
438.169	184
440.684	172
443.198	180
445.712	186
448.223	164
450.735	166
453.246	184
455.755	176
458.264	184
460.771	188
463.279	190
465.786	216
468.291	234
470.796	260
473.301	300
475.803	356
478.306	382
480.807	444
483.308	472
485.807	486
488.307	450
490.804	358
493.302	290
495.798	266
498.294	242
500.788	222
503.283	214
505.775	236
508.269	246
510.759	334
513.251	388
515.74	378
518.23	322
520.718	282
523.204	296
525.692	322
528.177	386
530.663	488
533.147	564
535.629	692
538.113	764
540.594	752
543.074	696
545.555	566
548.034	462
550.512	398
552.989	384
555.467	434
557.942	508
560.417	662
562.892	986
565.365	1594
567.838	2584
570.309	3656
572.78	3596
575.251	2632
577.72	1544
580.189	934
582.656	718
585.123	652
587.589	594
590.055	566
592.52	508
594.983	474
597.446	434
599.908	398
602.369	320
604.829	264
607.289	230
609.747	242
612.205	202
614.663	220
617.119	204
619.574	216
622.029	252
624.483	242
626.936	254
629.389	282
631.84	316
634.291	318
636.741	308
639.19	290
641.639	284
644.086	260
646.533	232
648.979	230
651.424	218
653.869	210
656.313	202
658.754	190
661.196	192
663.638	172
666.078	172
668.518	154
670.957	190
673.394	168
675.831	168
678.268	160
680.703	164
683.137	158
685.571	168
688.005	170
690.437	168
692.868	162
695.299	178
697.729	166
700.159	172
702.586	168
705.014	166
707.441	188
709.866	190
712.292	208
714.716	254
717.14	244
719.563	228
721.984	198
724.406	210
726.825	208
729.246	198
731.665	206
734.082	210
736.5	220
738.916	224
741.332	246
743.746	254
746.161	322
748.574	330
750.987	306
753.398	288
755.81	282
758.219	252
760.629	216
763.037	202
765.445	188
767.852	172
770.258	196
772.664	196
775.068	204
777.472	208
779.876	230
782.278	222
784.679	226
787.08	196
789.48	194
791.879	194
794.278	188
796.675	190
799.072	196
801.467	186
803.864	202
806.258	206
808.651	216
811.044	212
813.437	216
815.828	218
818.218	228
820.608	224
822.997	276
825.385	330
827.773	500
830.16	810
832.546	1154
834.931	1106
837.315	662
839.699	402
842.081	286
844.463	282
846.844	274
849.226	274
851.606	240
853.985	252
856.363	250
858.741	248
861.117	214
863.493	214
865.868	204
868.243	206
870.616	186
872.989	190
875.36	196
877.731	202
880.102	186
882.472	182
884.841	206
887.209	174
889.577	168
891.944	180
894.31	194
896.674	176
899.039	168
901.403	188
903.766	172
906.128	196
908.49	192
910.849	170
913.209	176
915.569	180
917.927	170
920.284	182
922.641	178
924.997	168
927.353	202
929.707	192
932.061	192
934.414	218
936.765	212
939.117	224
941.469	234
943.818	228
946.167	294
948.515	358
950.863	410
953.211	568
955.556	674
957.902	842
960.246	952
962.59	912
964.933	766
967.276	628
969.617	512
971.958	462
974.298	380
976.638	302
978.976	270
981.314	260
983.651	232
985.988	228
988.323	234
990.659	238
992.992	246
995.325	216
997.658	204
999.99	186
1002.32	222
1004.65	188
1006.98	190
1009.31	194
1011.64	214
1013.97	202
1016.29	206
1018.62	232
1020.94	222
1023.27	244
1025.59	260
1027.91	274
1030.24	284
1032.56	264
1034.88	286
1037.2	266
1039.52	272
1041.84	272
1044.15	256
1046.47	238
1048.79	228
1051.1	218
1053.42	218
1055.73	218
1058.04	204
1060.36	192
1062.67	196
1064.98	204
1067.29	202
1069.6	200
1071.91	202
1074.22	208
1076.52	194
1078.83	192
1081.14	206
1083.44	200
1085.75	218
1088.05	208
1090.35	216
1092.65	220
1094.95	218
1097.26	214
1099.56	236
1101.86	254
1104.15	260
1106.45	348
1108.75	556
1111.05	814
1113.34	876
1115.64	724
1117.93	516
1120.22	364
1122.52	316
1124.81	272
1127.1	276
1129.39	276
1131.68	258
1133.97	256
1136.26	236
1138.54	252
1140.83	224
1143.12	248
1145.4	238
1147.69	238
1149.97	220
1152.25	244
1154.54	232
1156.82	232
1159.1	250
1161.38	268
1163.66	262
1165.94	258
1168.22	244
1170.49	254
1172.77	262
1175.05	270
1177.32	308
1179.6	352
1181.87	414
1184.14	532
1186.42	650
1188.69	622
1190.96	502
1193.23	418
1195.5	424
1197.77	396
1200.03	446
1202.3	458
1204.57	454
1206.83	420
1209.1	348
1211.36	298
1213.63	274
1215.89	262
1218.15	266
1220.41	236
1222.67	268
1224.93	268
1227.19	306
1229.45	350
1231.71	336
1233.97	308
1236.22	282
1238.48	252
1240.73	230
1242.99	232
1245.24	222
1247.5	232
1249.75	228
1252	220
1254.25	226
1256.5	204
1258.75	250
1261	232
1263.25	242
1265.49	234
1267.74	220
1269.99	260
1272.23	246
1274.48	276
1276.72	288
1278.96	306
1281.21	332
1283.45	334
1285.69	376
1287.93	406
1290.17	458
1292.41	488
1294.64	582
1296.88	782
1299.12	1062
1301.36	1534
1303.59	2018
1305.82	2144
1308.06	1802
1310.29	1310
1312.52	934
1314.76	750
1316.99	626
1319.22	550
1321.45	494
1323.68	456
1325.9	476
1328.13	472
1330.36	442
1332.58	410
1334.81	374
1337.04	348
1339.26	328
1341.48	334
1343.71	340
1345.93	370
1348.15	384
1350.37	384
1352.59	372
1354.81	346
1357.03	338
1359.24	330
1361.46	296
1363.68	302
1365.89	288
1368.11	340
1370.32	390
1372.54	522
1374.75	704
1376.96	966
1379.17	1058
1381.38	1014
1383.59	894
1385.8	728
1388.01	530
1390.22	394
1392.43	330
1394.63	312
1396.84	292
1399.05	286
1401.25	280
1403.45	260
1405.66	266
1407.86	288
1410.06	286
1412.26	274
1414.46	306
1416.66	338
1418.86	374
1421.06	378
1423.26	378
1425.46	430
1427.65	420
1429.85	420
1432.04	434
1434.24	470
1436.43	452
1438.62	486
1440.82	502
1443.01	496
1445.2	486
1447.39	424
1449.58	422
1451.77	404
1453.95	398
1456.14	382
1458.33	384
1460.52	360
1462.7	372
1464.89	358
1467.07	366
1469.25	386
1471.44	382
1473.62	330
1475.8	356
1477.98	350
1480.16	370
1482.34	364
1484.52	326
1486.7	314
1488.87	306
1491.05	298
1493.23	286
1495.4	294
1497.58	280
1499.75	294
1501.92	266
1504.1	262
1506.27	278
1508.44	264
1510.61	286
1512.78	262
1514.95	284
1517.12	266
1519.28	264
1521.45	258
1523.62	262
1525.78	284
1527.95	274
1530.11	258
1532.28	262
1534.44	266
1536.6	286
1538.76	252
1540.93	268
1543.09	272
1545.25	274
1547.41	304
1549.56	274
1551.72	262
1553.88	280
1556.03	300
1558.19	294
1560.35	314
1562.5	294
1564.65	296
1566.81	310
1568.96	312
1571.11	342
1573.26	352
1575.41	366
1577.56	364
1579.71	426
1581.86	430
1584.01	494
1586.15	580
1588.3	610
1590.45	730
1592.59	896
1594.74	1054
1596.88	1172
1599.02	1350
1601.17	1424
1603.31	1444
1605.45	1400
1607.59	1262
1609.73	1128
1611.87	970
1614.01	852
1616.14	756
1618.28	624
1620.42	500
1622.55	456
1624.69	408
1626.82	354
1628.96	338
1631.09	320
1633.22	308
1635.36	302
1637.49	272
1639.62	278
1641.75	238
1643.88	256
1646	236
1648.13	252
1650.26	234
1652.39	250
1654.51	254
1656.64	244
1658.76	268
1660.89	232
1663.01	250
1665.13	232
1667.26	220
1669.38	238
1671.5	214
1673.62	226
1675.74	228
1677.86	240
1679.97	246
1682.09	244
1684.21	224
1686.33	246
1688.44	236
1690.56	258
1692.67	244
1694.78	244
1696.9	256
1699.01	258
1701.12	262
1703.23	244
1705.34	268
1707.45	238
1709.56	242
1711.67	246
1713.78	222
1715.88	236
1717.99	248
1720.1	230
1722.2	220
1724.31	228
1726.41	228
1728.51	204
1730.62	204
1732.72	240
1734.82	216
1736.92	220
1739.02	226
1741.12	228
1743.22	214
1745.32	206
1747.42	252
1749.51	230
1751.61	218
1753.7	214
1755.8	214
1757.89	192
1759.99	206
1762.08	212
1764.17	236
1766.26	210
1768.36	210
1770.45	226
1772.54	210
1774.62	208
1776.71	228
1778.8	226
1780.89	222
1782.98	216
1785.06	206
1787.15	204
1789.23	220
1791.32	208
1793.4	228
1795.48	216
1797.56	218
1799.65	212
1801.73	218
1803.81	206
1805.89	200
1807.97	212
1810.04	200
1812.12	228
1814.2	204
1816.28	206
1818.35	224
1820.43	218
1822.5	216
1824.58	204
1826.65	216
1828.72	210
1830.79	222
1832.86	216
1834.94	204
1837.01	224
1839.08	200
1841.15	210
1843.21	200
1845.28	216
1847.35	214
1849.41	210
1851.48	208
1853.55	214
1855.61	214
1857.67	230
1859.74	226
1861.8	212
1863.86	226
1865.92	208
1867.98	208
1870.05	222
1872.1	192
1874.16	222
1876.22	212
1878.28	212
1880.34	218
1882.39	212
1884.45	204
1886.5	226
1888.56	214
1890.61	214
1892.67	202
1894.72	200
1896.77	224
1898.82	206
1900.87	206
1902.92	210
1904.97	232
1907.02	208
1909.07	220
1911.12	222
1913.17	208
1915.21	212
1917.26	220
1919.3	222
1921.35	206
1923.39	214
1925.43	216
1927.48	212
1929.52	204
1931.56	218
1933.6	214
1935.64	210
1937.68	214
1939.72	230
1941.76	206
1943.8	218
1945.83	212
1947.87	218
1949.91	224
1951.94	214
1953.98	204
1956.01	224
1958.05	206
1960.08	200
1962.11	212
1964.14	212
1966.17	198
1968.2	208
1970.23	220
1972.26	224
1974.29	214
1976.32	214
1978.35	204
1980.37	212
1982.4	222
1984.43	216
1986.45	212
1988.48	208
1990.5	218
1992.52	220
1994.55	212
1996.57	208
1998.59	210
2000.61	230
2002.63	214
2004.65	224
2006.67	216
2008.69	204
2010.7	218
2012.72	216
2014.74	216
2016.75	198
2018.77	200
2020.78	190
2022.8	214
2024.81	214
2026.83	206
2028.84	218
2030.85	188
2032.86	194
2034.87	204
2036.88	204
2038.89	214
2040.9	222
2042.91	212
2044.91	212
2046.92	210
2048.93	220
2050.93	206
2052.94	188
2054.94	216
2056.95	210
2058.95	206
2060.95	214
2062.95	206
2064.96	206
2066.96	218
2068.96	214
2070.96	218
2072.96	232
2074.95	214
2076.95	224
2078.95	224
2080.95	218
2082.94	210
2084.94	206
2086.93	222
2088.93	228
2090.92	198
2092.91	222
2094.91	212
2096.9	202
2098.89	220
2100.88	208
2102.87	198
2104.86	228
2106.85	226
2108.84	222
2110.83	198
2112.81	216
2114.8	214
2116.78	204
2118.77	202
2120.75	210
2122.74	220
2124.72	200
2126.71	210
2128.69	220
2130.67	212
2132.65	210
2134.63	218
2136.61	198
2138.59	204
2140.57	224
2142.55	214
2144.53	212
2146.5	226
2148.48	222
2150.46	214
2152.43	214
2154.41	192
2156.38	216
2158.35	226
2160.33	210
2162.3	200
2164.27	214
2166.24	212
2168.21	214
2170.18	208
2172.15	184
2174.12	220
2176.09	194
2178.06	208
2180.03	210
2181.99	208
2183.96	220
2185.92	224
2187.89	202
2189.85	194
2191.82	224
2193.78	206
2195.74	204
2197.7	198
2199.67	230
2201.63	224
2203.59	210
2205.55	220
2207.51	192
2209.46	222
2211.42	208
2213.38	220
2215.34	200
2217.29	198
2219.25	206
2221.2	204
2223.16	214
2225.11	198
2227.06	202
2229.02	222
2230.97	206
2232.92	202
2234.87	210
2236.82	216
2238.77	230
2240.72	186
2242.67	230
2244.62	208
2246.57	216
2248.51	222
2250.46	206
2252.4	202
2254.35	206
2256.29	210
2258.24	210
2260.18	204
2262.13	214
2264.07	210
2266.01	206
2267.95	208
2269.89	214
2271.83	214
2273.77	220
2275.71	212
2277.65	214
2279.58	224
2281.52	222
2283.46	206
2285.4	212
2287.33	208
2289.27	218
2291.2	208
2293.13	228
2295.07	202
2297	226
2298.93	218
2300.86	232
2302.79	208
2304.72	228
2306.65	218
2308.58	238
2310.51	218
2312.44	210
2314.37	222
2316.29	210
2318.22	238
2320.15	216
2322.07	224
2324	228
2325.92	214
2327.84	220
2329.77	210
2331.69	206
2333.61	226
2335.53	216
2337.45	208
2339.37	214
2341.29	210
2343.21	218
2345.13	228
2347.05	224
2348.97	208
2350.88	210
2352.8	206
2354.71	222
2356.63	208
2358.54	224
2360.46	216
2362.37	202
2364.28	210
2366.2	216
2368.11	208
2370.02	214
2371.93	202
2373.84	210
2375.75	208
2377.66	204
2379.57	206
2381.47	228
2383.38	220
2385.29	226
2387.2	212
2389.1	228
2391.01	222
2392.91	210
2394.81	224
2396.72	218
2398.62	210
2400.52	228
2402.42	224
2404.33	240
2406.23	216
2408.13	228
2410.03	224
2411.92	204
2413.82	210
2415.72	224
2417.62	220
2419.51	198
2421.41	208
2423.31	220
2425.2	202
2427.1	190
2428.99	226
2430.88	214
2432.78	210
2434.67	194
2436.56	206
2438.45	200
2440.34	222
2442.23	210
2444.12	212
2446.01	212
2447.9	210
2449.79	212