File: Mixture_Classification/Jesse_Dataset_v2/Pure Raman/Polypropylene oxide/633nm/ps-ppo-7jan25-0,0000-map2_Y06_X02.txt
182.393	680
184.993	630
187.593	636
190.193	598
192.79	580
195.387	578
197.983	540
200.578	502
203.174	520
205.766	488
208.36	488
210.951	474
213.542	440
216.131	430
218.721	462
221.309	518
223.897	574
226.483	750
229.069	956
231.654	1126
234.238	1240
236.821	1246
239.404	1110
241.984	982
244.566	862
247.145	756
249.723	626
252.302	550
254.878	466
257.455	402
260.03	354
262.604	324
265.178	296
267.75	278
270.322	290
272.893	280
275.463	292
278.032	288
280.601	296
283.168	342
285.734	366
288.301	444
290.866	518
293.429	592
295.992	632
298.556	604
301.117	566
303.677	470
306.236	444
308.795	424
311.354	398
313.911	382
316.467	374
319.022	368
321.577	356
324.13	348
326.684	376
329.236	390
331.787	378
334.337	416
336.887	374
339.435	398
341.983	364
344.529	354
347.075	320
349.621	358
352.165	346
354.708	358
357.251	348
359.793	326
362.334	338
364.874	310
367.413	316
369.951	322
372.489	338
375.026	344
377.562	302
380.097	284
382.631	266
385.164	250
387.697	248
390.229	242
392.76	240
395.29	244
397.819	224
400.346	234
402.873	232
405.4	258
407.926	256
410.451	298
412.976	366
415.499	340
418.02	332
420.542	326
423.063	276
425.583	238
428.101	230
430.619	200
433.137	202
435.654	210
438.169	172
440.684	174
443.198	178
445.712	166
448.223	162
450.735	154
453.246	154
455.755	166
458.264	170
460.771	174
463.279	170
465.786	194
468.291	224
470.796	252
473.301	312
475.803	344
478.306	406
480.807	454
483.308	474
485.807	500
488.307	438
490.804	336
493.302	276
495.798	256
498.294	222
500.788	214
503.283	206
505.775	214
508.269	254
510.759	350
513.251	394
515.74	360
518.23	288
520.718	276
523.204	302
525.692	304
528.177	374
530.663	444
533.147	604
535.629	690
538.113	764
540.594	752
543.074	648
545.555	564
548.034	440
550.512	388
552.989	366
555.467	406
557.942	518
560.417	674
562.892	988
565.365	1612
567.838	2712
570.309	3696
572.78	3736
575.251	2596
577.72	1544
580.189	932
582.656	708
585.123	650
587.589	598
590.055	534
592.52	514
594.983	512
597.446	436
599.908	380
602.369	298
604.829	264
607.289	232
609.747	234
612.205	222
614.663	200
617.119	210
619.574	214
622.029	240
624.483	244
626.936	276
629.389	296
631.84	292
634.291	294
636.741	316
639.19	322
641.639	282
644.086	234
646.533	244
648.979	232
651.424	208
653.869	196
656.313	204
658.754	190
661.196	184
663.638	176
666.078	186
668.518	166
670.957	160
673.394	164
675.831	146
678.268	170
680.703	158
683.137	150
685.571	172
688.005	150
690.437	156
692.868	154
695.299	146
697.729	162
700.159	182
702.586	160
705.014	174
707.441	194
709.866	196
712.292	232
714.716	232
717.14	220
719.563	206
721.984	204
724.406	206
726.825	196
729.246	202
731.665	202
734.082	208
736.5	222
738.916	202
741.332	254
743.746	264
746.161	318
748.574	330
750.987	312
753.398	280
755.81	276
758.219	240
760.629	224
763.037	196
765.445	196
767.852	172
770.258	188
772.664	186
775.068	200
777.472	204
779.876	196
782.278	214
784.679	210
787.08	204
789.48	192
791.879	204
794.278	172
796.675	178
799.072	162
801.467	190
803.864	180
806.258	196
808.651	216
811.044	202
813.437	196
815.828	214
818.218	210
820.608	218
822.997	282
825.385	326
827.773	476
830.16	782
832.546	1192
834.931	1070
837.315	668
839.699	392
842.081	304
844.463	278
846.844	260
849.226	256
851.606	242
853.985	250
856.363	234
858.741	234
861.117	230
863.493	198
865.868	204
868.243	192
870.616	202
872.989	184
875.36	186
877.731	182
880.102	176
882.472	188
884.841	174
887.209	198
889.577	184
891.944	158
894.31	166
896.674	178
899.039	164
901.403	170
903.766	172
906.128	164
908.49	178
910.849	188
913.209	176
915.569	186
917.927	168
920.284	172
922.641	172
924.997	188
927.353	192
929.707	176
932.061	192
934.414	186
936.765	204
939.117	204
941.469	240
943.818	262
946.167	264
948.515	342
950.863	408
953.211	532
955.556	684
957.902	848
960.246	932
962.59	842
964.933	694
967.276	638
969.617	530
971.958	446
974.298	366
976.638	304
978.976	242
981.314	228
983.651	210
985.988	218
988.323	224
990.659	232
992.992	214
995.325	202
997.658	184
999.99	198
1002.32	204
1004.65	200
1006.98	192
1009.31	196
1011.64	198
1013.97	198
1016.29	194
1018.62	212
1020.94	238
1023.27	232
1025.59	258
1027.91	256
1030.24	280
1032.56	280
1034.88	268
1037.2	272
1039.52	256
1041.84	244
1044.15	258
1046.47	226
1048.79	212
1051.1	210
1053.42	196
1055.73	206
1058.04	186
1060.36	194
1062.67	192
1064.98	198
1067.29	184
1069.6	190
1071.91	182
1074.22	210
1076.52	192
1078.83	192
1081.14	190
1083.44	204
1085.75	198
1088.05	212
1090.35	190
1092.65	202
1094.95	202
1097.26	222
1099.56	220
1101.86	242
1104.15	300
1106.45	374
1108.75	564
1111.05	838
1113.34	914
1115.64	724
1117.93	498
1120.22	366
1122.52	316
1124.81	280
1127.1	264
1129.39	250
1131.68	242
1133.97	234
1136.26	232
1138.54	250
1140.83	252
1143.12	244
1145.4	228
1147.69	216
1149.97	214
1152.25	202
1154.54	220
1156.82	232
1159.1	254
1161.38	254
1163.66	270
1165.94	272
1168.22	254
1170.49	258
1172.77	248
1175.05	294
1177.32	318
1179.6	350
1181.87	454
1184.14	544
1186.42	624
1188.69	622
1190.96	496
1193.23	436
1195.5	436
1197.77	422
1200.03	456
1202.3	456
1204.57	440
1206.83	442
1209.1	346
1211.36	304
1213.63	272
1215.89	232
1218.15	230
1220.41	238
1222.67	262
1224.93	272
1227.19	314
1229.45	334
1231.71	330
1233.97	316
1236.22	278
1238.48	236
1240.73	216
1242.99	216
1245.24	226
1247.5	208
1249.75	228
1252	240
1254.25	236
1256.5	202
1258.75	230
1261	246
1263.25	216
1265.49	226
1267.74	234
1269.99	250
1272.23	248
1274.48	256
1276.72	282
1278.96	302
1281.21	332
1283.45	344
1285.69	372
1287.93	406
1290.17	416
1292.41	492
1294.64	606
1296.88	746
1299.12	1098
1301.36	1582
1303.59	2052
1305.82	2192
1308.06	1806
1310.29	1326
1312.52	944
1314.76	738
1316.99	638
1319.22	532
1321.45	500
1323.68	462
1325.9	454
1328.13	472
1330.36	444
1332.58	434
1334.81	358
1337.04	340
1339.26	330
1341.48	354
1343.71	342
1345.93	368
1348.15	360
1350.37	388
1352.59	356
1354.81	354
1357.03	350
1359.24	290
1361.46	310
1363.68	312
1365.89	318
1368.11	318
1370.32	388
1372.54	540
1374.75	766
1376.96	938
1379.17	1096
1381.38	1038
1383.59	930
1385.8	672
1388.01	564
1390.22	416
1392.43	310
1394.63	276
1396.84	274
1399.05	248
1401.25	248
1403.45	250
1405.66	270
1407.86	278
1410.06	268
1412.26	272
1414.46	306
1416.66	306
1418.86	338
1421.06	372
1423.26	396
1425.46	404
1427.65	394
1429.85	402
1432.04	450
1434.24	438
1436.43	484
1438.62	502
1440.82	520
1443.01	486
1445.2	462
1447.39	434
1449.58	426
1451.77	380
1453.95	366
1456.14	376
1458.33	380
1460.52	380
1462.7	368
1464.89	350
1467.07	360
1469.25	368
1471.44	362
1473.62	342
1475.8	340
1477.98	368
1480.16	330
1482.34	354
1484.52	300
1486.7	304
1488.87	296
1491.05	284
1493.23	292
1495.4	272
1497.58	256
1499.75	286
1501.92	276
1504.1	262
1506.27	274
1508.44	272
1510.61	266
1512.78	264
1514.95	270
1517.12	264
1519.28	248
1521.45	258
1523.62	264
1525.78	272
1527.95	272
1530.11	274
1532.28	262
1534.44	248
1536.6	266
1538.76	270
1540.93	254
1543.09	250
1545.25	274
1547.41	284
1549.56	256
1551.72	270
1553.88	290
1556.03	304
1558.19	276
1560.35	304
1562.5	278
1564.65	284
1566.81	302
1568.96	292
1571.11	316
1573.26	358
1575.41	378
1577.56	386
1579.71	414
1581.86	470
1584.01	504
1586.15	576
1588.3	638
1590.45	772
1592.59	880
1594.74	1042
1596.88	1202
1599.02	1330
1601.17	1452
1603.31	1446
1605.45	1398
1607.59	1250
1609.73	1152
1611.87	1014
1614.01	860
1616.14	752
1618.28	622
1620.42	540
1622.55	454
1624.69	382
1626.82	360
1628.96	310
1631.09	296
1633.22	312
1635.36	270
1637.49	258
1639.62	252
1641.75	252
1643.88	260
1646	234
1648.13	228
1650.26	240
1652.39	236
1654.51	238
1656.64	242
1658.76	208
1660.89	230
1663.01	222
1665.13	238
1667.26	230
1669.38	236
1671.5	220
1673.62	224
1675.74	216
1677.86	222
1679.97	230
1682.09	218
1684.21	234
1686.33	244
1688.44	238
1690.56	228
1692.67	252
1694.78	262
1696.9	244
1699.01	236
1701.12	248
1703.23	226
1705.34	234
1707.45	230
1709.56	220
1711.67	232
1713.78	248
1715.88	222
1717.99	238
1720.1	232
1722.2	226
1724.31	210
1726.41	200
1728.51	220
1730.62	214
1732.72	198
1734.82	210
1736.92	224
1739.02	196
1741.12	220
1743.22	206
1745.32	214
1747.42	204
1749.51	202
1751.61	212
1753.7	208
1755.8	198
1757.89	190
1759.99	204
1762.08	196
1764.17	200
1766.26	210
1768.36	198
1770.45	188
1772.54	204
1774.62	190
1776.71	194
1778.8	194
1780.89	204
1782.98	216
1785.06	218
1787.15	206
1789.23	212
1791.32	188
1793.4	198
1795.48	206
1797.56	200
1799.65	216
1801.73	200
1803.81	204
1805.89	196
1807.97	210
1810.04	200
1812.12	206
1814.2	198
1816.28	188
1818.35	184
1820.43	190
1822.5	208
1824.58	194
1826.65	194
1828.72	210
1830.79	206
1832.86	194
1834.94	200
1837.01	194
1839.08	208
1841.15	192
1843.21	198
1845.28	198
1847.35	212
1849.41	192
1851.48	218
1853.55	202
1855.61	212
1857.67	202
1859.74	202
1861.8	200
1863.86	208
1865.92	204
1867.98	190
1870.05	212
1872.1	200
1874.16	224
1876.22	206
1878.28	206
1880.34	188
1882.39	200
1884.45	208
1886.5	208
1888.56	200
1890.61	200
1892.67	180
1894.72	210
1896.77	194
1898.82	212
1900.87	196
1902.92	186
1904.97	192
1907.02	200
1909.07	204
1911.12	204
1913.17	202
1915.21	188
1917.26	210
1919.3	230
1921.35	202
1923.39	206
1925.43	200
1927.48	198
1929.52	212
1931.56	216
1933.6	214
1935.64	184
1937.68	204
1939.72	218
1941.76	210
1943.8	196
1945.83	206
1947.87	210
1949.91	216
1951.94	196
1953.98	188
1956.01	204
1958.05	198
1960.08	202
1962.11	190
1964.14	206
1966.17	212
1968.2	206
1970.23	208
1972.26	198
1974.29	204
1976.32	198
1978.35	222
1980.37	192
1982.4	202
1984.43	220
1986.45	212
1988.48	210
1990.5	206
1992.52	188
1994.55	196
1996.57	196
1998.59	192
2000.61	208
2002.63	204
2004.65	194
2006.67	208
2008.69	200
2010.7	212
2012.72	210
2014.74	188
2016.75	198
2018.77	208
2020.78	212
2022.8	210
2024.81	216
2026.83	208
2028.84	194
2030.85	208
2032.86	206
2034.87	204
2036.88	214
2038.89	200
2040.9	222
2042.91	214
2044.91	188
2046.92	216
2048.93	202
2050.93	196
2052.94	216
2054.94	192
2056.95	204
2058.95	186
2060.95	196
2062.95	196
2064.96	206
2066.96	220
2068.96	208
2070.96	210
2072.96	216
2074.95	200
2076.95	216
2078.95	202
2080.95	208
2082.94	212
2084.94	174
2086.93	210
2088.93	202
2090.92	198
2092.91	210
2094.91	222
2096.9	208
2098.89	208
2100.88	210
2102.87	196
2104.86	206
2106.85	200
2108.84	206
2110.83	196
2112.81	210
2114.8	206
2116.78	196
2118.77	204
2120.75	198
2122.74	202
2124.72	204
2126.71	196
2128.69	208
2130.67	192
2132.65	208
2134.63	206
2136.61	196
2138.59	204
2140.57	208
2142.55	202
2144.53	222
2146.5	194
2148.48	204
2150.46	218
2152.43	204
2154.41	204
2156.38	210
2158.35	212
2160.33	206
2162.3	186
2164.27	204
2166.24	194
2168.21	206
2170.18	198
2172.15	214
2174.12	208
2176.09	202
2178.06	212
2180.03	218
2181.99	184
2183.96	198
2185.92	206
2187.89	186
2189.85	206
2191.82	200
2193.78	190
2195.74	206
2197.7	212
2199.67	208
2201.63	190
2203.59	190
2205.55	196
2207.51	206
2209.46	210
2211.42	210
2213.38	206
2215.34	208
2217.29	180
2219.25	204
2221.2	200
2223.16	212
2225.11	212
2227.06	196
2229.02	198
2230.97	192
2232.92	188
2234.87	202
2236.82	194
2238.77	216
2240.72	194
2242.67	186
2244.62	206
2246.57	212
2248.51	216
2250.46	186
2252.4	208
2254.35	218
2256.29	206
2258.24	204
2260.18	204
2262.13	202
2264.07	216
2266.01	220
2267.95	204
2269.89	208
2271.83	204
2273.77	214
2275.71	208
2277.65	212
2279.58	218
2281.52	212
2283.46	200
2285.4	192
2287.33	196
2289.27	218
2291.2	208
2293.13	202
2295.07	204
2297	206
2298.93	204
2300.86	212
2302.79	208
2304.72	194
2306.65	212
2308.58	196
2310.51	220
2312.44	216
2314.37	194
2316.29	218
2318.22	226
2320.15	198
2322.07	204
2324	206
2325.92	210
2327.84	204
2329.77	214
2331.69	218
2333.61	216
2335.53	212
2337.45	210
2339.37	198
2341.29	196
2343.21	202
2345.13	220
2347.05	208
2348.97	202
2350.88	198
2352.8	196
2354.71	220
2356.63	196
2358.54	200
2360.46	198
2362.37	218
2364.28	216
2366.2	204
2368.11	214
2370.02	218
2371.93	214
2373.84	212
2375.75	214
2377.66	194
2379.57	212
2381.47	220
2383.38	202
2385.29	222
2387.2	204
2389.1	208
2391.01	218
2392.91	200
2394.81	210
2396.72	210
2398.62	212
2400.52	216
2402.42	214
2404.33	208
2406.23	210
2408.13	210
2410.03	214
2411.92	218
2413.82	202
2415.72	216
2417.62	202
2419.51	214
2421.41	202
2423.31	204
2425.2	188
2427.1	206
2428.99	184
2430.88	204
2432.78	196
2434.67	194
2436.56	202
2438.45	206
2440.34	208
2442.23	202
2444.12	214
2446.01	196
2447.9	204
2449.79	206