File: Jesse_Dataset_v2/Pure Raman/Polystyrene/785nm/ps-ppo-6jan25-1,0000-map3_Y08_X02.txt
204.377	798
206.045	828
207.713	870
209.38	898
211.048	864
212.715	894
214.381	890
216.047	898
217.712	878
219.377	900
221.042	912
222.706	904
224.369	854
226.032	860
227.695	804
229.357	758
231.019	718
232.68	652
234.341	638
236.001	574
237.661	534
239.321	492
240.98	446
242.639	392
244.297	376
245.955	356
247.612	328
249.268	312
250.924	308
252.58	292
254.236	284
255.891	282
257.546	266
259.2	280
260.854	264
262.507	256
264.16	248
265.812	270
267.463	252
269.115	246
270.766	256
272.417	234
274.067	240
275.717	226
277.365	230
279.014	218
280.663	226
282.311	216
283.958	202
285.605	198
287.252	186
288.898	198
290.543	186
292.188	184
293.833	170
295.477	168
297.121	162
298.765	162
300.407	170
302.05	152
303.693	156
305.334	162
306.975	168
308.615	164
310.256	158
311.896	178
313.535	162
315.175	178
316.813	178
318.451	164
320.089	168
321.726	156
323.362	160
324.999	172
326.635	168
328.271	166
329.905	158
331.54	162
333.174	170
334.807	180
336.441	160
338.074	166
339.707	166
341.338	154
342.969	168
344.601	148
346.231	148
347.861	154
349.491	148
351.12	144
352.749	148
354.378	148
356.006	146
357.633	132
359.261	142
360.887	150
362.513	152
364.139	144
365.764	150
367.39	156
369.014	142
370.638	156
372.261	158
373.884	156
375.508	156
377.13	156
378.752	172
380.373	178
381.994	162
383.615	170
385.235	176
386.854	172
388.473	174
390.092	186
391.711	184
393.328	184
394.947	182
396.564	194
398.181	196
399.797	206
401.412	212
403.027	228
404.642	236
406.257	226
407.871	228
409.484	214
411.098	200
412.711	184
414.323	192
415.935	196
417.547	176
419.158	172
420.768	168
422.378	158
423.988	146
425.597	150
427.206	148
428.814	150
430.422	132
432.03	146
433.637	138
435.243	142
436.85	132
438.456	126
440.062	134
441.666	138
443.271	132
444.876	122
446.479	118
448.082	120
449.685	120
451.287	112
452.89	116
454.492	118
456.092	108
457.693	110
459.293	110
460.893	104
462.492	104
464.092	106
465.691	96
467.288	104
468.887	104
470.483	100
472.081	94
473.677	96
475.273	98
476.869	102
478.463	100
480.059	100
481.653	92
483.247	96
484.84	88
486.433	94
488.026	96
489.618	92
491.21	98
492.801	90
494.392	96
495.983	84
497.573	108
499.162	96
500.752	102
502.341	98
503.929	108
505.517	102
507.105	108
508.692	106
510.279	102
511.865	100
513.45	108
515.037	102
516.621	102
518.206	112
519.79	100
521.374	114
522.957	110
524.54	112
526.123	124
527.705	122
529.287	116
530.868	124
532.448	132
534.029	138
535.609	122
537.188	142
538.768	144
540.346	150
541.925	144
543.502	148
545.08	140
546.657	144
548.234	144
549.81	120
551.386	124
552.961	136
554.536	132
556.11	134
557.684	134
559.258	118
560.832	140
562.405	132
563.977	142
565.55	124
567.12	128
568.692	136
570.263	134
571.833	142
573.403	140
574.973	138
576.542	130
578.111	122
579.679	114
581.247	112
582.815	102
584.382	120
585.948	106
587.514	106
589.081	100
590.645	108
592.211	106
593.775	118
595.339	110
596.904	108
598.466	104
600.03	100
601.592	108
603.154	122
604.715	142
606.277	152
607.838	146
609.398	146
610.958	144
612.518	150
614.077	180
615.636	232
617.194	312
618.753	516
620.31	720
621.867	670
623.424	452
624.98	276
626.537	184
628.092	164
629.647	144
631.202	114
632.756	120
634.31	100
635.864	114
637.417	92
638.969	100
640.521	86
642.074	96
643.625	84
645.176	86
646.726	74
648.276	82
649.827	84
651.376	72
652.925	76
654.473	78
656.021	72
657.569	76
659.117	72
660.664	72
662.21	76
663.757	84
665.302	82
666.847	80
668.392	68
669.937	90
671.481	74
673.025	74
674.568	68
676.111	70
677.653	74
679.195	72
680.737	72
682.279	74
683.82	70
685.36	72
686.9	66
688.44	80
689.979	80
691.517	80
693.056	74
694.594	76
696.132	76
697.669	76
699.206	90
700.742	96
702.278	100
703.814	96
705.35	94
706.884	92
708.419	88
709.953	94
711.487	88
713.019	90
714.552	86
716.085	88
717.617	100
719.148	100
720.68	106
722.21	132
723.741	150
725.271	150
726.8	138
728.33	134
729.858	116
731.387	116
732.915	116
734.443	132
735.97	140
737.497	156
739.023	172
740.549	178
742.075	184
743.6	194
745.125	176
746.65	188
748.173	198
749.697	192
751.22	200
752.743	192
754.266	208
755.788	212
757.309	212
758.831	230
760.351	230
761.871	222
763.392	236
764.912	206
766.431	210
767.95	214
769.468	198
770.986	198
772.504	200
774.022	180
775.538	198
777.055	206
778.571	192
780.086	222
781.602	216
783.117	238
784.632	250
786.146	270
787.659	288
789.173	312
790.685	318
792.198	322
793.71	328
795.222	350
796.733	334
798.244	330
799.755	310
801.265	288
802.775	260
804.284	238
805.793	214
807.302	190
808.81	180
810.318	170
811.826	174
813.333	168
814.84	152
816.346	138
817.851	132
819.357	132
820.862	128
822.367	108
823.871	108
825.376	108
826.878	112
828.382	108
829.885	114
831.387	118
832.889	110
834.391	112
835.892	130
837.392	140
838.893	146
840.393	172
841.893	164
843.392	150
844.891	152
846.389	146
847.888	150
849.386	138
850.882	128
852.38	126
853.876	116
855.372	128
856.868	108
858.363	124
859.858	108
861.353	118
862.847	124
864.341	112
865.834	122
867.328	126
868.82	120
870.313	120
871.805	128
873.296	124
874.787	106
876.278	116
877.769	114
879.258	120
880.748	122
882.237	118
883.726	108
885.214	104
886.702	112
888.19	116
889.677	112
891.164	108
892.651	106
894.137	98
895.623	106
897.108	116
898.593	126
900.077	134
901.562	134
903.046	138
904.529	146
906.012	144
907.495	134
908.977	136
910.459	138
911.941	122
913.422	116
914.903	112
916.383	110
917.863	116
919.343	110
920.822	96
922.301	102
923.779	88
925.257	92
926.735	88
928.213	88
929.69	96
931.166	98
932.643	92
934.119	92
935.594	96
937.069	96
938.543	104
940.018	98
941.492	94
942.966	96
944.439	94
945.911	104
947.384	100
948.856	92
950.328	104
951.799	106
953.27	96
954.741	102
956.21	106
957.68	98
959.15	122
960.619	110
962.088	122
963.556	120
965.023	124
966.491	126
967.958	128
969.425	136
970.891	112
972.357	130
973.824	142
975.288	144
976.754	154
978.218	170
979.682	184
981.146	206
982.609	202
984.072	236
985.534	268
986.997	320
988.459	402
989.92	572
991.382	770
992.842	818
994.302	796
995.763	874
997.222	1226
998.681	2016
1000.14	2886
1001.6	3372
1003.06	2846
1004.52	1890
1005.97	1172
1007.43	662
1008.89	424
1010.34	312
1011.8	240
1013.25	198
1014.71	190
1016.16	186
1017.62	192
1019.07	194
1020.53	216
1021.98	254
1023.43	314
1024.89	358
1026.34	526
1027.79	622
1029.24	764
1030.69	866
1032.14	932
1033.59	816
1035.04	672
1036.49	510
1037.94	398
1039.39	342
1040.84	272
1042.29	226
1043.73	188
1045.18	166
1046.63	184
1048.08	172
1049.52	154
1050.97	156
1052.41	152
1053.86	156
1055.3	150
1056.75	156
1058.19	152
1059.64	136
1061.08	148
1062.52	160
1063.96	156
1065.41	162
1066.85	160
1068.29	174
1069.73	162
1071.17	182
1072.61	178
1074.05	176
1075.49	174
1076.93	172
1078.37	166
1079.81	172
1081.25	166
1082.68	176
1084.12	170
1085.56	164
1087	154
1088.43	158
1089.87	170
1091.3	162
1092.74	162
1094.17	154
1095.61	156
1097.04	166
1098.48	176
1099.91	162
1101.34	168
1102.78	158
1104.21	156
1105.64	146
1107.07	142
1108.5	130
1109.93	120
1111.36	132
1112.8	122
1114.22	132
1115.65	130
1117.08	124
1118.51	114
1119.94	116
1121.37	116
1122.8	110
1124.22	104
1125.65	104
1127.08	102
1128.5	104
1129.93	106
1131.35	94
1132.78	110
1134.2	104
1135.63	106
1137.05	102
1138.48	120
1139.9	126
1141.32	130
1142.75	136
1144.17	138
1145.59	162
1147.01	174
1148.43	194
1149.85	230
1151.27	274
1152.69	352
1154.11	400
1155.53	420
1156.95	388
1158.37	346
1159.79	280
1161.21	246
1162.62	230
1164.04	196
1165.46	204
1166.87	206
1168.29	208
1169.71	218
1171.12	222
1172.54	246
1173.95	258
1175.37	310
1176.78	332
1178.19	406
1179.61	482
1181.02	546
1182.43	512
1183.84	496
1185.26	464
1186.67	434
1188.08	434
1189.49	432
1190.9	474
1192.31	476
1193.72	468
1195.13	500
1196.54	486
1197.95	490
1199.36	484
1200.76	462
1202.17	446
1203.58	452
1204.99	404
1206.39	372
1207.8	350
1209.2	326
1210.61	280
1212.01	278
1213.42	238
1214.82	216
1216.23	224
1217.63	220
1219.03	200
1220.44	212
1221.84	210
1223.24	190
1224.64	198
1226.05	204
1227.45	192
1228.85	184
1230.25	182
1231.65	174
1233.05	174
1234.45	182
1235.85	170
1237.25	170
1238.64	170
1240.04	166
1241.44	158
1242.84	166
1244.23	170
1245.63	158
1247.03	160
1248.42	160
1249.82	166
1251.21	162
1252.61	158
1254	164
1255.4	168
1256.79	168
1258.19	164
1259.58	166
1260.97	152
1262.36	164
1263.76	176
1265.15	184
1266.54	166
1267.93	152
1269.32	160
1270.71	170
1272.1	160
1273.49	166
1274.88	154
1276.27	174
1277.66	158
1279.05	172
1280.43	170
1281.82	164
1283.21	162
1284.6	182
1285.98	176
1287.37	174
1288.75	174
1290.14	174
1291.53	170
1292.91	186
1294.29	198
1295.68	184
1297.06	196
1298.45	206
1299.83	204
1301.21	212
1302.59	204
1303.98	212
1305.36	220
1306.74	222
1308.12	212
1309.5	216
1310.88	234
1312.26	224
1313.64	246
1315.02	240
1316.4	240
1317.78	240
1319.16	250
1320.53	262
1321.91	256
1323.29	278
1324.67	280
1326.04	298
1327.42	292
1328.79	304
1330.17	296
1331.54	290
1332.92	274
1334.29	292
1335.67	282
1337.04	282
1338.42	280
1339.79	276
1341.16	258
1342.53	270
1343.91	264
1345.28	258
1346.65	270
1348.02	264
1349.39	264
1350.76	248
1352.13	272
1353.5	272
1354.87	270
1356.24	252
1357.61	262
1358.98	270
1360.34	260
1361.71	286
1363.08	284
1364.45	268
1365.81	270
1367.18	278
1368.54	276
1369.91	274
1371.28	264
1372.64	270
1374.01	274
1375.37	258
1376.73	272
1378.1	266
1379.46	268
1380.82	264
1382.19	256
1383.55	244
1384.91	236
1386.27	240
1387.63	250
1388.99	222
1390.35	232
1391.71	236
1393.07	234
1394.43	232
1395.79	234
1397.15	244
1398.51	228
1399.87	220
1401.23	246
1402.58	218
1403.94	226
1405.3	226
1406.65	234
1408.01	242
1409.37	232
1410.72	222
1412.08	232
1413.43	214
1414.79	218
1416.14	214
1417.49	208
1418.85	224
1420.2	214
1421.55	206
1422.91	214
1424.26	220
1425.61	226
1426.96	226
1428.31	206
1429.66	206
1431.01	222
1432.36	236
1433.71	242
1435.06	254
1436.41	252
1437.76	270
1439.11	282
1440.46	276
1441.81	290
1443.15	286
1444.5	300
1445.85	300
1447.19	328
1448.54	310
1449.89	318
1451.23	316
1452.58	310
1453.92	296
1455.27	282
1456.61	262
1457.95	236
1459.3	236
1460.64	234
1461.98	222
1463.33	192
1464.67	196
1466.01	192
1467.35	192
1468.69	190
1470.03	180
1471.37	188
1472.71	174
1474.05	194
1475.39	180
1476.73	184
1478.07	168
1479.41	170
1480.75	186
1482.09	178
1483.42	174
1484.76	172
1486.1	172
1487.43	180
1488.77	166
1490.11	186
1491.44	182
1492.78	166
1494.11	172
1495.45	176
1496.78	168
1498.12	162
1499.45	184
1500.78	174
1502.11	176
1503.45	166
1504.78	160
1506.11	166
1507.44	174
1508.77	172
1510.11	168
1511.44	172
1512.77	170
1514.1	164
1515.43	170
1516.76	154
1518.08	164
1519.41	144
1520.74	162
1522.07	146
1523.4	142
1524.72	152
1526.05	160
1527.38	170
1528.7	162
1530.03	156
1531.36	160
1532.68	152
1534.01	166
1535.33	160
1536.66	170
1537.98	162
1539.3	162
1540.63	160
1541.95	156
1543.27	160
1544.6	148
1545.92	140
1547.24	166
1548.56	162
1549.88	160
1551.2	154
1552.52	172
1553.84	156
1555.17	160
1556.48	160
1557.8	160
1559.12	150
1560.44	156
1561.76	166
1563.08	160
1564.4	152
1565.71	162
1567.03	176
1568.35	178
1569.66	176
1570.98	168
1572.29	186
1573.61	202
1574.93	212
1576.24	206
1577.55	252
1578.87	266
1580.18	332
1581.5	384
1582.81	414
1584.12	388
1585.43	338
1586.75	294
1588.06	272
1589.37	236
1590.68	252
1591.99	266
1593.3	280
1594.61	300
1595.92	344
1597.23	402
1598.54	512
1599.85	642
1601.16	666
1602.47	674
1603.78	662
1605.08	558
1606.39	478
1607.7	376
1609	310
1610.31	272
1611.62	242
1612.92	228
1614.23	206
1615.53	206
1616.84	176
1618.14	186
1619.45	176
1620.75	186
1622.06	176
1623.36	166
1624.66	162
1625.96	162
1627.27	164
1628.57	168
1629.87	156
1631.17	156
1632.47	150
1633.77	156
1635.07	138
1636.37	156
1637.67	156
1638.97	148
1640.27	132
1641.57	154
1642.87	144
1644.17	158
1645.47	148
1646.76	152
1648.06	148
1649.36	142
1650.66	154
1651.95	136
1653.25	138
1654.54	136
1655.84	134
1657.13	130
1658.43	142
1659.72	128
1661.02	134
1662.31	124
1663.6	136
1664.9	122
1666.19	128
1667.48	128
1668.78	124
1670.07	128
1671.36	136
1672.65	120
1673.94	118
1675.23	124
1676.52	126
1677.81	116
1679.1	124
1680.39	124
1681.68	122
1682.97	112
1684.26	120
1685.55	120
1686.83	112
1688.12	114
1689.41	120
1690.7	126
1691.98	128
1693.27	126
1694.55	116
1695.84	122
1697.13	114
1698.41	122
1699.69	116
1700.98	106
1702.26	124