File: Jesse_Dataset_v2/Pure Raman/Polystyrene/785nm/ps-ppo-6jan25-1,0000-map3_Y04_X03.txt
204.377	860
206.045	840
207.713	880
209.38	848
211.048	896
212.715	886
214.381	876
216.047	892
217.712	936
219.377	916
221.042	910
222.706	910
224.369	874
226.032	858
227.695	824
229.357	760
231.019	722
232.68	672
234.341	638
236.001	592
237.661	534
239.321	504
240.98	452
242.639	404
244.297	378
245.955	350
247.612	338
249.268	326
250.924	300
252.58	300
254.236	284
255.891	292
257.546	272
259.2	274
260.854	264
262.507	276
264.16	258
265.812	250
267.463	256
269.115	250
270.766	260
272.417	234
274.067	244
275.717	242
277.365	232
279.014	230
280.663	206
282.311	218
283.958	230
285.605	208
287.252	212
288.898	206
290.543	184
292.188	194
293.833	172
295.477	182
297.121	178
298.765	172
300.407	182
302.05	176
303.693	160
305.334	170
306.975	158
308.615	172
310.256	168
311.896	168
313.535	160
315.175	166
316.813	182
318.451	186
320.089	172
321.726	170
323.362	182
324.999	168
326.635	180
328.271	170
329.905	166
331.54	170
333.174	170
334.807	168
336.441	168
338.074	172
339.707	162
341.338	168
342.969	176
344.601	162
346.231	162
347.861	158
349.491	156
351.12	154
352.749	146
354.378	144
356.006	150
357.633	148
359.261	162
360.887	138
362.513	154
364.139	144
365.764	146
367.39	154
369.014	148
370.638	148
372.261	150
373.884	148
375.508	168
377.13	172
378.752	166
380.373	172
381.994	178
383.615	178
385.235	184
386.854	190
388.473	188
390.092	172
391.711	184
393.328	184
394.947	180
396.564	188
398.181	194
399.797	214
401.412	224
403.027	226
404.642	228
406.257	236
407.871	232
409.484	218
411.098	212
412.711	200
414.323	194
415.935	186
417.547	190
419.158	170
420.768	184
422.378	170
423.988	170
425.597	156
427.206	162
428.814	152
430.422	140
432.03	148
433.637	144
435.243	146
436.85	132
438.456	138
440.062	136
441.666	140
443.271	130
444.876	134
446.479	126
448.082	128
449.685	118
451.287	118
452.89	124
454.492	114
456.092	104
457.693	114
459.293	104
460.893	108
462.492	112
464.092	110
465.691	104
467.288	120
468.887	106
470.483	106
472.081	112
473.677	114
475.273	110
476.869	98
478.463	102
480.059	106
481.653	100
483.247	98
484.84	106
486.433	110
488.026	104
489.618	108
491.21	98
492.801	96
494.392	98
495.983	102
497.573	108
499.162	96
500.752	110
502.341	108
503.929	114
505.517	114
507.105	110
508.692	102
510.279	110
511.865	106
513.45	110
515.037	114
516.621	114
518.206	106
519.79	112
521.374	110
522.957	106
524.54	118
526.123	126
527.705	118
529.287	112
530.868	128
532.448	136
534.029	138
535.609	150
537.188	150
538.768	154
540.346	134
541.925	158
543.502	138
545.08	148
546.657	138
548.234	144
549.81	142
551.386	136
552.961	140
554.536	146
556.11	142
557.684	138
559.258	138
560.832	144
562.405	136
563.977	132
565.55	130
567.12	132
568.692	132
570.263	144
571.833	132
573.403	136
574.973	134
576.542	136
578.111	122
579.679	120
581.247	120
582.815	124
584.382	110
585.948	108
587.514	106
589.081	104
590.645	108
592.211	120
593.775	102
595.339	114
596.904	106
598.466	114
600.03	110
601.592	122
603.154	126
604.715	134
606.277	134
607.838	150
609.398	146
610.958	144
612.518	166
614.077	170
615.636	234
617.194	326
618.753	518
620.31	712
621.867	704
623.424	466
624.98	300
626.537	202
628.092	160
629.647	138
631.202	130
632.756	128
634.31	118
635.864	100
637.417	100
638.969	90
640.521	80
642.074	80
643.625	90
645.176	80
646.726	84
648.276	78
649.827	88
651.376	72
652.925	78
654.473	78
656.021	72
657.569	78
659.117	78
660.664	80
662.21	76
663.757	76
665.302	82
666.847	76
668.392	80
669.937	78
671.481	70
673.025	78
674.568	78
676.111	72
677.653	84
679.195	72
680.737	72
682.279	72
683.82	76
685.36	80
686.9	68
688.44	72
689.979	72
691.517	74
693.056	76
694.594	68
696.132	78
697.669	80
699.206	92
700.742	102
702.278	108
703.814	106
705.35	100
706.884	98
708.419	98
709.953	100
711.487	100
713.019	94
714.552	96
716.085	98
717.617	94
719.148	104
720.68	110
722.21	134
723.741	146
725.271	142
726.8	134
728.33	120
729.858	124
731.387	124
732.915	124
734.443	140
735.97	146
737.497	166
739.023	178
740.549	180
742.075	180
743.6	186
745.125	184
746.65	192
748.173	188
749.697	206
751.22	194
752.743	212
754.266	216
755.788	230
757.309	228
758.831	246
760.351	232
761.871	238
763.392	218
764.912	216
766.431	214
767.95	204
769.468	200
770.986	200
772.504	196
774.022	204
775.538	198
777.055	206
778.571	200
780.086	214
781.602	226
783.117	246
784.632	258
786.146	260
787.659	290
789.173	310
790.685	324
792.198	338
793.71	334
795.222	318
796.733	322
798.244	332
799.755	314
801.265	286
802.775	252
804.284	228
805.793	210
807.302	178
808.81	184
810.318	184
811.826	168
813.333	154
814.84	160
816.346	132
817.851	136
819.357	130
820.862	128
822.367	120
823.871	118
825.376	110
826.878	106
828.382	108
829.885	110
831.387	114
832.889	122
834.391	126
835.892	144
837.392	154
838.893	138
840.393	154
841.893	150
843.392	158
844.891	148
846.389	144
847.888	138
849.386	128
850.882	136
852.38	124
853.876	124
855.372	130
856.868	126
858.363	124
859.858	120
861.353	124
862.847	124
864.341	122
865.834	124
867.328	124
868.82	124
870.313	120
871.805	124
873.296	128
874.787	122
876.278	108
877.769	124
879.258	118
880.748	120
882.237	116
883.726	112
885.214	118
886.702	120
888.19	102
889.677	116
891.164	116
892.651	114
894.137	108
895.623	112
897.108	124
898.593	122
900.077	120
901.562	130
903.046	136
904.529	148
906.012	130
907.495	136
908.977	146
910.459	136
911.941	128
913.422	128
914.903	120
916.383	116
917.863	106
919.343	104
920.822	100
922.301	100
923.779	94
925.257	84
926.735	96
928.213	102
929.69	90
931.166	92
932.643	98
934.119	98
935.594	108
937.069	96
938.543	98
940.018	102
941.492	106
942.966	108
944.439	104
945.911	100
947.384	92
948.856	98
950.328	100
951.799	90
953.27	98
954.741	104
956.21	110
957.68	106
959.15	112
960.619	116
962.088	118
963.556	126
965.023	124
966.491	120
967.958	118
969.425	128
970.891	126
972.357	130
973.824	140
975.288	142
976.754	146
978.218	168
979.682	192
981.146	202
982.609	224
984.072	256
985.534	262
986.997	294
988.459	420
989.92	576
991.382	754
992.842	822
994.302	772
995.763	854
997.222	1224
998.681	1962
1000.14	2842
1001.6	3298
1003.06	2898
1004.52	1974
1005.97	1194
1007.43	706
1008.89	420
1010.34	334
1011.8	256
1013.25	204
1014.71	188
1016.16	180
1017.62	188
1019.07	208
1020.53	216
1021.98	252
1023.43	300
1024.89	386
1026.34	492
1027.79	668
1029.24	776
1030.69	856
1032.14	892
1033.59	838
1035.04	684
1036.49	532
1037.94	422
1039.39	330
1040.84	268
1042.29	226
1043.73	220
1045.18	170
1046.63	178
1048.08	178
1049.52	160
1050.97	158
1052.41	158
1053.86	168
1055.3	154
1056.75	158
1058.19	148
1059.64	164
1061.08	164
1062.52	160
1063.96	150
1065.41	168
1066.85	170
1068.29	178
1069.73	168
1071.17	168
1072.61	174
1074.05	166
1075.49	174
1076.93	164
1078.37	168
1079.81	168
1081.25	166
1082.68	154
1084.12	164
1085.56	166
1087	156
1088.43	164
1089.87	166
1091.3	166
1092.74	152
1094.17	184
1095.61	172
1097.04	170
1098.48	176
1099.91	162
1101.34	170
1102.78	176
1104.21	148
1105.64	154
1107.07	148
1108.5	130
1109.93	124
1111.36	148
1112.8	136
1114.22	128
1115.65	112
1117.08	124
1118.51	118
1119.94	114
1121.37	114
1122.8	102
1124.22	108
1125.65	100
1127.08	110
1128.5	102
1129.93	100
1131.35	104
1132.78	106
1134.2	98
1135.63	102
1137.05	114
1138.48	120
1139.9	124
1141.32	122
1142.75	134
1144.17	146
1145.59	158
1147.01	158
1148.43	190
1149.85	236
1151.27	296
1152.69	370
1154.11	404
1155.53	412
1156.95	380
1158.37	356
1159.79	304
1161.21	240
1162.62	222
1164.04	214
1165.46	196
1166.87	190
1168.29	208
1169.71	214
1171.12	220
1172.54	250
1173.95	254
1175.37	294
1176.78	334
1178.19	426
1179.61	476
1181.02	530
1182.43	516
1183.84	472
1185.26	438
1186.67	450
1188.08	432
1189.49	432
1190.9	470
1192.31	462
1193.72	494
1195.13	480
1196.54	490
1197.95	512
1199.36	480
1200.76	484
1202.17	472
1203.58	438
1204.99	408
1206.39	394
1207.8	334
1209.2	320
1210.61	306
1212.01	260
1213.42	248
1214.82	244
1216.23	232
1217.63	202
1219.03	202
1220.44	202
1221.84	200
1223.24	200
1224.64	206
1226.05	190
1227.45	190
1228.85	184
1230.25	190
1231.65	170
1233.05	158
1234.45	180
1235.85	168
1237.25	160
1238.64	170
1240.04	166
1241.44	162
1242.84	164
1244.23	172
1245.63	168
1247.03	170
1248.42	172
1249.82	166
1251.21	152
1252.61	168
1254	162
1255.4	168
1256.79	152
1258.19	158
1259.58	166
1260.97	162
1262.36	170
1263.76	160
1265.15	164
1266.54	168
1267.93	164
1269.32	176
1270.71	170
1272.1	156
1273.49	176
1274.88	164
1276.27	162
1277.66	164
1279.05	176
1280.43	182
1281.82	182
1283.21	172
1284.6	168
1285.98	180
1287.37	180
1288.75	176
1290.14	186
1291.53	196
1292.91	194
1294.29	198
1295.68	190
1297.06	190
1298.45	196
1299.83	198
1301.21	216
1302.59	210
1303.98	220
1305.36	214
1306.74	230
1308.12	234
1309.5	248
1310.88	234
1312.26	232
1313.64	238
1315.02	242
1316.4	250
1317.78	242
1319.16	264
1320.53	266
1321.91	268
1323.29	274
1324.67	260
1326.04	288
1327.42	288
1328.79	292
1330.17	314
1331.54	296
1332.92	280
1334.29	296
1335.67	314
1337.04	290
1338.42	284
1339.79	270
1341.16	250
1342.53	278
1343.91	252
1345.28	266
1346.65	262
1348.02	250
1349.39	266
1350.76	260
1352.13	264
1353.5	260
1354.87	270
1356.24	258
1357.61	270
1358.98	268
1360.34	260
1361.71	264
1363.08	268
1364.45	280
1365.81	284
1367.18	280
1368.54	284
1369.91	286
1371.28	278
1372.64	280
1374.01	280
1375.37	284
1376.73	290
1378.1	264
1379.46	260
1380.82	246
1382.19	246
1383.55	240
1384.91	234
1386.27	242
1387.63	252
1388.99	240
1390.35	226
1391.71	244
1393.07	238
1394.43	222
1395.79	216
1397.15	246
1398.51	228
1399.87	232
1401.23	236
1402.58	218
1403.94	232
1405.3	228
1406.65	220
1408.01	216
1409.37	240
1410.72	206
1412.08	224
1413.43	218
1414.79	230
1416.14	218
1417.49	226
1418.85	220
1420.2	208
1421.55	218
1422.91	216
1424.26	200
1425.61	232
1426.96	202
1428.31	220
1429.66	208
1431.01	220
1432.36	226
1433.71	230
1435.06	236
1436.41	238
1437.76	260
1439.11	268
1440.46	278
1441.81	298
1443.15	288
1444.5	300
1445.85	328
1447.19	348
1448.54	326
1449.89	352
1451.23	316
1452.58	326
1453.92	296
1455.27	288
1456.61	262
1457.95	248
1459.3	218
1460.64	230
1461.98	206
1463.33	204
1464.67	192
1466.01	206
1467.35	192
1468.69	192
1470.03	190
1471.37	194
1472.71	182
1474.05	176
1475.39	174
1476.73	180
1478.07	180
1479.41	192
1480.75	168
1482.09	168
1483.42	170
1484.76	180
1486.1	174
1487.43	166
1488.77	188
1490.11	172
1491.44	190
1492.78	174
1494.11	190
1495.45	188
1496.78	170
1498.12	172
1499.45	172
1500.78	166
1502.11	170
1503.45	170
1504.78	168
1506.11	160
1507.44	164
1508.77	164
1510.11	174
1511.44	168
1512.77	176
1514.1	164
1515.43	158
1516.76	166
1518.08	160
1519.41	156
1520.74	156
1522.07	166
1523.4	154
1524.72	166
1526.05	154
1527.38	146
1528.7	158
1530.03	164
1531.36	162
1532.68	168
1534.01	160
1535.33	158
1536.66	152
1537.98	154
1539.3	164
1540.63	162
1541.95	164
1543.27	166
1544.6	156
1545.92	164
1547.24	152
1548.56	164
1549.88	158
1551.2	160
1552.52	166
1553.84	160
1555.17	164
1556.48	166
1557.8	158
1559.12	164
1560.44	152
1561.76	164
1563.08	166
1564.4	168
1565.71	170
1567.03	176
1568.35	168
1569.66	170
1570.98	184
1572.29	194
1573.61	204
1574.93	214
1576.24	220
1577.55	222
1578.87	274
1580.18	330
1581.5	400
1582.81	436
1584.12	422
1585.43	352
1586.75	280
1588.06	270
1589.37	246
1590.68	236
1591.99	254
1593.3	274
1594.61	304
1595.92	354
1597.23	424
1598.54	516
1599.85	596
1601.16	686
1602.47	698
1603.78	624
1605.08	538
1606.39	462
1607.7	372
1609	324
1610.31	282
1611.62	238
1612.92	230
1614.23	204
1615.53	202
1616.84	190
1618.14	182
1619.45	178
1620.75	172
1622.06	172
1623.36	166
1624.66	170
1625.96	160
1627.27	158
1628.57	158
1629.87	146
1631.17	158
1632.47	142
1633.77	144
1635.07	148
1636.37	144
1637.67	156
1638.97	138
1640.27	148
1641.57	148
1642.87	146
1644.17	152
1645.47	156
1646.76	154
1648.06	154
1649.36	146
1650.66	134
1651.95	134
1653.25	142
1654.54	144
1655.84	140
1657.13	144
1658.43	134
1659.72	130
1661.02	128
1662.31	140
1663.6	140
1664.9	140
1666.19	124
1667.48	126
1668.78	124
1670.07	126
1671.36	130
1672.65	126
1673.94	132
1675.23	118
1676.52	124
1677.81	120
1679.1	132
1680.39	134
1681.68	126
1682.97	128
1684.26	124
1685.55	114
1686.83	126
1688.12	122
1689.41	126
1690.7	118
1691.98	116
1693.27	122
1694.55	122
1695.84	126
1697.13	122
1698.41	120
1699.69	118
1700.98	116
1702.26	116