File: Jesse_Dataset_v2/Pure Raman/Polystyrene/785nm/ps-ppo-6jan25-1,0000-map3_Y04_X02.txt
204.377	818
206.045	828
207.713	850
209.38	876
211.048	886
212.715	904
214.381	902
216.047	898
217.712	904
219.377	916
221.042	890
222.706	902
224.369	856
226.032	852
227.695	788
229.357	766
231.019	706
232.68	676
234.341	610
236.001	566
237.661	534
239.321	494
240.98	460
242.639	400
244.297	376
245.955	352
247.612	350
249.268	326
250.924	308
252.58	308
254.236	288
255.891	294
257.546	278
259.2	256
260.854	252
262.507	286
264.16	252
265.812	256
267.463	252
269.115	240
270.766	252
272.417	240
274.067	248
275.717	242
277.365	236
279.014	216
280.663	216
282.311	210
283.958	214
285.605	214
287.252	196
288.898	192
290.543	186
292.188	194
293.833	186
295.477	188
297.121	176
298.765	174
300.407	172
302.05	170
303.693	166
305.334	160
306.975	158
308.615	172
310.256	176
311.896	162
313.535	164
315.175	168
316.813	164
318.451	174
320.089	170
321.726	178
323.362	172
324.999	178
326.635	176
328.271	162
329.905	178
331.54	164
333.174	174
334.807	162
336.441	172
338.074	176
339.707	158
341.338	152
342.969	154
344.601	158
346.231	156
347.861	146
349.491	152
351.12	140
352.749	144
354.378	148
356.006	152
357.633	158
359.261	144
360.887	140
362.513	138
364.139	146
365.764	154
367.39	144
369.014	148
370.638	152
372.261	144
373.884	156
375.508	152
377.13	170
378.752	158
380.373	170
381.994	172
383.615	176
385.235	174
386.854	188
388.473	172
390.092	178
391.711	184
393.328	192
394.947	196
396.564	178
398.181	204
399.797	200
401.412	204
403.027	210
404.642	222
406.257	232
407.871	230
409.484	226
411.098	206
412.711	200
414.323	192
415.935	172
417.547	176
419.158	166
420.768	168
422.378	156
423.988	148
425.597	154
427.206	146
428.814	148
430.422	146
432.03	140
433.637	144
435.243	134
436.85	146
438.456	140
440.062	140
441.666	122
443.271	136
444.876	126
446.479	124
448.082	128
449.685	124
451.287	106
452.89	108
454.492	104
456.092	112
457.693	106
459.293	110
460.893	100
462.492	102
464.092	106
465.691	110
467.288	112
468.887	106
470.483	110
472.081	106
473.677	100
475.273	108
476.869	106
478.463	94
480.059	100
481.653	106
483.247	88
484.84	102
486.433	96
488.026	98
489.618	98
491.21	92
492.801	94
494.392	96
495.983	100
497.573	98
499.162	100
500.752	100
502.341	112
503.929	106
505.517	98
507.105	110
508.692	104
510.279	94
511.865	108
513.45	106
515.037	116
516.621	108
518.206	106
519.79	110
521.374	106
522.957	108
524.54	116
526.123	106
527.705	116
529.287	128
530.868	112
532.448	130
534.029	134
535.609	128
537.188	140
538.768	148
540.346	154
541.925	148
543.502	160
545.08	150
546.657	152
548.234	140
549.81	132
551.386	130
552.961	146
554.536	136
556.11	134
557.684	130
559.258	128
560.832	124
562.405	130
563.977	140
565.55	132
567.12	132
568.692	134
570.263	138
571.833	130
573.403	140
574.973	132
576.542	134
578.111	114
579.679	112
581.247	110
582.815	110
584.382	110
585.948	110
587.514	112
589.081	110
590.645	118
592.211	108
593.775	106
595.339	110
596.904	108
598.466	100
600.03	114
601.592	110
603.154	116
604.715	134
606.277	150
607.838	136
609.398	148
610.958	138
612.518	152
614.077	180
615.636	232
617.194	318
618.753	524
620.31	720
621.867	696
623.424	460
624.98	288
626.537	208
628.092	158
629.647	128
631.202	136
632.756	112
634.31	102
635.864	102
637.417	100
638.969	100
640.521	102
642.074	88
643.625	90
645.176	88
646.726	84
648.276	78
649.827	74
651.376	80
652.925	82
654.473	78
656.021	72
657.569	84
659.117	70
660.664	82
662.21	70
663.757	72
665.302	74
666.847	72
668.392	78
669.937	78
671.481	76
673.025	62
674.568	84
676.111	78
677.653	74
679.195	74
680.737	72
682.279	82
683.82	76
685.36	76
686.9	74
688.44	74
689.979	76
691.517	66
693.056	70
694.594	82
696.132	82
697.669	84
699.206	94
700.742	92
702.278	100
703.814	96
705.35	96
706.884	102
708.419	104
709.953	86
711.487	94
713.019	90
714.552	94
716.085	96
717.617	96
719.148	106
720.68	110
722.21	126
723.741	152
725.271	154
726.8	136
728.33	126
729.858	122
731.387	122
732.915	112
734.443	134
735.97	154
737.497	154
739.023	176
740.549	172
742.075	182
743.6	186
745.125	184
746.65	184
748.173	178
749.697	184
751.22	190
752.743	202
754.266	214
755.788	220
757.309	232
758.831	238
760.351	228
761.871	248
763.392	236
764.912	212
766.431	204
767.95	200
769.468	212
770.986	194
772.504	184
774.022	194
775.538	198
777.055	196
778.571	210
780.086	210
781.602	230
783.117	232
784.632	264
786.146	268
787.659	294
789.173	298
790.685	304
792.198	326
793.71	330
795.222	350
796.733	334
798.244	332
799.755	302
801.265	284
802.775	260
804.284	214
805.793	196
807.302	212
808.81	188
810.318	180
811.826	174
813.333	152
814.84	162
816.346	144
817.851	130
819.357	128
820.862	114
822.367	114
823.871	112
825.376	112
826.878	116
828.382	110
829.885	104
831.387	124
832.889	120
834.391	120
835.892	130
837.392	134
838.893	144
840.393	164
841.893	166
843.392	154
844.891	148
846.389	142
847.888	136
849.386	138
850.882	116
852.38	116
853.876	124
855.372	132
856.868	118
858.363	120
859.858	126
861.353	120
862.847	122
864.341	118
865.834	130
867.328	124
868.82	130
870.313	124
871.805	124
873.296	122
874.787	128
876.278	122
877.769	122
879.258	120
880.748	112
882.237	112
883.726	110
885.214	106
886.702	110
888.19	106
889.677	122
891.164	108
892.651	116
894.137	112
895.623	116
897.108	114
898.593	120
900.077	122
901.562	142
903.046	132
904.529	150
906.012	150
907.495	148
908.977	130
910.459	130
911.941	124
913.422	128
914.903	114
916.383	98
917.863	112
919.343	102
920.822	102
922.301	100
923.779	106
925.257	94
926.735	102
928.213	96
929.69	90
931.166	92
932.643	100
934.119	98
935.594	104
937.069	92
938.543	102
940.018	96
941.492	98
942.966	100
944.439	100
945.911	98
947.384	92
948.856	96
950.328	100
951.799	104
953.27	106
954.741	96
956.21	90
957.68	114
959.15	106
960.619	120
962.088	128
963.556	130
965.023	128
966.491	130
967.958	122
969.425	126
970.891	126
972.357	142
973.824	120
975.288	138
976.754	152
978.218	162
979.682	190
981.146	186
982.609	208
984.072	242
985.534	266
986.997	292
988.459	412
989.92	558
991.382	728
992.842	802
994.302	760
995.763	850
997.222	1206
998.681	1914
1000.14	2856
1001.6	3284
1003.06	2918
1004.52	1918
1005.97	1156
1007.43	692
1008.89	446
1010.34	304
1011.8	244
1013.25	222
1014.71	186
1016.16	182
1017.62	184
1019.07	202
1020.53	218
1021.98	238
1023.43	314
1024.89	378
1026.34	478
1027.79	616
1029.24	768
1030.69	880
1032.14	864
1033.59	832
1035.04	696
1036.49	486
1037.94	410
1039.39	302
1040.84	270
1042.29	224
1043.73	202
1045.18	190
1046.63	176
1048.08	156
1049.52	154
1050.97	150
1052.41	164
1053.86	146
1055.3	152
1056.75	152
1058.19	154
1059.64	152
1061.08	152
1062.52	146
1063.96	162
1065.41	156
1066.85	168
1068.29	178
1069.73	190
1071.17	174
1072.61	174
1074.05	170
1075.49	172
1076.93	156
1078.37	154
1079.81	162
1081.25	164
1082.68	172
1084.12	168
1085.56	162
1087	170
1088.43	158
1089.87	150
1091.3	168
1092.74	158
1094.17	174
1095.61	170
1097.04	156
1098.48	162
1099.91	172
1101.34	174
1102.78	162
1104.21	150
1105.64	142
1107.07	136
1108.5	122
1109.93	128
1111.36	128
1112.8	128
1114.22	114
1115.65	128
1117.08	120
1118.51	118
1119.94	114
1121.37	106
1122.8	100
1124.22	98
1125.65	106
1127.08	98
1128.5	106
1129.93	106
1131.35	98
1132.78	106
1134.2	110
1135.63	102
1137.05	116
1138.48	120
1139.9	124
1141.32	134
1142.75	146
1144.17	146
1145.59	152
1147.01	178
1148.43	178
1149.85	238
1151.27	280
1152.69	360
1154.11	394
1155.53	422
1156.95	382
1158.37	372
1159.79	278
1161.21	244
1162.62	230
1164.04	218
1165.46	200
1166.87	212
1168.29	210
1169.71	198
1171.12	224
1172.54	234
1173.95	248
1175.37	286
1176.78	342
1178.19	408
1179.61	484
1181.02	508
1182.43	520
1183.84	506
1185.26	442
1186.67	434
1188.08	410
1189.49	444
1190.9	456
1192.31	470
1193.72	502
1195.13	490
1196.54	498
1197.95	498
1199.36	504
1200.76	474
1202.17	476
1203.58	440
1204.99	412
1206.39	378
1207.8	346
1209.2	338
1210.61	300
1212.01	258
1213.42	254
1214.82	242
1216.23	226
1217.63	208
1219.03	214
1220.44	186
1221.84	212
1223.24	210
1224.64	202
1226.05	204
1227.45	200
1228.85	192
1230.25	190
1231.65	172
1233.05	168
1234.45	168
1235.85	176
1237.25	174
1238.64	154
1240.04	174
1241.44	164
1242.84	164
1244.23	168
1245.63	170
1247.03	162
1248.42	172
1249.82	170
1251.21	162
1252.61	168
1254	166
1255.4	156
1256.79	168
1258.19	180
1259.58	162
1260.97	182
1262.36	166
1263.76	172
1265.15	158
1266.54	160
1267.93	158
1269.32	168
1270.71	174
1272.1	170
1273.49	174
1274.88	174
1276.27	166
1277.66	170
1279.05	162
1280.43	182
1281.82	172
1283.21	182
1284.6	174
1285.98	172
1287.37	184
1288.75	170
1290.14	180
1291.53	196
1292.91	194
1294.29	192
1295.68	204
1297.06	192
1298.45	202
1299.83	194
1301.21	210
1302.59	222
1303.98	196
1305.36	222
1306.74	198
1308.12	220
1309.5	228
1310.88	234
1312.26	216
1313.64	228
1315.02	232
1316.4	252
1317.78	248
1319.16	258
1320.53	268
1321.91	272
1323.29	284
1324.67	290
1326.04	274
1327.42	282
1328.79	296
1330.17	300
1331.54	296
1332.92	304
1334.29	280
1335.67	274
1337.04	268
1338.42	264
1339.79	268
1341.16	252
1342.53	268
1343.91	266
1345.28	258
1346.65	258
1348.02	260
1349.39	268
1350.76	246
1352.13	262
1353.5	260
1354.87	260
1356.24	272
1357.61	260
1358.98	264
1360.34	266
1361.71	260
1363.08	266
1364.45	266
1365.81	278
1367.18	268
1368.54	258
1369.91	270
1371.28	272
1372.64	274
1374.01	272
1375.37	282
1376.73	282
1378.1	258
1379.46	256
1380.82	268
1382.19	242
1383.55	262
1384.91	242
1386.27	232
1387.63	232
1388.99	240
1390.35	238
1391.71	240
1393.07	226
1394.43	236
1395.79	218
1397.15	222
1398.51	216
1399.87	234
1401.23	224
1402.58	220
1403.94	240
1405.3	222
1406.65	222
1408.01	220
1409.37	230
1410.72	212
1412.08	214
1413.43	214
1414.79	208
1416.14	194
1417.49	206
1418.85	228
1420.2	214
1421.55	200
1422.91	210
1424.26	226
1425.61	214
1426.96	222
1428.31	226
1429.66	208
1431.01	226
1432.36	222
1433.71	236
1435.06	236
1436.41	244
1437.76	242
1439.11	264
1440.46	270
1441.81	284
1443.15	304
1444.5	302
1445.85	336
1447.19	320
1448.54	316
1449.89	324
1451.23	324
1452.58	314
1453.92	306
1455.27	282
1456.61	250
1457.95	240
1459.3	224
1460.64	214
1461.98	192
1463.33	206
1464.67	192
1466.01	194
1467.35	194
1468.69	190
1470.03	174
1471.37	182
1472.71	174
1474.05	194
1475.39	194
1476.73	180
1478.07	182
1479.41	174
1480.75	178
1482.09	180
1483.42	170
1484.76	166
1486.1	168
1487.43	184
1488.77	170
1490.11	166
1491.44	184
1492.78	184
1494.11	178
1495.45	178
1496.78	192
1498.12	176
1499.45	158
1500.78	168
1502.11	178
1503.45	158
1504.78	180
1506.11	158
1507.44	160
1508.77	150
1510.11	170
1511.44	164
1512.77	154
1514.1	154
1515.43	154
1516.76	162
1518.08	168
1519.41	170
1520.74	164
1522.07	158
1523.4	152
1524.72	166
1526.05	148
1527.38	158
1528.7	162
1530.03	160
1531.36	166
1532.68	152
1534.01	158
1535.33	164
1536.66	150
1537.98	162
1539.3	150
1540.63	160
1541.95	168
1543.27	164
1544.6	154
1545.92	156
1547.24	148
1548.56	164
1549.88	160
1551.2	152
1552.52	166
1553.84	158
1555.17	164
1556.48	160
1557.8	170
1559.12	164
1560.44	152
1561.76	160
1563.08	156
1564.4	164
1565.71	162
1567.03	168
1568.35	166
1569.66	170
1570.98	168
1572.29	188
1573.61	198
1574.93	202
1576.24	210
1577.55	236
1578.87	274
1580.18	324
1581.5	394
1582.81	424
1584.12	400
1585.43	348
1586.75	308
1588.06	252
1589.37	238
1590.68	234
1591.99	248
1593.3	270
1594.61	294
1595.92	358
1597.23	422
1598.54	504
1599.85	602
1601.16	676
1602.47	660
1603.78	652
1605.08	538
1606.39	458
1607.7	392
1609	334
1610.31	284
1611.62	250
1612.92	220
1614.23	202
1615.53	186
1616.84	188
1618.14	172
1619.45	178
1620.75	148
1622.06	174
1623.36	162
1624.66	154
1625.96	172
1627.27	162
1628.57	158
1629.87	146
1631.17	152
1632.47	134
1633.77	140
1635.07	152
1636.37	152
1637.67	136
1638.97	140
1640.27	150
1641.57	150
1642.87	158
1644.17	146
1645.47	158
1646.76	144
1648.06	154
1649.36	154
1650.66	148
1651.95	142
1653.25	142
1654.54	138
1655.84	138
1657.13	140
1658.43	136
1659.72	126
1661.02	124
1662.31	128
1663.6	134
1664.9	118
1666.19	122
1667.48	132
1668.78	128
1670.07	128
1671.36	128
1672.65	120
1673.94	126
1675.23	120
1676.52	122
1677.81	134
1679.1	128
1680.39	134
1681.68	110
1682.97	126
1684.26	128
1685.55	134
1686.83	122
1688.12	124
1689.41	124
1690.7	122
1691.98	130
1693.27	126
1694.55	114
1695.84	118
1697.13	122
1698.41	122
1699.69	118
1700.98	110
1702.26	118