File: Jesse_Dataset_v2/Pure Raman/Polystyrene/785nm/ps-ppo-6jan25-1,0000-map3_Y01_X09.txt
204.377	840
206.045	822
207.713	856
209.38	888
211.048	882
212.715	876
214.381	878
216.047	902
217.712	908
219.377	900
221.042	912
222.706	902
224.369	878
226.032	844
227.695	812
229.357	768
231.019	740
232.68	670
234.341	636
236.001	576
237.661	556
239.321	494
240.98	456
242.639	408
244.297	390
245.955	372
247.612	336
249.268	318
250.924	296
252.58	292
254.236	284
255.891	266
257.546	262
259.2	260
260.854	268
262.507	252
264.16	260
265.812	270
267.463	256
269.115	234
270.766	242
272.417	242
274.067	242
275.717	250
277.365	240
279.014	226
280.663	236
282.311	210
283.958	212
285.605	184
287.252	204
288.898	186
290.543	190
292.188	186
293.833	180
295.477	176
297.121	178
298.765	174
300.407	158
302.05	172
303.693	164
305.334	166
306.975	172
308.615	180
310.256	160
311.896	166
313.535	164
315.175	176
316.813	172
318.451	164
320.089	176
321.726	164
323.362	168
324.999	154
326.635	162
328.271	166
329.905	162
331.54	168
333.174	154
334.807	166
336.441	170
338.074	170
339.707	160
341.338	160
342.969	158
344.601	168
346.231	158
347.861	154
349.491	148
351.12	158
352.749	140
354.378	148
356.006	142
357.633	156
359.261	152
360.887	152
362.513	146
364.139	136
365.764	140
367.39	162
369.014	160
370.638	146
372.261	154
373.884	160
375.508	154
377.13	162
378.752	160
380.373	170
381.994	158
383.615	172
385.235	174
386.854	174
388.473	180
390.092	180
391.711	194
393.328	196
394.947	200
396.564	196
398.181	196
399.797	198
401.412	202
403.027	214
404.642	220
406.257	236
407.871	238
409.484	216
411.098	218
412.711	204
414.323	204
415.935	182
417.547	178
419.158	166
420.768	170
422.378	156
423.988	164
425.597	146
427.206	156
428.814	142
430.422	144
432.03	134
433.637	138
435.243	136
436.85	142
438.456	136
440.062	140
441.666	132
443.271	132
444.876	128
446.479	118
448.082	118
449.685	122
451.287	122
452.89	114
454.492	112
456.092	106
457.693	112
459.293	112
460.893	114
462.492	106
464.092	102
465.691	98
467.288	110
468.887	110
470.483	100
472.081	102
473.677	112
475.273	104
476.869	102
478.463	100
480.059	102
481.653	96
483.247	102
484.84	104
486.433	102
488.026	96
489.618	90
491.21	98
492.801	96
494.392	100
495.983	104
497.573	94
499.162	102
500.752	106
502.341	110
503.929	110
505.517	114
507.105	108
508.692	106
510.279	106
511.865	104
513.45	114
515.037	108
516.621	102
518.206	106
519.79	106
521.374	112
522.957	118
524.54	112
526.123	112
527.705	112
529.287	114
530.868	134
532.448	128
534.029	128
535.609	132
537.188	134
538.768	148
540.346	150
541.925	156
543.502	134
545.08	148
546.657	130
548.234	136
549.81	142
551.386	132
552.961	134
554.536	148
556.11	130
557.684	142
559.258	136
560.832	128
562.405	134
563.977	120
565.55	128
567.12	134
568.692	134
570.263	132
571.833	144
573.403	138
574.973	136
576.542	132
578.111	120
579.679	114
581.247	112
582.815	106
584.382	106
585.948	122
587.514	106
589.081	110
590.645	100
592.211	104
593.775	112
595.339	100
596.904	106
598.466	110
600.03	108
601.592	112
603.154	112
604.715	136
606.277	132
607.838	160
609.398	164
610.958	140
612.518	158
614.077	190
615.636	230
617.194	322
618.753	508
620.31	706
621.867	688
623.424	466
624.98	290
626.537	202
628.092	158
629.647	138
631.202	138
632.756	112
634.31	114
635.864	100
637.417	98
638.969	94
640.521	94
642.074	88
643.625	78
645.176	86
646.726	84
648.276	80
649.827	76
651.376	84
652.925	78
654.473	80
656.021	76
657.569	82
659.117	72
660.664	74
662.21	78
663.757	82
665.302	74
666.847	64
668.392	72
669.937	76
671.481	76
673.025	72
674.568	80
676.111	78
677.653	72
679.195	78
680.737	84
682.279	78
683.82	76
685.36	74
686.9	74
688.44	78
689.979	82
691.517	78
693.056	84
694.594	80
696.132	90
697.669	94
699.206	80
700.742	98
702.278	94
703.814	104
705.35	94
706.884	94
708.419	102
709.953	94
711.487	90
713.019	90
714.552	102
716.085	100
717.617	86
719.148	98
720.68	110
722.21	132
723.741	144
725.271	148
726.8	146
728.33	132
729.858	136
731.387	122
732.915	120
734.443	122
735.97	150
737.497	156
739.023	166
740.549	180
742.075	188
743.6	184
745.125	186
746.65	174
748.173	186
749.697	190
751.22	200
752.743	202
754.266	216
755.788	212
757.309	226
758.831	234
760.351	244
761.871	210
763.392	220
764.912	222
766.431	220
767.95	208
769.468	200
770.986	194
772.504	200
774.022	196
775.538	190
777.055	202
778.571	210
780.086	214
781.602	230
783.117	234
784.632	250
786.146	256
787.659	278
789.173	294
790.685	312
792.198	326
793.71	344
795.222	358
796.733	342
798.244	332
799.755	292
801.265	290
802.775	254
804.284	216
805.793	230
807.302	196
808.81	186
810.318	172
811.826	166
813.333	156
814.84	150
816.346	140
817.851	132
819.357	126
820.862	110
822.367	118
823.871	122
825.376	112
826.878	110
828.382	100
829.885	110
831.387	106
832.889	118
834.391	124
835.892	132
837.392	130
838.893	152
840.393	148
841.893	156
843.392	162
844.891	152
846.389	142
847.888	148
849.386	136
850.882	130
852.38	116
853.876	124
855.372	128
856.868	130
858.363	124
859.858	116
861.353	128
862.847	126
864.341	122
865.834	118
867.328	116
868.82	120
870.313	122
871.805	128
873.296	132
874.787	116
876.278	124
877.769	116
879.258	120
880.748	124
882.237	106
883.726	116
885.214	106
886.702	102
888.19	110
889.677	106
891.164	112
892.651	110
894.137	120
895.623	118
897.108	114
898.593	126
900.077	134
901.562	130
903.046	140
904.529	142
906.012	146
907.495	136
908.977	142
910.459	146
911.941	128
913.422	114
914.903	112
916.383	116
917.863	106
919.343	106
920.822	92
922.301	96
923.779	98
925.257	96
926.735	98
928.213	92
929.69	90
931.166	96
932.643	100
934.119	98
935.594	96
937.069	108
938.543	104
940.018	104
941.492	104
942.966	100
944.439	98
945.911	102
947.384	94
948.856	100
950.328	96
951.799	110
953.27	106
954.741	112
956.21	102
957.68	112
959.15	108
960.619	112
962.088	118
963.556	124
965.023	126
966.491	126
967.958	120
969.425	140
970.891	132
972.357	136
973.824	140
975.288	144
976.754	152
978.218	162
979.682	180
981.146	200
982.609	212
984.072	240
985.534	282
986.997	330
988.459	418
989.92	570
991.382	774
992.842	842
994.302	778
995.763	844
997.222	1190
998.681	1948
1000.14	2930
1001.6	3358
1003.06	2874
1004.52	2012
1005.97	1192
1007.43	704
1008.89	444
1010.34	304
1011.8	238
1013.25	210
1014.71	188
1016.16	192
1017.62	190
1019.07	186
1020.53	218
1021.98	260
1023.43	310
1024.89	396
1026.34	484
1027.79	622
1029.24	776
1030.69	872
1032.14	872
1033.59	824
1035.04	686
1036.49	534
1037.94	412
1039.39	322
1040.84	268
1042.29	228
1043.73	218
1045.18	186
1046.63	176
1048.08	168
1049.52	162
1050.97	160
1052.41	144
1053.86	168
1055.3	156
1056.75	158
1058.19	162
1059.64	146
1061.08	158
1062.52	166
1063.96	168
1065.41	170
1066.85	186
1068.29	180
1069.73	180
1071.17	168
1072.61	176
1074.05	170
1075.49	176
1076.93	170
1078.37	170
1079.81	172
1081.25	180
1082.68	178
1084.12	172
1085.56	158
1087	166
1088.43	156
1089.87	160
1091.3	176
1092.74	150
1094.17	160
1095.61	164
1097.04	166
1098.48	168
1099.91	184
1101.34	170
1102.78	160
1104.21	160
1105.64	150
1107.07	140
1108.5	140
1109.93	128
1111.36	128
1112.8	144
1114.22	120
1115.65	134
1117.08	124
1118.51	122
1119.94	130
1121.37	102
1122.8	104
1124.22	114
1125.65	116
1127.08	98
1128.5	102
1129.93	110
1131.35	102
1132.78	106
1134.2	120
1135.63	118
1137.05	116
1138.48	120
1139.9	122
1141.32	140
1142.75	142
1144.17	138
1145.59	160
1147.01	174
1148.43	202
1149.85	244
1151.27	292
1152.69	348
1154.11	394
1155.53	414
1156.95	380
1158.37	342
1159.79	302
1161.21	264
1162.62	218
1164.04	224
1165.46	214
1166.87	202
1168.29	198
1169.71	222
1171.12	214
1172.54	250
1173.95	268
1175.37	290
1176.78	360
1178.19	426
1179.61	488
1181.02	534
1182.43	520
1183.84	492
1185.26	442
1186.67	422
1188.08	418
1189.49	464
1190.9	440
1192.31	462
1193.72	500
1195.13	486
1196.54	506
1197.95	496
1199.36	492
1200.76	492
1202.17	464
1203.58	424
1204.99	404
1206.39	388
1207.8	338
1209.2	344
1210.61	282
1212.01	274
1213.42	250
1214.82	246
1216.23	210
1217.63	214
1219.03	210
1220.44	216
1221.84	204
1223.24	202
1224.64	204
1226.05	192
1227.45	200
1228.85	206
1230.25	188
1231.65	182
1233.05	172
1234.45	174
1235.85	180
1237.25	176
1238.64	174
1240.04	170
1241.44	188
1242.84	168
1244.23	154
1245.63	166
1247.03	176
1248.42	160
1249.82	168
1251.21	160
1252.61	176
1254	176
1255.4	174
1256.79	174
1258.19	170
1259.58	168
1260.97	176
1262.36	156
1263.76	174
1265.15	178
1266.54	180
1267.93	166
1269.32	158
1270.71	178
1272.1	162
1273.49	152
1274.88	166
1276.27	176
1277.66	170
1279.05	166
1280.43	168
1281.82	178
1283.21	170
1284.6	184
1285.98	180
1287.37	172
1288.75	198
1290.14	194
1291.53	206
1292.91	176
1294.29	194
1295.68	210
1297.06	216
1298.45	208
1299.83	206
1301.21	204
1302.59	220
1303.98	218
1305.36	220
1306.74	222
1308.12	222
1309.5	220
1310.88	222
1312.26	238
1313.64	246
1315.02	254
1316.4	258
1317.78	252
1319.16	266
1320.53	266
1321.91	292
1323.29	280
1324.67	280
1326.04	282
1327.42	286
1328.79	304
1330.17	318
1331.54	302
1332.92	314
1334.29	282
1335.67	298
1337.04	276
1338.42	270
1339.79	282
1341.16	264
1342.53	260
1343.91	268
1345.28	264
1346.65	270
1348.02	256
1349.39	268
1350.76	284
1352.13	278
1353.5	274
1354.87	282
1356.24	266
1357.61	276
1358.98	274
1360.34	276
1361.71	272
1363.08	264
1364.45	284
1365.81	280
1367.18	260
1368.54	302
1369.91	292
1371.28	276
1372.64	284
1374.01	270
1375.37	272
1376.73	274
1378.1	280
1379.46	262
1380.82	266
1382.19	264
1383.55	274
1384.91	272
1386.27	264
1387.63	256
1388.99	246
1390.35	234
1391.71	252
1393.07	244
1394.43	238
1395.79	244
1397.15	248
1398.51	244
1399.87	244
1401.23	234
1402.58	224
1403.94	240
1405.3	224
1406.65	216
1408.01	224
1409.37	232
1410.72	222
1412.08	242
1413.43	238
1414.79	228
1416.14	238
1417.49	226
1418.85	214
1420.2	228
1421.55	232
1422.91	210
1424.26	232
1425.61	208
1426.96	216
1428.31	212
1429.66	230
1431.01	232
1432.36	248
1433.71	250
1435.06	254
1436.41	266
1437.76	262
1439.11	280
1440.46	294
1441.81	288
1443.15	284
1444.5	312
1445.85	330
1447.19	332
1448.54	338
1449.89	332
1451.23	336
1452.58	308
1453.92	314
1455.27	284
1456.61	268
1457.95	258
1459.3	232
1460.64	244
1461.98	210
1463.33	214
1464.67	204
1466.01	202
1467.35	182
1468.69	202
1470.03	192
1471.37	188
1472.71	194
1474.05	182
1475.39	182
1476.73	188
1478.07	186
1479.41	170
1480.75	174
1482.09	182
1483.42	186
1484.76	176
1486.1	178
1487.43	174
1488.77	184
1490.11	192
1491.44	180
1492.78	184
1494.11	180
1495.45	190
1496.78	180
1498.12	166
1499.45	170
1500.78	172
1502.11	174
1503.45	172
1504.78	162
1506.11	176
1507.44	168
1508.77	178
1510.11	170
1511.44	188
1512.77	172
1514.1	172
1515.43	176
1516.76	158
1518.08	154
1519.41	168
1520.74	164
1522.07	174
1523.4	178
1524.72	174
1526.05	158
1527.38	160
1528.7	168
1530.03	176
1531.36	158
1532.68	156
1534.01	162
1535.33	164
1536.66	168
1537.98	160
1539.3	168
1540.63	154
1541.95	160
1543.27	172
1544.6	170
1545.92	156
1547.24	160
1548.56	160
1549.88	156
1551.2	168
1552.52	176
1553.84	162
1555.17	168
1556.48	156
1557.8	158
1559.12	160
1560.44	166
1561.76	158
1563.08	154
1564.4	172
1565.71	172
1567.03	176
1568.35	172
1569.66	156
1570.98	184
1572.29	188
1573.61	194
1574.93	220
1576.24	210
1577.55	238
1578.87	276
1580.18	320
1581.5	402
1582.81	416
1584.12	410
1585.43	356
1586.75	308
1588.06	268
1589.37	252
1590.68	240
1591.99	284
1593.3	268
1594.61	292
1595.92	354
1597.23	422
1598.54	526
1599.85	632
1601.16	688
1602.47	682
1603.78	648
1605.08	576
1606.39	468
1607.7	400
1609	318
1610.31	272
1611.62	244
1612.92	236
1614.23	214
1615.53	208
1616.84	182
1618.14	180
1619.45	172
1620.75	188
1622.06	164
1623.36	184
1624.66	154
1625.96	162
1627.27	170
1628.57	158
1629.87	162
1631.17	144
1632.47	150
1633.77	150
1635.07	144
1636.37	146
1637.67	146
1638.97	142
1640.27	160
1641.57	154
1642.87	148
1644.17	160
1645.47	158
1646.76	154
1648.06	158
1649.36	152
1650.66	158
1651.95	146
1653.25	160
1654.54	144
1655.84	140
1657.13	128
1658.43	134
1659.72	136
1661.02	140
1662.31	126
1663.6	134
1664.9	140
1666.19	124
1667.48	138
1668.78	130
1670.07	146
1671.36	128
1672.65	130
1673.94	142
1675.23	132
1676.52	124
1677.81	126
1679.1	142
1680.39	136
1681.68	134
1682.97	130
1684.26	124
1685.55	130
1686.83	134
1688.12	124
1689.41	128
1690.7	114
1691.98	122
1693.27	122
1694.55	126
1695.84	122
1697.13	124
1698.41	114
1699.69	134
1700.98	126
1702.26	130