File: Jesse_Dataset_v2/Pure Raman/Polystyrene/785nm/ps-ppo-6jan25-1,0000-map3_Y02_X09.txt
204.377	808
206.045	822
207.713	868
209.38	888
211.048	876
212.715	924
214.381	868
216.047	930
217.712	918
219.377	910
221.042	896
222.706	908
224.369	888
226.032	838
227.695	802
229.357	772
231.019	738
232.68	696
234.341	616
236.001	584
237.661	520
239.321	508
240.98	456
242.639	410
244.297	392
245.955	358
247.612	342
249.268	312
250.924	320
252.58	310
254.236	286
255.891	286
257.546	280
259.2	256
260.854	280
262.507	258
264.16	262
265.812	256
267.463	256
269.115	242
270.766	244
272.417	246
274.067	238
275.717	232
277.365	246
279.014	214
280.663	208
282.311	226
283.958	198
285.605	210
287.252	198
288.898	194
290.543	182
292.188	184
293.833	176
295.477	178
297.121	168
298.765	170
300.407	164
302.05	156
303.693	172
305.334	162
306.975	162
308.615	162
310.256	168
311.896	168
313.535	166
315.175	178
316.813	180
318.451	174
320.089	168
321.726	166
323.362	166
324.999	172
326.635	180
328.271	166
329.905	180
331.54	174
333.174	176
334.807	168
336.441	160
338.074	164
339.707	164
341.338	164
342.969	162
344.601	160
346.231	156
347.861	156
349.491	152
351.12	158
352.749	152
354.378	160
356.006	132
357.633	158
359.261	152
360.887	138
362.513	142
364.139	152
365.764	154
367.39	146
369.014	144
370.638	148
372.261	152
373.884	160
375.508	164
377.13	160
378.752	160
380.373	156
381.994	168
383.615	168
385.235	192
386.854	168
388.473	184
390.092	190
391.711	184
393.328	192
394.947	182
396.564	192
398.181	188
399.797	200
401.412	190
403.027	212
404.642	224
406.257	226
407.871	230
409.484	216
411.098	218
412.711	198
414.323	194
415.935	182
417.547	166
419.158	166
420.768	172
422.378	166
423.988	150
425.597	152
427.206	130
428.814	140
430.422	154
432.03	144
433.637	146
435.243	140
436.85	148
438.456	130
440.062	132
441.666	134
443.271	138
444.876	136
446.479	134
448.082	128
449.685	118
451.287	126
452.89	118
454.492	118
456.092	108
457.693	108
459.293	104
460.893	110
462.492	96
464.092	98
465.691	106
467.288	98
468.887	106
470.483	106
472.081	100
473.677	104
475.273	96
476.869	100
478.463	96
480.059	102
481.653	102
483.247	90
484.84	96
486.433	106
488.026	86
489.618	98
491.21	102
492.801	90
494.392	104
495.983	96
497.573	102
499.162	106
500.752	102
502.341	102
503.929	116
505.517	102
507.105	102
508.692	106
510.279	110
511.865	106
513.45	98
515.037	108
516.621	112
518.206	112
519.79	112
521.374	108
522.957	108
524.54	96
526.123	114
527.705	124
529.287	122
530.868	130
532.448	134
534.029	138
535.609	146
537.188	148
538.768	154
540.346	158
541.925	128
543.502	146
545.08	132
546.657	144
548.234	138
549.81	138
551.386	136
552.961	126
554.536	144
556.11	140
557.684	138
559.258	134
560.832	136
562.405	134
563.977	122
565.55	138
567.12	148
568.692	130
570.263	128
571.833	142
573.403	148
574.973	124
576.542	138
578.111	132
579.679	110
581.247	124
582.815	118
584.382	104
585.948	108
587.514	106
589.081	108
590.645	106
592.211	106
593.775	104
595.339	106
596.904	100
598.466	116
600.03	120
601.592	116
603.154	116
604.715	136
606.277	144
607.838	158
609.398	160
610.958	148
612.518	156
614.077	182
615.636	228
617.194	314
618.753	504
620.31	708
621.867	676
623.424	466
624.98	280
626.537	196
628.092	158
629.647	150
631.202	126
632.756	128
634.31	116
635.864	110
637.417	104
638.969	92
640.521	94
642.074	90
643.625	86
645.176	78
646.726	86
648.276	80
649.827	78
651.376	76
652.925	86
654.473	72
656.021	76
657.569	78
659.117	80
660.664	84
662.21	72
663.757	86
665.302	80
666.847	74
668.392	82
669.937	72
671.481	76
673.025	76
674.568	74
676.111	70
677.653	84
679.195	76
680.737	70
682.279	74
683.82	78
685.36	78
686.9	80
688.44	74
689.979	76
691.517	82
693.056	74
694.594	78
696.132	72
697.669	86
699.206	96
700.742	92
702.278	90
703.814	100
705.35	102
706.884	92
708.419	98
709.953	94
711.487	98
713.019	96
714.552	94
716.085	90
717.617	102
719.148	102
720.68	126
722.21	130
723.741	144
725.271	158
726.8	142
728.33	130
729.858	134
731.387	116
732.915	118
734.443	134
735.97	146
737.497	164
739.023	170
740.549	174
742.075	176
743.6	188
745.125	184
746.65	196
748.173	188
749.697	198
751.22	216
752.743	204
754.266	220
755.788	228
757.309	222
758.831	208
760.351	230
761.871	230
763.392	210
764.912	214
766.431	194
767.95	222
769.468	202
770.986	198
772.504	204
774.022	194
775.538	192
777.055	196
778.571	206
780.086	194
781.602	212
783.117	234
784.632	248
786.146	276
787.659	292
789.173	316
790.685	312
792.198	334
793.71	338
795.222	346
796.733	340
798.244	316
799.755	312
801.265	282
802.775	242
804.284	214
805.793	206
807.302	190
808.81	192
810.318	184
811.826	164
813.333	166
814.84	148
816.346	144
817.851	130
819.357	130
820.862	128
822.367	114
823.871	114
825.376	108
826.878	100
828.382	118
829.885	112
831.387	122
832.889	126
834.391	130
835.892	132
837.392	138
838.893	154
840.393	156
841.893	152
843.392	158
844.891	146
846.389	144
847.888	142
849.386	136
850.882	134
852.38	118
853.876	128
855.372	126
856.868	116
858.363	126
859.858	124
861.353	128
862.847	128
864.341	124
865.834	122
867.328	116
868.82	120
870.313	128
871.805	120
873.296	122
874.787	130
876.278	124
877.769	120
879.258	108
880.748	122
882.237	114
883.726	110
885.214	116
886.702	128
888.19	102
889.677	108
891.164	114
892.651	100
894.137	110
895.623	122
897.108	124
898.593	126
900.077	132
901.562	136
903.046	144
904.529	144
906.012	142
907.495	144
908.977	144
910.459	134
911.941	124
913.422	122
914.903	118
916.383	106
917.863	98
919.343	106
920.822	102
922.301	114
923.779	94
925.257	100
926.735	102
928.213	102
929.69	94
931.166	90
932.643	96
934.119	90
935.594	106
937.069	94
938.543	96
940.018	102
941.492	106
942.966	100
944.439	100
945.911	90
947.384	102
948.856	110
950.328	106
951.799	110
953.27	98
954.741	102
956.21	102
957.68	118
959.15	116
960.619	104
962.088	124
963.556	128
965.023	126
966.491	132
967.958	122
969.425	118
970.891	128
972.357	132
973.824	138
975.288	142
976.754	150
978.218	172
979.682	176
981.146	198
982.609	236
984.072	244
985.534	268
986.997	330
988.459	392
989.92	556
991.382	782
992.842	826
994.302	794
995.763	864
997.222	1240
998.681	1954
1000.14	2916
1001.6	3328
1003.06	2880
1004.52	1952
1005.97	1206
1007.43	684
1008.89	438
1010.34	314
1011.8	246
1013.25	202
1014.71	194
1016.16	178
1017.62	186
1019.07	190
1020.53	222
1021.98	256
1023.43	298
1024.89	392
1026.34	496
1027.79	628
1029.24	776
1030.69	864
1032.14	904
1033.59	822
1035.04	692
1036.49	528
1037.94	412
1039.39	318
1040.84	252
1042.29	242
1043.73	210
1045.18	172
1046.63	180
1048.08	160
1049.52	160
1050.97	172
1052.41	158
1053.86	158
1055.3	170
1056.75	146
1058.19	160
1059.64	156
1061.08	152
1062.52	164
1063.96	170
1065.41	164
1066.85	178
1068.29	172
1069.73	170
1071.17	170
1072.61	172
1074.05	182
1075.49	180
1076.93	174
1078.37	168
1079.81	170
1081.25	176
1082.68	162
1084.12	160
1085.56	162
1087	168
1088.43	174
1089.87	154
1091.3	166
1092.74	174
1094.17	160
1095.61	180
1097.04	176
1098.48	168
1099.91	168
1101.34	174
1102.78	172
1104.21	138
1105.64	150
1107.07	144
1108.5	132
1109.93	136
1111.36	120
1112.8	136
1114.22	128
1115.65	132
1117.08	122
1118.51	122
1119.94	120
1121.37	106
1122.8	102
1124.22	106
1125.65	102
1127.08	112
1128.5	108
1129.93	114
1131.35	116
1132.78	110
1134.2	100
1135.63	110
1137.05	120
1138.48	126
1139.9	128
1141.32	136
1142.75	136
1144.17	146
1145.59	162
1147.01	170
1148.43	184
1149.85	238
1151.27	288
1152.69	368
1154.11	392
1155.53	430
1156.95	410
1158.37	352
1159.79	280
1161.21	258
1162.62	232
1164.04	228
1165.46	210
1166.87	200
1168.29	220
1169.71	218
1171.12	222
1172.54	240
1173.95	264
1175.37	304
1176.78	368
1178.19	394
1179.61	464
1181.02	502
1182.43	540
1183.84	518
1185.26	474
1186.67	446
1188.08	422
1189.49	436
1190.9	444
1192.31	492
1193.72	502
1195.13	494
1196.54	494
1197.95	490
1199.36	466
1200.76	496
1202.17	462
1203.58	442
1204.99	406
1206.39	388
1207.8	342
1209.2	318
1210.61	286
1212.01	264
1213.42	252
1214.82	224
1216.23	212
1217.63	226
1219.03	208
1220.44	202
1221.84	200
1223.24	198
1224.64	188
1226.05	200
1227.45	204
1228.85	186
1230.25	190
1231.65	174
1233.05	176
1234.45	178
1235.85	180
1237.25	166
1238.64	174
1240.04	164
1241.44	166
1242.84	168
1244.23	170
1245.63	180
1247.03	172
1248.42	152
1249.82	172
1251.21	168
1252.61	154
1254	172
1255.4	164
1256.79	162
1258.19	174
1259.58	170
1260.97	164
1262.36	170
1263.76	172
1265.15	184
1266.54	174
1267.93	170
1269.32	178
1270.71	174
1272.1	180
1273.49	156
1274.88	182
1276.27	178
1277.66	160
1279.05	178
1280.43	176
1281.82	176
1283.21	180
1284.6	182
1285.98	178
1287.37	198
1288.75	192
1290.14	190
1291.53	196
1292.91	198
1294.29	190
1295.68	212
1297.06	184
1298.45	216
1299.83	218
1301.21	214
1302.59	224
1303.98	216
1305.36	226
1306.74	222
1308.12	222
1309.5	236
1310.88	236
1312.26	226
1313.64	236
1315.02	246
1316.4	234
1317.78	254
1319.16	264
1320.53	276
1321.91	280
1323.29	270
1324.67	276
1326.04	302
1327.42	302
1328.79	304
1330.17	314
1331.54	300
1332.92	298
1334.29	294
1335.67	300
1337.04	286
1338.42	274
1339.79	286
1341.16	290
1342.53	292
1343.91	264
1345.28	262
1346.65	264
1348.02	256
1349.39	270
1350.76	260
1352.13	262
1353.5	262
1354.87	268
1356.24	270
1357.61	272
1358.98	264
1360.34	288
1361.71	264
1363.08	290
1364.45	274
1365.81	288
1367.18	292
1368.54	292
1369.91	280
1371.28	296
1372.64	286
1374.01	282
1375.37	286
1376.73	274
1378.1	280
1379.46	276
1380.82	258
1382.19	260
1383.55	254
1384.91	268
1386.27	244
1387.63	256
1388.99	238
1390.35	240
1391.71	244
1393.07	248
1394.43	244
1395.79	236
1397.15	236
1398.51	236
1399.87	252
1401.23	236
1402.58	230
1403.94	246
1405.3	228
1406.65	238
1408.01	238
1409.37	232
1410.72	236
1412.08	232
1413.43	232
1414.79	222
1416.14	214
1417.49	214
1418.85	230
1420.2	226
1421.55	220
1422.91	222
1424.26	224
1425.61	222
1426.96	232
1428.31	244
1429.66	228
1431.01	236
1432.36	246
1433.71	252
1435.06	244
1436.41	264
1437.76	288
1439.11	282
1440.46	288
1441.81	294
1443.15	300
1444.5	320
1445.85	308
1447.19	336
1448.54	328
1449.89	336
1451.23	326
1452.58	320
1453.92	326
1455.27	302
1456.61	282
1457.95	252
1459.3	238
1460.64	230
1461.98	222
1463.33	206
1464.67	222
1466.01	204
1467.35	190
1468.69	198
1470.03	180
1471.37	190
1472.71	192
1474.05	192
1475.39	202
1476.73	198
1478.07	190
1479.41	166
1480.75	188
1482.09	182
1483.42	192
1484.76	186
1486.1	184
1487.43	184
1488.77	176
1490.11	182
1491.44	178
1492.78	196
1494.11	178
1495.45	180
1496.78	174
1498.12	180
1499.45	174
1500.78	178
1502.11	180
1503.45	188
1504.78	172
1506.11	158
1507.44	168
1508.77	166
1510.11	164
1511.44	174
1512.77	166
1514.1	160
1515.43	168
1516.76	156
1518.08	164
1519.41	182
1520.74	176
1522.07	162
1523.4	164
1524.72	164
1526.05	168
1527.38	162
1528.7	176
1530.03	170
1531.36	156
1532.68	172
1534.01	160
1535.33	160
1536.66	174
1537.98	156
1539.3	168
1540.63	162
1541.95	178
1543.27	174
1544.6	164
1545.92	158
1547.24	158
1548.56	166
1549.88	160
1551.2	166
1552.52	170
1553.84	166
1555.17	162
1556.48	160
1557.8	174
1559.12	182
1560.44	162
1561.76	154
1563.08	168
1564.4	156
1565.71	170
1567.03	180
1568.35	176
1569.66	178
1570.98	180
1572.29	180
1573.61	202
1574.93	198
1576.24	212
1577.55	242
1578.87	270
1580.18	324
1581.5	406
1582.81	422
1584.12	420
1585.43	354
1586.75	286
1588.06	270
1589.37	250
1590.68	252
1591.99	264
1593.3	274
1594.61	308
1595.92	342
1597.23	422
1598.54	524
1599.85	598
1601.16	676
1602.47	672
1603.78	652
1605.08	546
1606.39	462
1607.7	384
1609	334
1610.31	278
1611.62	242
1612.92	228
1614.23	210
1615.53	206
1616.84	176
1618.14	186
1619.45	162
1620.75	186
1622.06	172
1623.36	166
1624.66	170
1625.96	164
1627.27	154
1628.57	168
1629.87	150
1631.17	142
1632.47	158
1633.77	152
1635.07	146
1636.37	148
1637.67	158
1638.97	154
1640.27	128
1641.57	160
1642.87	150
1644.17	158
1645.47	150
1646.76	156
1648.06	154
1649.36	152
1650.66	152
1651.95	148
1653.25	152
1654.54	146
1655.84	132
1657.13	148
1658.43	134
1659.72	118
1661.02	128
1662.31	126
1663.6	138
1664.9	130
1666.19	130
1667.48	140
1668.78	138
1670.07	128
1671.36	136
1672.65	146
1673.94	124
1675.23	130
1676.52	130
1677.81	128
1679.1	124
1680.39	126
1681.68	134
1682.97	126
1684.26	134
1685.55	128
1686.83	120
1688.12	116
1689.41	124
1690.7	132
1691.98	122
1693.27	110
1694.55	122
1695.84	124
1697.13	126
1698.41	116
1699.69	128
1700.98	122
1702.26	126