File: Jesse_Dataset_v2/Pure Raman/Polystyrene/785nm/ps-ppo-6jan25-1,0000-map3_Y09_X05.txt
204.377	816
206.045	852
207.713	866
209.38	896
211.048	896
212.715	924
214.381	940
216.047	914
217.712	910
219.377	928
221.042	910
222.706	900
224.369	872
226.032	874
227.695	812
229.357	780
231.019	718
232.68	688
234.341	632
236.001	600
237.661	538
239.321	500
240.98	458
242.639	410
244.297	388
245.955	350
247.612	350
249.268	326
250.924	302
252.58	312
254.236	284
255.891	282
257.546	294
259.2	276
260.854	268
262.507	262
264.16	272
265.812	268
267.463	248
269.115	258
270.766	244
272.417	240
274.067	248
275.717	244
277.365	230
279.014	220
280.663	216
282.311	222
283.958	220
285.605	202
287.252	204
288.898	202
290.543	186
292.188	192
293.833	174
295.477	168
297.121	170
298.765	160
300.407	184
302.05	170
303.693	172
305.334	178
306.975	170
308.615	168
310.256	166
311.896	168
313.535	172
315.175	156
316.813	184
318.451	184
320.089	164
321.726	176
323.362	172
324.999	162
326.635	166
328.271	176
329.905	172
331.54	162
333.174	170
334.807	182
336.441	164
338.074	172
339.707	176
341.338	158
342.969	166
344.601	158
346.231	168
347.861	166
349.491	156
351.12	156
352.749	160
354.378	150
356.006	152
357.633	154
359.261	160
360.887	154
362.513	150
364.139	160
365.764	156
367.39	158
369.014	160
370.638	150
372.261	156
373.884	154
375.508	170
377.13	168
378.752	158
380.373	170
381.994	182
383.615	178
385.235	184
386.854	178
388.473	198
390.092	202
391.711	190
393.328	196
394.947	210
396.564	206
398.181	192
399.797	208
401.412	220
403.027	208
404.642	234
406.257	228
407.871	230
409.484	216
411.098	216
412.711	208
414.323	194
415.935	190
417.547	176
419.158	176
420.768	162
422.378	160
423.988	162
425.597	160
427.206	152
428.814	152
430.422	146
432.03	142
433.637	146
435.243	150
436.85	140
438.456	136
440.062	126
441.666	140
443.271	138
444.876	140
446.479	138
448.082	126
449.685	122
451.287	132
452.89	114
454.492	124
456.092	108
457.693	108
459.293	104
460.893	106
462.492	110
464.092	112
465.691	104
467.288	118
468.887	112
470.483	102
472.081	108
473.677	106
475.273	100
476.869	106
478.463	110
480.059	104
481.653	106
483.247	102
484.84	96
486.433	96
488.026	94
489.618	92
491.21	96
492.801	106
494.392	100
495.983	106
497.573	102
499.162	104
500.752	108
502.341	120
503.929	122
505.517	118
507.105	114
508.692	102
510.279	114
511.865	116
513.45	116
515.037	104
516.621	104
518.206	112
519.79	108
521.374	108
522.957	124
524.54	128
526.123	128
527.705	124
529.287	130
530.868	136
532.448	136
534.029	146
535.609	134
537.188	146
538.768	142
540.346	146
541.925	146
543.502	150
545.08	146
546.657	154
548.234	144
549.81	150
551.386	136
552.961	152
554.536	146
556.11	140
557.684	136
559.258	140
560.832	138
562.405	136
563.977	132
565.55	130
567.12	138
568.692	138
570.263	148
571.833	144
573.403	144
574.973	136
576.542	138
578.111	130
579.679	128
581.247	120
582.815	116
584.382	114
585.948	110
587.514	112
589.081	108
590.645	118
592.211	116
593.775	108
595.339	118
596.904	116
598.466	114
600.03	116
601.592	116
603.154	130
604.715	136
606.277	160
607.838	158
609.398	150
610.958	150
612.518	150
614.077	184
615.636	232
617.194	322
618.753	546
620.31	694
621.867	674
623.424	448
624.98	288
626.537	210
628.092	160
629.647	150
631.202	138
632.756	124
634.31	114
635.864	110
637.417	104
638.969	106
640.521	86
642.074	94
643.625	92
645.176	86
646.726	88
648.276	82
649.827	78
651.376	80
652.925	74
654.473	78
656.021	80
657.569	78
659.117	78
660.664	74
662.21	76
663.757	74
665.302	76
666.847	78
668.392	76
669.937	82
671.481	76
673.025	80
674.568	78
676.111	76
677.653	76
679.195	78
680.737	78
682.279	72
683.82	78
685.36	76
686.9	80
688.44	74
689.979	80
691.517	74
693.056	84
694.594	80
696.132	96
697.669	86
699.206	96
700.742	92
702.278	94
703.814	108
705.35	106
706.884	94
708.419	94
709.953	100
711.487	100
713.019	92
714.552	102
716.085	104
717.617	110
719.148	108
720.68	120
722.21	136
723.741	146
725.271	154
726.8	146
728.33	120
729.858	126
731.387	122
732.915	134
734.443	140
735.97	150
737.497	156
739.023	174
740.549	188
742.075	176
743.6	184
745.125	182
746.65	172
748.173	184
749.697	194
751.22	200
752.743	216
754.266	220
755.788	212
757.309	222
758.831	230
760.351	238
761.871	222
763.392	234
764.912	222
766.431	238
767.95	220
769.468	202
770.986	180
772.504	200
774.022	206
775.538	202
777.055	204
778.571	196
780.086	206
781.602	210
783.117	248
784.632	272
786.146	280
787.659	284
789.173	308
790.685	304
792.198	352
793.71	340
795.222	356
796.733	344
798.244	334
799.755	308
801.265	282
802.775	240
804.284	228
805.793	208
807.302	206
808.81	188
810.318	174
811.826	178
813.333	168
814.84	144
816.346	140
817.851	140
819.357	124
820.862	122
822.367	116
823.871	122
825.376	110
826.878	118
828.382	116
829.885	124
831.387	116
832.889	124
834.391	122
835.892	126
837.392	136
838.893	158
840.393	154
841.893	152
843.392	158
844.891	154
846.389	144
847.888	146
849.386	140
850.882	116
852.38	124
853.876	136
855.372	132
856.868	120
858.363	134
859.858	130
861.353	118
862.847	130
864.341	134
865.834	112
867.328	118
868.82	134
870.313	130
871.805	114
873.296	120
874.787	120
876.278	122
877.769	122
879.258	120
880.748	120
882.237	110
883.726	120
885.214	110
886.702	118
888.19	114
889.677	112
891.164	110
892.651	124
894.137	114
895.623	118
897.108	112
898.593	132
900.077	130
901.562	142
903.046	136
904.529	142
906.012	146
907.495	142
908.977	136
910.459	134
911.941	132
913.422	128
914.903	116
916.383	108
917.863	110
919.343	100
920.822	96
922.301	100
923.779	100
925.257	100
926.735	100
928.213	100
929.69	94
931.166	96
932.643	106
934.119	94
935.594	96
937.069	102
938.543	104
940.018	100
941.492	96
942.966	102
944.439	106
945.911	98
947.384	96
948.856	100
950.328	94
951.799	110
953.27	94
954.741	106
956.21	102
957.68	112
959.15	116
960.619	118
962.088	126
963.556	120
965.023	120
966.491	134
967.958	136
969.425	124
970.891	124
972.357	130
973.824	134
975.288	152
976.754	144
978.218	158
979.682	178
981.146	192
982.609	210
984.072	246
985.534	274
986.997	316
988.459	434
989.92	618
991.382	784
992.842	832
994.302	774
995.763	882
997.222	1236
998.681	2000
1000.14	2934
1001.6	3360
1003.06	2844
1004.52	1930
1005.97	1158
1007.43	690
1008.89	448
1010.34	318
1011.8	240
1013.25	200
1014.71	186
1016.16	192
1017.62	200
1019.07	200
1020.53	210
1021.98	252
1023.43	328
1024.89	396
1026.34	490
1027.79	664
1029.24	778
1030.69	866
1032.14	886
1033.59	832
1035.04	692
1036.49	510
1037.94	400
1039.39	322
1040.84	266
1042.29	250
1043.73	202
1045.18	184
1046.63	196
1048.08	174
1049.52	162
1050.97	164
1052.41	160
1053.86	152
1055.3	150
1056.75	152
1058.19	162
1059.64	154
1061.08	168
1062.52	176
1063.96	170
1065.41	168
1066.85	170
1068.29	182
1069.73	176
1071.17	174
1072.61	172
1074.05	170
1075.49	168
1076.93	176
1078.37	170
1079.81	172
1081.25	176
1082.68	166
1084.12	170
1085.56	166
1087	180
1088.43	168
1089.87	154
1091.3	170
1092.74	170
1094.17	174
1095.61	166
1097.04	178
1098.48	168
1099.91	182
1101.34	162
1102.78	156
1104.21	152
1105.64	144
1107.07	144
1108.5	134
1109.93	126
1111.36	124
1112.8	130
1114.22	126
1115.65	122
1117.08	126
1118.51	124
1119.94	114
1121.37	118
1122.8	114
1124.22	104
1125.65	112
1127.08	116
1128.5	104
1129.93	112
1131.35	110
1132.78	118
1134.2	112
1135.63	120
1137.05	118
1138.48	118
1139.9	130
1141.32	124
1142.75	150
1144.17	154
1145.59	160
1147.01	172
1148.43	190
1149.85	230
1151.27	296
1152.69	340
1154.11	406
1155.53	422
1156.95	392
1158.37	334
1159.79	308
1161.21	256
1162.62	234
1164.04	202
1165.46	208
1166.87	206
1168.29	208
1169.71	222
1171.12	234
1172.54	244
1173.95	262
1175.37	304
1176.78	358
1178.19	430
1179.61	484
1181.02	498
1182.43	522
1183.84	506
1185.26	462
1186.67	438
1188.08	428
1189.49	446
1190.9	472
1192.31	488
1193.72	498
1195.13	504
1196.54	486
1197.95	516
1199.36	494
1200.76	478
1202.17	450
1203.58	442
1204.99	412
1206.39	388
1207.8	360
1209.2	328
1210.61	270
1212.01	268
1213.42	258
1214.82	236
1216.23	234
1217.63	220
1219.03	208
1220.44	212
1221.84	190
1223.24	204
1224.64	198
1226.05	202
1227.45	198
1228.85	206
1230.25	190
1231.65	186
1233.05	188
1234.45	178
1235.85	176
1237.25	162
1238.64	182
1240.04	180
1241.44	170
1242.84	182
1244.23	170
1245.63	164
1247.03	176
1248.42	170
1249.82	172
1251.21	174
1252.61	168
1254	174
1255.4	172
1256.79	166
1258.19	162
1259.58	166
1260.97	162
1262.36	170
1263.76	174
1265.15	176
1266.54	178
1267.93	176
1269.32	174
1270.71	182
1272.1	184
1273.49	172
1274.88	178
1276.27	172
1277.66	184
1279.05	184
1280.43	184
1281.82	178
1283.21	174
1284.6	162
1285.98	194
1287.37	182
1288.75	194
1290.14	186
1291.53	198
1292.91	184
1294.29	202
1295.68	188
1297.06	194
1298.45	216
1299.83	208
1301.21	224
1302.59	226
1303.98	216
1305.36	222
1306.74	220
1308.12	226
1309.5	232
1310.88	224
1312.26	240
1313.64	232
1315.02	262
1316.4	238
1317.78	248
1319.16	264
1320.53	274
1321.91	276
1323.29	292
1324.67	278
1326.04	282
1327.42	302
1328.79	304
1330.17	298
1331.54	296
1332.92	298
1334.29	298
1335.67	288
1337.04	290
1338.42	282
1339.79	272
1341.16	260
1342.53	274
1343.91	272
1345.28	266
1346.65	260
1348.02	268
1349.39	260
1350.76	256
1352.13	276
1353.5	268
1354.87	272
1356.24	262
1357.61	262
1358.98	272
1360.34	276
1361.71	272
1363.08	270
1364.45	270
1365.81	286
1367.18	300
1368.54	268
1369.91	282
1371.28	292
1372.64	284
1374.01	278
1375.37	284
1376.73	280
1378.1	270
1379.46	274
1380.82	266
1382.19	258
1383.55	246
1384.91	260
1386.27	252
1387.63	256
1388.99	240
1390.35	248
1391.71	252
1393.07	236
1394.43	224
1395.79	232
1397.15	244
1398.51	242
1399.87	240
1401.23	238
1402.58	232
1403.94	236
1405.3	232
1406.65	246
1408.01	234
1409.37	244
1410.72	248
1412.08	220
1413.43	218
1414.79	220
1416.14	218
1417.49	216
1418.85	224
1420.2	214
1421.55	236
1422.91	232
1424.26	212
1425.61	212
1426.96	228
1428.31	228
1429.66	234
1431.01	220
1432.36	242
1433.71	246
1435.06	248
1436.41	258
1437.76	268
1439.11	260
1440.46	296
1441.81	300
1443.15	308
1444.5	332
1445.85	328
1447.19	328
1448.54	320
1449.89	350
1451.23	332
1452.58	314
1453.92	314
1455.27	292
1456.61	266
1457.95	254
1459.3	228
1460.64	228
1461.98	218
1463.33	206
1464.67	222
1466.01	198
1467.35	194
1468.69	198
1470.03	196
1471.37	190
1472.71	192
1474.05	194
1475.39	182
1476.73	176
1478.07	184
1479.41	174
1480.75	188
1482.09	170
1483.42	168
1484.76	182
1486.1	184
1487.43	172
1488.77	196
1490.11	170
1491.44	192
1492.78	184
1494.11	188
1495.45	174
1496.78	180
1498.12	184
1499.45	172
1500.78	172
1502.11	170
1503.45	164
1504.78	166
1506.11	166
1507.44	174
1508.77	174
1510.11	162
1511.44	158
1512.77	168
1514.1	170
1515.43	162
1516.76	172
1518.08	160
1519.41	160
1520.74	162
1522.07	172
1523.4	156
1524.72	162
1526.05	164
1527.38	166
1528.7	160
1530.03	162
1531.36	166
1532.68	164
1534.01	178
1535.33	164
1536.66	170
1537.98	172
1539.3	166
1540.63	158
1541.95	176
1543.27	166
1544.6	158
1545.92	160
1547.24	160
1548.56	168
1549.88	162
1551.2	166
1552.52	168
1553.84	164
1555.17	154
1556.48	164
1557.8	162
1559.12	166
1560.44	160
1561.76	182
1563.08	170
1564.4	174
1565.71	172
1567.03	178
1568.35	180
1569.66	180
1570.98	178
1572.29	198
1573.61	202
1574.93	206
1576.24	222
1577.55	246
1578.87	268
1580.18	328
1581.5	398
1582.81	422
1584.12	378
1585.43	352
1586.75	310
1588.06	258
1589.37	258
1590.68	242
1591.99	254
1593.3	294
1594.61	316
1595.92	350
1597.23	428
1598.54	510
1599.85	628
1601.16	668
1602.47	700
1603.78	644
1605.08	562
1606.39	452
1607.7	398
1609	310
1610.31	276
1611.62	242
1612.92	224
1614.23	214
1615.53	202
1616.84	174
1618.14	186
1619.45	178
1620.75	180
1622.06	176
1623.36	176
1624.66	156
1625.96	164
1627.27	144
1628.57	160
1629.87	152
1631.17	150
1632.47	150
1633.77	156
1635.07	162
1636.37	158
1637.67	146
1638.97	156
1640.27	154
1641.57	154
1642.87	148
1644.17	162
1645.47	150
1646.76	158
1648.06	148
1649.36	144
1650.66	146
1651.95	146
1653.25	142
1654.54	148
1655.84	140
1657.13	142
1658.43	128
1659.72	128
1661.02	134
1662.31	144
1663.6	134
1664.9	140
1666.19	124
1667.48	142
1668.78	138
1670.07	144
1671.36	138
1672.65	130
1673.94	134
1675.23	128
1676.52	128
1677.81	132
1679.1	128
1680.39	134
1681.68	128
1682.97	130
1684.26	134
1685.55	130
1686.83	124
1688.12	136
1689.41	132
1690.7	124
1691.98	116
1693.27	120
1694.55	126
1695.84	124
1697.13	118
1698.41	124
1699.69	124
1700.98	132
1702.26	118