File: Jesse_Dataset_v2/Pure Raman/Polystyrene/785nm/ps-ppo-6jan25-1,0000-map3_Y05_X04.txt
204.377	856
206.045	882
207.713	882
209.38	898
211.048	928
212.715	906
214.381	910
216.047	934
217.712	910
219.377	910
221.042	920
222.706	912
224.369	874
226.032	846
227.695	836
229.357	796
231.019	726
232.68	692
234.341	630
236.001	592
237.661	568
239.321	524
240.98	454
242.639	420
244.297	398
245.955	378
247.612	362
249.268	312
250.924	310
252.58	310
254.236	298
255.891	304
257.546	270
259.2	288
260.854	274
262.507	262
264.16	278
265.812	272
267.463	260
269.115	258
270.766	246
272.417	238
274.067	252
275.717	244
277.365	240
279.014	232
280.663	230
282.311	232
283.958	218
285.605	216
287.252	208
288.898	196
290.543	188
292.188	184
293.833	182
295.477	188
297.121	188
298.765	180
300.407	176
302.05	178
303.693	176
305.334	176
306.975	184
308.615	172
310.256	174
311.896	172
313.535	194
315.175	174
316.813	184
318.451	188
320.089	174
321.726	192
323.362	184
324.999	180
326.635	176
328.271	174
329.905	188
331.54	182
333.174	182
334.807	178
336.441	192
338.074	180
339.707	184
341.338	164
342.969	174
344.601	156
346.231	160
347.861	162
349.491	162
351.12	148
352.749	170
354.378	166
356.006	156
357.633	166
359.261	148
360.887	150
362.513	152
364.139	158
365.764	162
367.39	168
369.014	168
370.638	176
372.261	170
373.884	160
375.508	162
377.13	178
378.752	176
380.373	180
381.994	186
383.615	180
385.235	184
386.854	192
388.473	194
390.092	212
391.711	198
393.328	198
394.947	204
396.564	204
398.181	210
399.797	204
401.412	238
403.027	250
404.642	238
406.257	244
407.871	240
409.484	238
411.098	224
412.711	214
414.323	212
415.935	204
417.547	198
419.158	192
420.768	190
422.378	182
423.988	188
425.597	170
427.206	168
428.814	168
430.422	158
432.03	160
433.637	158
435.243	154
436.85	142
438.456	150
440.062	142
441.666	148
443.271	142
444.876	148
446.479	134
448.082	132
449.685	134
451.287	122
452.89	140
454.492	118
456.092	124
457.693	128
459.293	128
460.893	126
462.492	124
464.092	128
465.691	118
467.288	118
468.887	126
470.483	128
472.081	118
473.677	110
475.273	110
476.869	124
478.463	116
480.059	104
481.653	112
483.247	122
484.84	118
486.433	114
488.026	116
489.618	112
491.21	110
492.801	116
494.392	118
495.983	118
497.573	106
499.162	120
500.752	114
502.341	110
503.929	128
505.517	120
507.105	122
508.692	118
510.279	118
511.865	120
513.45	114
515.037	128
516.621	118
518.206	130
519.79	124
521.374	126
522.957	130
524.54	132
526.123	126
527.705	142
529.287	158
530.868	142
532.448	140
534.029	154
535.609	156
537.188	164
538.768	180
540.346	164
541.925	164
543.502	158
545.08	150
546.657	152
548.234	160
549.81	154
551.386	160
552.961	150
554.536	156
556.11	150
557.684	162
559.258	160
560.832	138
562.405	150
563.977	140
565.55	150
567.12	150
568.692	142
570.263	150
571.833	150
573.403	144
574.973	152
576.542	140
578.111	130
579.679	146
581.247	122
582.815	128
584.382	126
585.948	118
587.514	136
589.081	118
590.645	124
592.211	114
593.775	124
595.339	124
596.904	128
598.466	136
600.03	118
601.592	122
603.154	140
604.715	140
606.277	156
607.838	162
609.398	170
610.958	156
612.518	178
614.077	202
615.636	236
617.194	344
618.753	530
620.31	730
621.867	710
623.424	484
624.98	286
626.537	216
628.092	174
629.647	160
631.202	146
632.756	132
634.31	134
635.864	110
637.417	114
638.969	112
640.521	102
642.074	96
643.625	94
645.176	92
646.726	90
648.276	98
649.827	98
651.376	86
652.925	90
654.473	88
656.021	86
657.569	90
659.117	92
660.664	74
662.21	88
663.757	88
665.302	86
666.847	94
668.392	90
669.937	86
671.481	92
673.025	88
674.568	82
676.111	90
677.653	94
679.195	94
680.737	88
682.279	92
683.82	76
685.36	86
686.9	88
688.44	94
689.979	94
691.517	94
693.056	92
694.594	92
696.132	92
697.669	102
699.206	94
700.742	108
702.278	116
703.814	102
705.35	110
706.884	104
708.419	102
709.953	114
711.487	106
713.019	108
714.552	110
716.085	108
717.617	114
719.148	108
720.68	128
722.21	138
723.741	148
725.271	160
726.8	150
728.33	138
729.858	144
731.387	134
732.915	132
734.443	140
735.97	166
737.497	176
739.023	182
740.549	182
742.075	196
743.6	204
745.125	210
746.65	196
748.173	200
749.697	196
751.22	196
752.743	220
754.266	222
755.788	226
757.309	230
758.831	238
760.351	246
761.871	222
763.392	232
764.912	220
766.431	226
767.95	230
769.468	204
770.986	204
772.504	222
774.022	202
775.538	208
777.055	214
778.571	212
780.086	222
781.602	234
783.117	242
784.632	256
786.146	286
787.659	314
789.173	312
790.685	330
792.198	332
793.71	342
795.222	356
796.733	346
798.244	342
799.755	320
801.265	274
802.775	266
804.284	230
805.793	224
807.302	198
808.81	208
810.318	178
811.826	188
813.333	166
814.84	168
816.346	154
817.851	148
819.357	124
820.862	122
822.367	124
823.871	126
825.376	118
826.878	120
828.382	116
829.885	126
831.387	130
832.889	130
834.391	138
835.892	132
837.392	146
838.893	158
840.393	160
841.893	166
843.392	152
844.891	160
846.389	142
847.888	152
849.386	156
850.882	144
852.38	140
853.876	134
855.372	136
856.868	130
858.363	126
859.858	138
861.353	138
862.847	130
864.341	136
865.834	130
867.328	134
868.82	124
870.313	130
871.805	136
873.296	130
874.787	130
876.278	122
877.769	128
879.258	136
880.748	130
882.237	112
883.726	124
885.214	118
886.702	122
888.19	120
889.677	114
891.164	116
892.651	116
894.137	122
895.623	112
897.108	116
898.593	132
900.077	136
901.562	144
903.046	134
904.529	154
906.012	152
907.495	154
908.977	152
910.459	146
911.941	130
913.422	128
914.903	126
916.383	114
917.863	108
919.343	110
920.822	110
922.301	114
923.779	100
925.257	112
926.735	106
928.213	102
929.69	98
931.166	104
932.643	102
934.119	98
935.594	114
937.069	108
938.543	118
940.018	96
941.492	114
942.966	112
944.439	110
945.911	106
947.384	102
948.856	116
950.328	110
951.799	100
953.27	104
954.741	114
956.21	112
957.68	110
959.15	120
960.619	114
962.088	116
963.556	142
965.023	124
966.491	132
967.958	132
969.425	126
970.891	132
972.357	130
973.824	144
975.288	140
976.754	158
978.218	170
979.682	188
981.146	200
982.609	226
984.072	250
985.534	264
986.997	310
988.459	442
989.92	564
991.382	786
992.842	838
994.302	788
995.763	844
997.222	1200
998.681	1972
1000.14	2932
1001.6	3354
1003.06	2932
1004.52	1988
1005.97	1200
1007.43	710
1008.89	438
1010.34	324
1011.8	254
1013.25	230
1014.71	194
1016.16	184
1017.62	198
1019.07	208
1020.53	224
1021.98	234
1023.43	326
1024.89	388
1026.34	492
1027.79	640
1029.24	760
1030.69	872
1032.14	890
1033.59	816
1035.04	682
1036.49	512
1037.94	388
1039.39	310
1040.84	262
1042.29	238
1043.73	208
1045.18	196
1046.63	182
1048.08	172
1049.52	166
1050.97	162
1052.41	156
1053.86	154
1055.3	156
1056.75	156
1058.19	150
1059.64	160
1061.08	176
1062.52	160
1063.96	148
1065.41	166
1066.85	180
1068.29	172
1069.73	174
1071.17	180
1072.61	168
1074.05	188
1075.49	164
1076.93	156
1078.37	188
1079.81	160
1081.25	176
1082.68	162
1084.12	172
1085.56	172
1087	170
1088.43	158
1089.87	176
1091.3	166
1092.74	174
1094.17	174
1095.61	176
1097.04	174
1098.48	158
1099.91	170
1101.34	174
1102.78	164
1104.21	168
1105.64	156
1107.07	158
1108.5	146
1109.93	122
1111.36	128
1112.8	136
1114.22	136
1115.65	132
1117.08	122
1118.51	122
1119.94	108
1121.37	114
1122.8	104
1124.22	106
1125.65	118
1127.08	114
1128.5	98
1129.93	108
1131.35	118
1132.78	114
1134.2	110
1135.63	114
1137.05	120
1138.48	124
1139.9	128
1141.32	140
1142.75	144
1144.17	160
1145.59	152
1147.01	172
1148.43	198
1149.85	220
1151.27	280
1152.69	378
1154.11	404
1155.53	416
1156.95	398
1158.37	330
1159.79	276
1161.21	248
1162.62	228
1164.04	210
1165.46	218
1166.87	208
1168.29	224
1169.71	214
1171.12	230
1172.54	258
1173.95	280
1175.37	302
1176.78	342
1178.19	420
1179.61	482
1181.02	526
1182.43	528
1183.84	506
1185.26	460
1186.67	442
1188.08	422
1189.49	432
1190.9	476
1192.31	474
1193.72	468
1195.13	498
1196.54	510
1197.95	490
1199.36	490
1200.76	480
1202.17	476
1203.58	454
1204.99	398
1206.39	364
1207.8	356
1209.2	318
1210.61	298
1212.01	252
1213.42	244
1214.82	236
1216.23	226
1217.63	220
1219.03	214
1220.44	206
1221.84	224
1223.24	188
1224.64	204
1226.05	186
1227.45	196
1228.85	190
1230.25	174
1231.65	174
1233.05	192
1234.45	188
1235.85	180
1237.25	180
1238.64	156
1240.04	176
1241.44	166
1242.84	176
1244.23	164
1245.63	166
1247.03	162
1248.42	166
1249.82	182
1251.21	176
1252.61	168
1254	174
1255.4	156
1256.79	160
1258.19	162
1259.58	160
1260.97	164
1262.36	172
1263.76	176
1265.15	182
1266.54	164
1267.93	178
1269.32	180
1270.71	170
1272.1	170
1273.49	170
1274.88	168
1276.27	186
1277.66	178
1279.05	188
1280.43	170
1281.82	182
1283.21	188
1284.6	162
1285.98	184
1287.37	182
1288.75	176
1290.14	186
1291.53	184
1292.91	202
1294.29	200
1295.68	200
1297.06	196
1298.45	196
1299.83	216
1301.21	216
1302.59	226
1303.98	212
1305.36	214
1306.74	226
1308.12	220
1309.5	230
1310.88	238
1312.26	218
1313.64	250
1315.02	242
1316.4	242
1317.78	248
1319.16	244
1320.53	274
1321.91	268
1323.29	274
1324.67	302
1326.04	294
1327.42	280
1328.79	296
1330.17	288
1331.54	300
1332.92	288
1334.29	282
1335.67	292
1337.04	272
1338.42	284
1339.79	288
1341.16	268
1342.53	258
1343.91	260
1345.28	274
1346.65	270
1348.02	262
1349.39	278
1350.76	266
1352.13	278
1353.5	280
1354.87	268
1356.24	262
1357.61	260
1358.98	268
1360.34	260
1361.71	258
1363.08	286
1364.45	278
1365.81	286
1367.18	274
1368.54	276
1369.91	278
1371.28	274
1372.64	276
1374.01	286
1375.37	272
1376.73	264
1378.1	262
1379.46	254
1380.82	266
1382.19	270
1383.55	250
1384.91	258
1386.27	262
1387.63	244
1388.99	226
1390.35	236
1391.71	254
1393.07	232
1394.43	240
1395.79	242
1397.15	228
1398.51	226
1399.87	234
1401.23	228
1402.58	226
1403.94	232
1405.3	234
1406.65	216
1408.01	226
1409.37	228
1410.72	226
1412.08	210
1413.43	222
1414.79	220
1416.14	226
1417.49	222
1418.85	208
1420.2	212
1421.55	222
1422.91	226
1424.26	212
1425.61	216
1426.96	220
1428.31	218
1429.66	222
1431.01	226
1432.36	224
1433.71	234
1435.06	246
1436.41	256
1437.76	260
1439.11	276
1440.46	292
1441.81	282
1443.15	306
1444.5	312
1445.85	316
1447.19	334
1448.54	348
1449.89	336
1451.23	318
1452.58	344
1453.92	316
1455.27	298
1456.61	268
1457.95	238
1459.3	240
1460.64	218
1461.98	208
1463.33	206
1464.67	200
1466.01	190
1467.35	204
1468.69	202
1470.03	196
1471.37	196
1472.71	184
1474.05	184
1475.39	188
1476.73	190
1478.07	184
1479.41	180
1480.75	170
1482.09	190
1483.42	172
1484.76	176
1486.1	172
1487.43	182
1488.77	174
1490.11	180
1491.44	182
1492.78	184
1494.11	190
1495.45	186
1496.78	186
1498.12	184
1499.45	168
1500.78	174
1502.11	176
1503.45	176
1504.78	176
1506.11	162
1507.44	176
1508.77	160
1510.11	164
1511.44	176
1512.77	156
1514.1	154
1515.43	162
1516.76	170
1518.08	172
1519.41	164
1520.74	170
1522.07	162
1523.4	158
1524.72	168
1526.05	164
1527.38	168
1528.7	158
1530.03	170
1531.36	160
1532.68	166
1534.01	172
1535.33	168
1536.66	156
1537.98	158
1539.3	168
1540.63	174
1541.95	166
1543.27	162
1544.6	160
1545.92	158
1547.24	172
1548.56	160
1549.88	160
1551.2	156
1552.52	162
1553.84	144
1555.17	162
1556.48	150
1557.8	162
1559.12	150
1560.44	162
1561.76	174
1563.08	176
1564.4	174
1565.71	172
1567.03	174
1568.35	168
1569.66	176
1570.98	180
1572.29	186
1573.61	202
1574.93	206
1576.24	226
1577.55	238
1578.87	260
1580.18	328
1581.5	378
1582.81	408
1584.12	412
1585.43	354
1586.75	302
1588.06	250
1589.37	252
1590.68	266
1591.99	268
1593.3	284
1594.61	302
1595.92	344
1597.23	446
1598.54	524
1599.85	602
1601.16	682
1602.47	698
1603.78	626
1605.08	566
1606.39	476
1607.7	384
1609	326
1610.31	282
1611.62	256
1612.92	222
1614.23	220
1615.53	204
1616.84	206
1618.14	194
1619.45	188
1620.75	178
1622.06	156
1623.36	168
1624.66	174
1625.96	160
1627.27	158
1628.57	158
1629.87	152
1631.17	154
1632.47	148
1633.77	150
1635.07	146
1636.37	148
1637.67	140
1638.97	140
1640.27	154
1641.57	140
1642.87	148
1644.17	152
1645.47	152
1646.76	148
1648.06	142
1649.36	156
1650.66	152
1651.95	146
1653.25	150
1654.54	134
1655.84	140
1657.13	140
1658.43	124
1659.72	132
1661.02	136
1662.31	136
1663.6	132
1664.9	126
1666.19	142
1667.48	128
1668.78	130
1670.07	136
1671.36	138
1672.65	128
1673.94	130
1675.23	130
1676.52	126
1677.81	130
1679.1	128
1680.39	116
1681.68	132
1682.97	136
1684.26	130
1685.55	126
1686.83	118
1688.12	130
1689.41	116
1690.7	118
1691.98	130
1693.27	126
1694.55	124
1695.84	118
1697.13	124
1698.41	114
1699.69	126
1700.98	118
1702.26	130