File: Jesse_Dataset_v2/Pure Raman/Polystyrene/785nm/ps-ppo-6jan25-1,0000-map3_Y02_X04.txt
204.377	834
206.045	858
207.713	824
209.38	860
211.048	876
212.715	886
214.381	926
216.047	884
217.712	928
219.377	902
221.042	874
222.706	902
224.369	884
226.032	870
227.695	804
229.357	750
231.019	710
232.68	682
234.341	624
236.001	586
237.661	516
239.321	492
240.98	450
242.639	416
244.297	384
245.955	340
247.612	328
249.268	310
250.924	302
252.58	294
254.236	286
255.891	274
257.546	278
259.2	280
260.854	264
262.507	274
264.16	268
265.812	250
267.463	250
269.115	242
270.766	242
272.417	238
274.067	230
275.717	226
277.365	226
279.014	222
280.663	204
282.311	206
283.958	210
285.605	210
287.252	198
288.898	196
290.543	168
292.188	170
293.833	178
295.477	172
297.121	156
298.765	162
300.407	164
302.05	166
303.693	172
305.334	162
306.975	166
308.615	168
310.256	164
311.896	166
313.535	164
315.175	170
316.813	170
318.451	156
320.089	172
321.726	164
323.362	162
324.999	154
326.635	162
328.271	172
329.905	174
331.54	168
333.174	154
334.807	168
336.441	168
338.074	156
339.707	168
341.338	148
342.969	158
344.601	158
346.231	152
347.861	152
349.491	136
351.12	158
352.749	142
354.378	150
356.006	140
357.633	140
359.261	150
360.887	142
362.513	146
364.139	150
365.764	142
367.39	144
369.014	130
370.638	144
372.261	154
373.884	146
375.508	152
377.13	150
378.752	164
380.373	164
381.994	170
383.615	172
385.235	164
386.854	166
388.473	174
390.092	178
391.711	186
393.328	186
394.947	176
396.564	190
398.181	188
399.797	212
401.412	228
403.027	228
404.642	226
406.257	232
407.871	232
409.484	212
411.098	208
412.711	198
414.323	192
415.935	174
417.547	178
419.158	188
420.768	156
422.378	150
423.988	146
425.597	156
427.206	152
428.814	146
430.422	134
432.03	130
433.637	138
435.243	136
436.85	140
438.456	134
440.062	136
441.666	130
443.271	134
444.876	126
446.479	116
448.082	136
449.685	122
451.287	114
452.89	112
454.492	102
456.092	110
457.693	102
459.293	102
460.893	106
462.492	106
464.092	96
465.691	104
467.288	98
468.887	102
470.483	110
472.081	102
473.677	94
475.273	96
476.869	112
478.463	94
480.059	88
481.653	76
483.247	94
484.84	100
486.433	98
488.026	92
489.618	88
491.21	94
492.801	92
494.392	92
495.983	94
497.573	112
499.162	108
500.752	110
502.341	102
503.929	108
505.517	102
507.105	106
508.692	102
510.279	102
511.865	100
513.45	104
515.037	108
516.621	104
518.206	106
519.79	98
521.374	104
522.957	110
524.54	112
526.123	124
527.705	116
529.287	124
530.868	120
532.448	126
534.029	140
535.609	126
537.188	140
538.768	144
540.346	140
541.925	154
543.502	148
545.08	142
546.657	152
548.234	142
549.81	130
551.386	140
552.961	136
554.536	128
556.11	136
557.684	132
559.258	140
560.832	136
562.405	130
563.977	118
565.55	134
567.12	134
568.692	124
570.263	132
571.833	132
573.403	132
574.973	126
576.542	132
578.111	130
579.679	118
581.247	110
582.815	116
584.382	106
585.948	104
587.514	96
589.081	94
590.645	104
592.211	108
593.775	96
595.339	100
596.904	110
598.466	106
600.03	112
601.592	112
603.154	122
604.715	116
606.277	142
607.838	142
609.398	152
610.958	146
612.518	152
614.077	186
615.636	222
617.194	318
618.753	510
620.31	694
621.867	698
623.424	450
624.98	264
626.537	208
628.092	164
629.647	140
631.202	132
632.756	118
634.31	106
635.864	108
637.417	104
638.969	88
640.521	90
642.074	86
643.625	84
645.176	86
646.726	86
648.276	76
649.827	78
651.376	70
652.925	78
654.473	72
656.021	76
657.569	80
659.117	72
660.664	74
662.21	70
663.757	80
665.302	70
666.847	74
668.392	72
669.937	70
671.481	72
673.025	72
674.568	74
676.111	70
677.653	66
679.195	74
680.737	66
682.279	66
683.82	66
685.36	80
686.9	78
688.44	78
689.979	76
691.517	72
693.056	74
694.594	80
696.132	78
697.669	86
699.206	82
700.742	88
702.278	100
703.814	98
705.35	100
706.884	92
708.419	82
709.953	94
711.487	90
713.019	86
714.552	102
716.085	92
717.617	102
719.148	108
720.68	114
722.21	130
723.741	142
725.271	150
726.8	130
728.33	130
729.858	118
731.387	108
732.915	114
734.443	128
735.97	148
737.497	150
739.023	170
740.549	172
742.075	178
743.6	174
745.125	172
746.65	182
748.173	182
749.697	182
751.22	190
752.743	200
754.266	224
755.788	222
757.309	230
758.831	234
760.351	234
761.871	226
763.392	240
764.912	210
766.431	202
767.95	200
769.468	192
770.986	202
772.504	192
774.022	196
775.538	198
777.055	192
778.571	210
780.086	200
781.602	220
783.117	250
784.632	256
786.146	280
787.659	282
789.173	298
790.685	310
792.198	334
793.71	344
795.222	328
796.733	328
798.244	336
799.755	298
801.265	258
802.775	248
804.284	222
805.793	218
807.302	190
808.81	196
810.318	162
811.826	160
813.333	146
814.84	148
816.346	134
817.851	138
819.357	124
820.862	120
822.367	118
823.871	116
825.376	110
826.878	112
828.382	116
829.885	106
831.387	114
832.889	116
834.391	128
835.892	116
837.392	142
838.893	142
840.393	148
841.893	156
843.392	164
844.891	146
846.389	144
847.888	140
849.386	138
850.882	126
852.38	118
853.876	122
855.372	126
856.868	118
858.363	122
859.858	118
861.353	120
862.847	122
864.341	122
865.834	140
867.328	126
868.82	120
870.313	118
871.805	122
873.296	118
874.787	124
876.278	126
877.769	116
879.258	112
880.748	116
882.237	116
883.726	108
885.214	108
886.702	116
888.19	110
889.677	120
891.164	116
892.651	110
894.137	112
895.623	110
897.108	116
898.593	120
900.077	128
901.562	134
903.046	150
904.529	142
906.012	154
907.495	144
908.977	136
910.459	136
911.941	126
913.422	122
914.903	116
916.383	102
917.863	100
919.343	96
920.822	102
922.301	100
923.779	100
925.257	100
926.735	90
928.213	96
929.69	100
931.166	88
932.643	96
934.119	100
935.594	98
937.069	104
938.543	102
940.018	96
941.492	102
942.966	96
944.439	100
945.911	104
947.384	94
948.856	92
950.328	106
951.799	96
953.27	98
954.741	104
956.21	110
957.68	106
959.15	108
960.619	120
962.088	112
963.556	114
965.023	128
966.491	116
967.958	128
969.425	124
970.891	126
972.357	120
973.824	136
975.288	140
976.754	150
978.218	158
979.682	178
981.146	204
982.609	218
984.072	254
985.534	266
986.997	318
988.459	418
989.92	592
991.382	754
992.842	812
994.302	794
995.763	842
997.222	1202
998.681	1938
1000.14	2872
1001.6	3314
1003.06	2878
1004.52	1968
1005.97	1180
1007.43	700
1008.89	452
1010.34	322
1011.8	240
1013.25	210
1014.71	196
1016.16	182
1017.62	180
1019.07	192
1020.53	218
1021.98	266
1023.43	308
1024.89	388
1026.34	470
1027.79	610
1029.24	744
1030.69	890
1032.14	896
1033.59	806
1035.04	678
1036.49	524
1037.94	408
1039.39	320
1040.84	254
1042.29	214
1043.73	210
1045.18	192
1046.63	176
1048.08	164
1049.52	170
1050.97	150
1052.41	156
1053.86	156
1055.3	152
1056.75	152
1058.19	142
1059.64	154
1061.08	158
1062.52	168
1063.96	160
1065.41	150
1066.85	168
1068.29	164
1069.73	170
1071.17	184
1072.61	160
1074.05	168
1075.49	176
1076.93	174
1078.37	170
1079.81	168
1081.25	162
1082.68	162
1084.12	154
1085.56	170
1087	156
1088.43	154
1089.87	146
1091.3	168
1092.74	170
1094.17	170
1095.61	176
1097.04	166
1098.48	170
1099.91	172
1101.34	154
1102.78	164
1104.21	164
1105.64	134
1107.07	140
1108.5	136
1109.93	136
1111.36	134
1112.8	128
1114.22	130
1115.65	128
1117.08	114
1118.51	116
1119.94	112
1121.37	104
1122.8	106
1124.22	104
1125.65	102
1127.08	100
1128.5	104
1129.93	98
1131.35	110
1132.78	108
1134.2	106
1135.63	110
1137.05	112
1138.48	120
1139.9	126
1141.32	134
1142.75	134
1144.17	150
1145.59	160
1147.01	174
1148.43	178
1149.85	234
1151.27	300
1152.69	346
1154.11	404
1155.53	430
1156.95	370
1158.37	354
1159.79	280
1161.21	238
1162.62	222
1164.04	226
1165.46	216
1166.87	200
1168.29	202
1169.71	228
1171.12	220
1172.54	234
1173.95	274
1175.37	290
1176.78	350
1178.19	412
1179.61	478
1181.02	530
1182.43	526
1183.84	494
1185.26	462
1186.67	406
1188.08	426
1189.49	400
1190.9	450
1192.31	452
1193.72	454
1195.13	516
1196.54	516
1197.95	488
1199.36	494
1200.76	464
1202.17	458
1203.58	416
1204.99	398
1206.39	366
1207.8	320
1209.2	316
1210.61	292
1212.01	260
1213.42	246
1214.82	242
1216.23	224
1217.63	216
1219.03	194
1220.44	210
1221.84	202
1223.24	192
1224.64	194
1226.05	202
1227.45	186
1228.85	184
1230.25	184
1231.65	176
1233.05	176
1234.45	164
1235.85	164
1237.25	168
1238.64	164
1240.04	160
1241.44	172
1242.84	162
1244.23	172
1245.63	166
1247.03	156
1248.42	170
1249.82	152
1251.21	168
1252.61	168
1254	158
1255.4	166
1256.79	166
1258.19	172
1259.58	164
1260.97	168
1262.36	184
1263.76	172
1265.15	170
1266.54	144
1267.93	166
1269.32	170
1270.71	174
1272.1	160
1273.49	156
1274.88	166
1276.27	172
1277.66	162
1279.05	168
1280.43	172
1281.82	166
1283.21	180
1284.6	170
1285.98	178
1287.37	184
1288.75	172
1290.14	178
1291.53	186
1292.91	200
1294.29	192
1295.68	188
1297.06	200
1298.45	204
1299.83	200
1301.21	198
1302.59	204
1303.98	222
1305.36	212
1306.74	226
1308.12	232
1309.5	208
1310.88	230
1312.26	228
1313.64	236
1315.02	236
1316.4	248
1317.78	246
1319.16	246
1320.53	262
1321.91	258
1323.29	282
1324.67	280
1326.04	282
1327.42	286
1328.79	306
1330.17	288
1331.54	306
1332.92	300
1334.29	274
1335.67	280
1337.04	286
1338.42	286
1339.79	286
1341.16	272
1342.53	262
1343.91	254
1345.28	240
1346.65	260
1348.02	254
1349.39	260
1350.76	260
1352.13	268
1353.5	270
1354.87	276
1356.24	250
1357.61	266
1358.98	266
1360.34	272
1361.71	282
1363.08	270
1364.45	272
1365.81	266
1367.18	268
1368.54	272
1369.91	266
1371.28	264
1372.64	274
1374.01	284
1375.37	272
1376.73	272
1378.1	254
1379.46	268
1380.82	250
1382.19	252
1383.55	240
1384.91	254
1386.27	236
1387.63	240
1388.99	234
1390.35	218
1391.71	212
1393.07	222
1394.43	240
1395.79	230
1397.15	226
1398.51	226
1399.87	224
1401.23	232
1402.58	246
1403.94	230
1405.3	236
1406.65	234
1408.01	220
1409.37	224
1410.72	208
1412.08	228
1413.43	228
1414.79	226
1416.14	214
1417.49	224
1418.85	230
1420.2	206
1421.55	210
1422.91	216
1424.26	198
1425.61	198
1426.96	212
1428.31	216
1429.66	216
1431.01	226
1432.36	232
1433.71	238
1435.06	226
1436.41	256
1437.76	254
1439.11	268
1440.46	278
1441.81	290
1443.15	296
1444.5	308
1445.85	316
1447.19	332
1448.54	308
1449.89	340
1451.23	336
1452.58	314
1453.92	312
1455.27	286
1456.61	248
1457.95	236
1459.3	226
1460.64	224
1461.98	212
1463.33	208
1464.67	204
1466.01	200
1467.35	188
1468.69	196
1470.03	192
1471.37	196
1472.71	182
1474.05	188
1475.39	182
1476.73	180
1478.07	164
1479.41	184
1480.75	184
1482.09	182
1483.42	178
1484.76	182
1486.1	170
1487.43	170
1488.77	176
1490.11	176
1491.44	166
1492.78	182
1494.11	174
1495.45	182
1496.78	188
1498.12	168
1499.45	174
1500.78	160
1502.11	164
1503.45	166
1504.78	168
1506.11	168
1507.44	154
1508.77	170
1510.11	170
1511.44	164
1512.77	156
1514.1	164
1515.43	164
1516.76	158
1518.08	158
1519.41	154
1520.74	162
1522.07	162
1523.4	164
1524.72	154
1526.05	166
1527.38	158
1528.7	164
1530.03	156
1531.36	158
1532.68	166
1534.01	158
1535.33	154
1536.66	166
1537.98	150
1539.3	160
1540.63	166
1541.95	160
1543.27	160
1544.6	162
1545.92	152
1547.24	162
1548.56	160
1549.88	172
1551.2	148
1552.52	158
1553.84	142
1555.17	166
1556.48	154
1557.8	148
1559.12	164
1560.44	164
1561.76	168
1563.08	174
1564.4	168
1565.71	178
1567.03	176
1568.35	168
1569.66	182
1570.98	180
1572.29	186
1573.61	184
1574.93	210
1576.24	216
1577.55	244
1578.87	244
1580.18	314
1581.5	360
1582.81	418
1584.12	410
1585.43	370
1586.75	290
1588.06	270
1589.37	258
1590.68	228
1591.99	260
1593.3	286
1594.61	306
1595.92	362
1597.23	446
1598.54	498
1599.85	612
1601.16	660
1602.47	680
1603.78	632
1605.08	558
1606.39	480
1607.7	370
1609	308
1610.31	272
1611.62	250
1612.92	228
1614.23	204
1615.53	186
1616.84	192
1618.14	188
1619.45	174
1620.75	166
1622.06	162
1623.36	158
1624.66	160
1625.96	166
1627.27	154
1628.57	142
1629.87	142
1631.17	146
1632.47	136
1633.77	158
1635.07	134
1636.37	142
1637.67	146
1638.97	148
1640.27	146
1641.57	136
1642.87	144
1644.17	142
1645.47	146
1646.76	142
1648.06	170
1649.36	154
1650.66	144
1651.95	138
1653.25	144
1654.54	136
1655.84	136
1657.13	130
1658.43	138
1659.72	126
1661.02	138
1662.31	136
1663.6	130
1664.9	126
1666.19	130
1667.48	126
1668.78	130
1670.07	128
1671.36	134
1672.65	126
1673.94	132
1675.23	122
1676.52	128
1677.81	124
1679.1	126
1680.39	120
1681.68	116
1682.97	126
1684.26	128
1685.55	140
1686.83	120
1688.12	108
1689.41	126
1690.7	124
1691.98	122
1693.27	124
1694.55	120
1695.84	122
1697.13	120
1698.41	124
1699.69	128
1700.98	116
1702.26	114