File: Jesse_Dataset_v2/Pure Raman/Polystyrene/785nm/ps-ppo-6jan25-1,0000-map3_Y03_X04.txt
204.377	822
206.045	860
207.713	850
209.38	868
211.048	872
212.715	906
214.381	886
216.047	928
217.712	912
219.377	904
221.042	898
222.706	884
224.369	860
226.032	858
227.695	830
229.357	748
231.019	708
232.68	690
234.341	622
236.001	574
237.661	536
239.321	488
240.98	426
242.639	402
244.297	388
245.955	350
247.612	336
249.268	326
250.924	286
252.58	280
254.236	290
255.891	268
257.546	272
259.2	270
260.854	252
262.507	252
264.16	246
265.812	262
267.463	268
269.115	230
270.766	236
272.417	252
274.067	244
275.717	226
277.365	224
279.014	230
280.663	218
282.311	208
283.958	206
285.605	192
287.252	210
288.898	194
290.543	184
292.188	162
293.833	176
295.477	174
297.121	170
298.765	162
300.407	162
302.05	160
303.693	178
305.334	154
306.975	160
308.615	168
310.256	162
311.896	164
313.535	172
315.175	166
316.813	162
318.451	168
320.089	164
321.726	172
323.362	166
324.999	170
326.635	168
328.271	160
329.905	154
331.54	170
333.174	166
334.807	164
336.441	160
338.074	166
339.707	162
341.338	148
342.969	160
344.601	150
346.231	152
347.861	140
349.491	154
351.12	152
352.749	152
354.378	136
356.006	152
357.633	140
359.261	144
360.887	158
362.513	138
364.139	146
365.764	150
367.39	142
369.014	156
370.638	152
372.261	164
373.884	148
375.508	154
377.13	144
378.752	162
380.373	166
381.994	172
383.615	176
385.235	188
386.854	176
388.473	182
390.092	156
391.711	180
393.328	174
394.947	194
396.564	188
398.181	204
399.797	200
401.412	210
403.027	222
404.642	242
406.257	236
407.871	214
409.484	228
411.098	196
412.711	200
414.323	196
415.935	186
417.547	184
419.158	158
420.768	154
422.378	158
423.988	160
425.597	140
427.206	150
428.814	148
430.422	150
432.03	138
433.637	138
435.243	122
436.85	138
438.456	140
440.062	124
441.666	138
443.271	138
444.876	132
446.479	130
448.082	126
449.685	116
451.287	126
452.89	116
454.492	122
456.092	106
457.693	104
459.293	106
460.893	104
462.492	108
464.092	106
465.691	110
467.288	104
468.887	110
470.483	104
472.081	88
473.677	96
475.273	102
476.869	90
478.463	96
480.059	96
481.653	94
483.247	94
484.84	90
486.433	92
488.026	98
489.618	84
491.21	94
492.801	94
494.392	92
495.983	98
497.573	102
499.162	106
500.752	100
502.341	98
503.929	108
505.517	110
507.105	106
508.692	110
510.279	92
511.865	104
513.45	100
515.037	98
516.621	106
518.206	112
519.79	106
521.374	106
522.957	106
524.54	116
526.123	102
527.705	116
529.287	108
530.868	130
532.448	130
534.029	130
535.609	134
537.188	146
538.768	148
540.346	124
541.925	136
543.502	144
545.08	146
546.657	124
548.234	132
549.81	138
551.386	136
552.961	144
554.536	134
556.11	124
557.684	128
559.258	136
560.832	132
562.405	140
563.977	132
565.55	128
567.12	132
568.692	130
570.263	132
571.833	138
573.403	140
574.973	140
576.542	130
578.111	122
579.679	110
581.247	118
582.815	108
584.382	108
585.948	110
587.514	94
589.081	100
590.645	116
592.211	106
593.775	104
595.339	112
596.904	110
598.466	116
600.03	116
601.592	104
603.154	118
604.715	124
606.277	130
607.838	148
609.398	152
610.958	126
612.518	148
614.077	168
615.636	222
617.194	312
618.753	500
620.31	700
621.867	686
623.424	458
624.98	290
626.537	204
628.092	166
629.647	132
631.202	134
632.756	110
634.31	110
635.864	106
637.417	92
638.969	92
640.521	90
642.074	90
643.625	86
645.176	90
646.726	74
648.276	84
649.827	76
651.376	76
652.925	78
654.473	74
656.021	76
657.569	70
659.117	84
660.664	76
662.21	78
663.757	66
665.302	72
666.847	70
668.392	76
669.937	76
671.481	80
673.025	72
674.568	70
676.111	76
677.653	72
679.195	72
680.737	78
682.279	64
683.82	68
685.36	70
686.9	76
688.44	78
689.979	72
691.517	76
693.056	74
694.594	82
696.132	86
697.669	90
699.206	86
700.742	90
702.278	94
703.814	94
705.35	98
706.884	92
708.419	90
709.953	98
711.487	86
713.019	88
714.552	90
716.085	104
717.617	92
719.148	98
720.68	116
722.21	130
723.741	150
725.271	154
726.8	136
728.33	132
729.858	120
731.387	118
732.915	114
734.443	138
735.97	146
737.497	162
739.023	170
740.549	174
742.075	178
743.6	182
745.125	186
746.65	178
748.173	186
749.697	186
751.22	186
752.743	206
754.266	216
755.788	212
757.309	230
758.831	236
760.351	238
761.871	244
763.392	226
764.912	224
766.431	212
767.95	210
769.468	214
770.986	210
772.504	182
774.022	194
775.538	204
777.055	190
778.571	198
780.086	216
781.602	218
783.117	226
784.632	244
786.146	282
787.659	282
789.173	300
790.685	326
792.198	304
793.71	330
795.222	362
796.733	336
798.244	324
799.755	308
801.265	282
802.775	236
804.284	212
805.793	202
807.302	192
808.81	184
810.318	172
811.826	166
813.333	156
814.84	160
816.346	134
817.851	134
819.357	122
820.862	114
822.367	124
823.871	108
825.376	110
826.878	114
828.382	104
829.885	110
831.387	118
832.889	114
834.391	128
835.892	140
837.392	150
838.893	150
840.393	158
841.893	162
843.392	152
844.891	156
846.389	148
847.888	152
849.386	132
850.882	124
852.38	124
853.876	128
855.372	122
856.868	114
858.363	114
859.858	122
861.353	118
862.847	118
864.341	122
865.834	118
867.328	118
868.82	116
870.313	122
871.805	120
873.296	112
874.787	122
876.278	118
877.769	116
879.258	114
880.748	108
882.237	104
883.726	110
885.214	110
886.702	112
888.19	114
889.677	100
891.164	106
892.651	114
894.137	108
895.623	110
897.108	124
898.593	118
900.077	142
901.562	128
903.046	144
904.529	134
906.012	140
907.495	146
908.977	138
910.459	138
911.941	130
913.422	122
914.903	112
916.383	112
917.863	110
919.343	102
920.822	90
922.301	102
923.779	92
925.257	104
926.735	96
928.213	88
929.69	86
931.166	94
932.643	100
934.119	102
935.594	96
937.069	94
938.543	90
940.018	84
941.492	100
942.966	90
944.439	92
945.911	102
947.384	96
948.856	104
950.328	96
951.799	110
953.27	96
954.741	94
956.21	102
957.68	100
959.15	104
960.619	108
962.088	128
963.556	122
965.023	132
966.491	130
967.958	112
969.425	126
970.891	120
972.357	130
973.824	132
975.288	146
976.754	144
978.218	164
979.682	182
981.146	202
982.609	228
984.072	234
985.534	278
986.997	314
988.459	394
989.92	568
991.382	756
992.842	834
994.302	794
995.763	854
997.222	1242
998.681	1936
1000.14	2860
1001.6	3292
1003.06	2848
1004.52	1952
1005.97	1194
1007.43	714
1008.89	438
1010.34	318
1011.8	240
1013.25	198
1014.71	196
1016.16	184
1017.62	184
1019.07	198
1020.53	226
1021.98	280
1023.43	306
1024.89	370
1026.34	510
1027.79	628
1029.24	778
1030.69	904
1032.14	896
1033.59	820
1035.04	672
1036.49	522
1037.94	408
1039.39	334
1040.84	258
1042.29	230
1043.73	202
1045.18	188
1046.63	174
1048.08	150
1049.52	176
1050.97	154
1052.41	152
1053.86	152
1055.3	150
1056.75	142
1058.19	146
1059.64	152
1061.08	154
1062.52	160
1063.96	162
1065.41	166
1066.85	158
1068.29	158
1069.73	176
1071.17	180
1072.61	170
1074.05	170
1075.49	174
1076.93	166
1078.37	160
1079.81	150
1081.25	164
1082.68	166
1084.12	158
1085.56	148
1087	174
1088.43	160
1089.87	164
1091.3	168
1092.74	172
1094.17	164
1095.61	170
1097.04	160
1098.48	176
1099.91	170
1101.34	158
1102.78	156
1104.21	162
1105.64	148
1107.07	142
1108.5	130
1109.93	126
1111.36	124
1112.8	126
1114.22	120
1115.65	118
1117.08	120
1118.51	112
1119.94	118
1121.37	112
1122.8	114
1124.22	104
1125.65	112
1127.08	106
1128.5	106
1129.93	106
1131.35	110
1132.78	114
1134.2	118
1135.63	114
1137.05	112
1138.48	130
1139.9	126
1141.32	126
1142.75	130
1144.17	148
1145.59	160
1147.01	170
1148.43	180
1149.85	230
1151.27	284
1152.69	348
1154.11	398
1155.53	408
1156.95	386
1158.37	336
1159.79	284
1161.21	242
1162.62	234
1164.04	206
1165.46	202
1166.87	204
1168.29	204
1169.71	206
1171.12	218
1172.54	238
1173.95	274
1175.37	282
1176.78	342
1178.19	404
1179.61	476
1181.02	498
1182.43	528
1183.84	490
1185.26	466
1186.67	410
1188.08	410
1189.49	438
1190.9	442
1192.31	458
1193.72	516
1195.13	518
1196.54	508
1197.95	506
1199.36	502
1200.76	490
1202.17	496
1203.58	434
1204.99	412
1206.39	382
1207.8	350
1209.2	308
1210.61	300
1212.01	278
1213.42	238
1214.82	230
1216.23	214
1217.63	208
1219.03	200
1220.44	198
1221.84	212
1223.24	194
1224.64	198
1226.05	202
1227.45	198
1228.85	188
1230.25	176
1231.65	168
1233.05	178
1234.45	174
1235.85	168
1237.25	170
1238.64	184
1240.04	170
1241.44	158
1242.84	166
1244.23	156
1245.63	160
1247.03	154
1248.42	170
1249.82	170
1251.21	166
1252.61	152
1254	168
1255.4	178
1256.79	158
1258.19	172
1259.58	150
1260.97	164
1262.36	174
1263.76	174
1265.15	166
1266.54	170
1267.93	164
1269.32	168
1270.71	160
1272.1	174
1273.49	162
1274.88	158
1276.27	174
1277.66	180
1279.05	160
1280.43	172
1281.82	168
1283.21	164
1284.6	174
1285.98	190
1287.37	174
1288.75	190
1290.14	192
1291.53	184
1292.91	194
1294.29	206
1295.68	178
1297.06	204
1298.45	206
1299.83	224
1301.21	214
1302.59	206
1303.98	196
1305.36	226
1306.74	222
1308.12	218
1309.5	238
1310.88	232
1312.26	226
1313.64	234
1315.02	228
1316.4	230
1317.78	254
1319.16	262
1320.53	254
1321.91	288
1323.29	266
1324.67	274
1326.04	284
1327.42	292
1328.79	282
1330.17	296
1331.54	282
1332.92	292
1334.29	304
1335.67	288
1337.04	286
1338.42	256
1339.79	252
1341.16	260
1342.53	270
1343.91	262
1345.28	260
1346.65	266
1348.02	254
1349.39	276
1350.76	246
1352.13	266
1353.5	270
1354.87	256
1356.24	264
1357.61	254
1358.98	276
1360.34	282
1361.71	278
1363.08	266
1364.45	292
1365.81	266
1367.18	254
1368.54	292
1369.91	286
1371.28	266
1372.64	278
1374.01	264
1375.37	280
1376.73	274
1378.1	274
1379.46	274
1380.82	242
1382.19	258
1383.55	244
1384.91	246
1386.27	238
1387.63	238
1388.99	236
1390.35	248
1391.71	228
1393.07	234
1394.43	238
1395.79	228
1397.15	218
1398.51	222
1399.87	238
1401.23	224
1402.58	228
1403.94	242
1405.3	226
1406.65	228
1408.01	226
1409.37	220
1410.72	224
1412.08	224
1413.43	220
1414.79	216
1416.14	208
1417.49	220
1418.85	212
1420.2	208
1421.55	214
1422.91	220
1424.26	210
1425.61	210
1426.96	222
1428.31	224
1429.66	226
1431.01	212
1432.36	212
1433.71	242
1435.06	244
1436.41	248
1437.76	270
1439.11	262
1440.46	282
1441.81	290
1443.15	296
1444.5	306
1445.85	310
1447.19	346
1448.54	340
1449.89	342
1451.23	326
1452.58	306
1453.92	294
1455.27	282
1456.61	278
1457.95	256
1459.3	236
1460.64	226
1461.98	208
1463.33	214
1464.67	200
1466.01	188
1467.35	202
1468.69	198
1470.03	186
1471.37	178
1472.71	178
1474.05	182
1475.39	184
1476.73	164
1478.07	174
1479.41	190
1480.75	184
1482.09	174
1483.42	178
1484.76	180
1486.1	162
1487.43	164
1488.77	174
1490.11	174
1491.44	190
1492.78	180
1494.11	176
1495.45	176
1496.78	178
1498.12	162
1499.45	174
1500.78	162
1502.11	154
1503.45	166
1504.78	158
1506.11	166
1507.44	160
1508.77	164
1510.11	168
1511.44	162
1512.77	166
1514.1	162
1515.43	174
1516.76	162
1518.08	158
1519.41	154
1520.74	164
1522.07	156
1523.4	154
1524.72	160
1526.05	156
1527.38	158
1528.7	156
1530.03	170
1531.36	154
1532.68	158
1534.01	156
1535.33	168
1536.66	152
1537.98	146
1539.3	168
1540.63	160
1541.95	164
1543.27	144
1544.6	154
1545.92	162
1547.24	162
1548.56	152
1549.88	168
1551.2	166
1552.52	158
1553.84	164
1555.17	166
1556.48	160
1557.8	160
1559.12	164
1560.44	158
1561.76	164
1563.08	168
1564.4	166
1565.71	154
1567.03	172
1568.35	178
1569.66	170
1570.98	172
1572.29	192
1573.61	210
1574.93	192
1576.24	220
1577.55	230
1578.87	268
1580.18	322
1581.5	370
1582.81	410
1584.12	384
1585.43	330
1586.75	284
1588.06	274
1589.37	246
1590.68	238
1591.99	256
1593.3	274
1594.61	282
1595.92	346
1597.23	420
1598.54	490
1599.85	610
1601.16	680
1602.47	710
1603.78	658
1605.08	568
1606.39	456
1607.7	362
1609	320
1610.31	268
1611.62	238
1612.92	218
1614.23	206
1615.53	198
1616.84	180
1618.14	170
1619.45	182
1620.75	184
1622.06	166
1623.36	166
1624.66	170
1625.96	156
1627.27	152
1628.57	162
1629.87	156
1631.17	150
1632.47	148
1633.77	144
1635.07	150
1636.37	146
1637.67	144
1638.97	158
1640.27	150
1641.57	148
1642.87	152
1644.17	144
1645.47	154
1646.76	148
1648.06	140
1649.36	150
1650.66	156
1651.95	146
1653.25	142
1654.54	150
1655.84	124
1657.13	132
1658.43	140
1659.72	126
1661.02	132
1662.31	134
1663.6	126
1664.9	136
1666.19	138
1667.48	132
1668.78	134
1670.07	132
1671.36	118
1672.65	128
1673.94	130
1675.23	120
1676.52	138
1677.81	120
1679.1	126
1680.39	126
1681.68	120
1682.97	118
1684.26	124
1685.55	122
1686.83	118
1688.12	126
1689.41	124
1690.7	128
1691.98	124
1693.27	124
1694.55	126
1695.84	112
1697.13	120
1698.41	120
1699.69	120
1700.98	124
1702.26	122