File: Jesse_Dataset_v2/Pure Raman/Polystyrene/785nm/ps-ppo-6jan25-1,0000-map3_Y04_X05.txt
204.377	844
206.045	846
207.713	854
209.38	840
211.048	866
212.715	884
214.381	930
216.047	928
217.712	922
219.377	900
221.042	922
222.706	894
224.369	884
226.032	854
227.695	804
229.357	772
231.019	708
232.68	640
234.341	632
236.001	580
237.661	546
239.321	516
240.98	440
242.639	386
244.297	376
245.955	344
247.612	338
249.268	320
250.924	304
252.58	294
254.236	276
255.891	272
257.546	282
259.2	258
260.854	272
262.507	272
264.16	256
265.812	250
267.463	256
269.115	238
270.766	248
272.417	244
274.067	238
275.717	224
277.365	226
279.014	212
280.663	218
282.311	214
283.958	216
285.605	216
287.252	196
288.898	192
290.543	182
292.188	188
293.833	174
295.477	186
297.121	172
298.765	172
300.407	170
302.05	162
303.693	162
305.334	168
306.975	156
308.615	166
310.256	162
311.896	160
313.535	172
315.175	162
316.813	164
318.451	146
320.089	170
321.726	172
323.362	170
324.999	160
326.635	176
328.271	180
329.905	172
331.54	164
333.174	168
334.807	160
336.441	156
338.074	160
339.707	158
341.338	166
342.969	164
344.601	154
346.231	152
347.861	158
349.491	148
351.12	150
352.749	142
354.378	148
356.006	148
357.633	152
359.261	136
360.887	154
362.513	148
364.139	140
365.764	148
367.39	154
369.014	148
370.638	144
372.261	152
373.884	164
375.508	150
377.13	162
378.752	164
380.373	170
381.994	176
383.615	178
385.235	174
386.854	186
388.473	186
390.092	192
391.711	176
393.328	188
394.947	186
396.564	202
398.181	204
399.797	198
401.412	222
403.027	224
404.642	242
406.257	226
407.871	226
409.484	232
411.098	210
412.711	202
414.323	188
415.935	184
417.547	170
419.158	184
420.768	178
422.378	166
423.988	162
425.597	154
427.206	142
428.814	148
430.422	142
432.03	150
433.637	140
435.243	136
436.85	144
438.456	148
440.062	134
441.666	128
443.271	132
444.876	140
446.479	128
448.082	126
449.685	124
451.287	122
452.89	122
454.492	120
456.092	116
457.693	110
459.293	108
460.893	116
462.492	100
464.092	94
465.691	106
467.288	114
468.887	98
470.483	106
472.081	110
473.677	112
475.273	102
476.869	94
478.463	106
480.059	102
481.653	104
483.247	94
484.84	96
486.433	98
488.026	96
489.618	96
491.21	116
492.801	100
494.392	92
495.983	102
497.573	102
499.162	94
500.752	118
502.341	102
503.929	114
505.517	110
507.105	108
508.692	94
510.279	108
511.865	114
513.45	114
515.037	106
516.621	114
518.206	118
519.79	116
521.374	118
522.957	118
524.54	114
526.123	124
527.705	120
529.287	126
530.868	128
532.448	136
534.029	144
535.609	142
537.188	136
538.768	138
540.346	136
541.925	154
543.502	156
545.08	134
546.657	140
548.234	146
549.81	150
551.386	128
552.961	136
554.536	130
556.11	130
557.684	138
559.258	120
560.832	136
562.405	124
563.977	136
565.55	138
567.12	132
568.692	134
570.263	134
571.833	146
573.403	140
574.973	140
576.542	130
578.111	130
579.679	134
581.247	112
582.815	112
584.382	100
585.948	96
587.514	110
589.081	114
590.645	114
592.211	110
593.775	112
595.339	112
596.904	108
598.466	104
600.03	116
601.592	112
603.154	116
604.715	134
606.277	150
607.838	150
609.398	142
610.958	146
612.518	148
614.077	186
615.636	214
617.194	324
618.753	510
620.31	732
621.867	688
623.424	496
624.98	290
626.537	198
628.092	160
629.647	148
631.202	126
632.756	120
634.31	112
635.864	100
637.417	100
638.969	92
640.521	94
642.074	84
643.625	84
645.176	82
646.726	86
648.276	82
649.827	86
651.376	72
652.925	80
654.473	90
656.021	86
657.569	78
659.117	80
660.664	76
662.21	78
663.757	76
665.302	78
666.847	80
668.392	76
669.937	76
671.481	74
673.025	78
674.568	78
676.111	82
677.653	74
679.195	76
680.737	88
682.279	82
683.82	74
685.36	78
686.9	76
688.44	80
689.979	72
691.517	68
693.056	72
694.594	84
696.132	86
697.669	90
699.206	88
700.742	106
702.278	98
703.814	98
705.35	94
706.884	96
708.419	94
709.953	94
711.487	98
713.019	90
714.552	80
716.085	102
717.617	98
719.148	102
720.68	104
722.21	136
723.741	152
725.271	160
726.8	140
728.33	124
729.858	142
731.387	120
732.915	126
734.443	132
735.97	140
737.497	170
739.023	176
740.549	176
742.075	178
743.6	190
745.125	192
746.65	198
748.173	188
749.697	188
751.22	200
752.743	210
754.266	202
755.788	230
757.309	234
758.831	212
760.351	226
761.871	236
763.392	234
764.912	228
766.431	218
767.95	226
769.468	196
770.986	210
772.504	194
774.022	188
775.538	198
777.055	200
778.571	196
780.086	210
781.602	230
783.117	234
784.632	262
786.146	278
787.659	280
789.173	308
790.685	308
792.198	312
793.71	340
795.222	344
796.733	340
798.244	312
799.755	306
801.265	286
802.775	254
804.284	216
805.793	214
807.302	192
808.81	182
810.318	194
811.826	162
813.333	162
814.84	152
816.346	146
817.851	124
819.357	116
820.862	122
822.367	114
823.871	114
825.376	102
826.878	110
828.382	116
829.885	108
831.387	110
832.889	122
834.391	122
835.892	140
837.392	142
838.893	158
840.393	172
841.893	162
843.392	144
844.891	158
846.389	142
847.888	136
849.386	140
850.882	128
852.38	122
853.876	126
855.372	126
856.868	118
858.363	120
859.858	138
861.353	112
862.847	124
864.341	120
865.834	118
867.328	130
868.82	118
870.313	134
871.805	116
873.296	130
874.787	124
876.278	128
877.769	118
879.258	118
880.748	112
882.237	110
883.726	120
885.214	104
886.702	106
888.19	112
889.677	108
891.164	118
892.651	112
894.137	110
895.623	114
897.108	110
898.593	122
900.077	126
901.562	126
903.046	136
904.529	142
906.012	140
907.495	146
908.977	138
910.459	142
911.941	128
913.422	114
914.903	110
916.383	110
917.863	112
919.343	98
920.822	96
922.301	98
923.779	88
925.257	94
926.735	92
928.213	92
929.69	94
931.166	92
932.643	100
934.119	90
935.594	96
937.069	94
938.543	98
940.018	100
941.492	94
942.966	102
944.439	90
945.911	100
947.384	96
948.856	100
950.328	100
951.799	102
953.27	96
954.741	106
956.21	116
957.68	106
959.15	112
960.619	112
962.088	102
963.556	124
965.023	134
966.491	122
967.958	126
969.425	128
970.891	116
972.357	138
973.824	144
975.288	146
976.754	152
978.218	162
979.682	180
981.146	204
982.609	214
984.072	238
985.534	260
986.997	328
988.459	418
989.92	554
991.382	758
992.842	822
994.302	778
995.763	846
997.222	1210
998.681	1962
1000.14	2884
1001.6	3336
1003.06	2870
1004.52	1988
1005.97	1210
1007.43	690
1008.89	426
1010.34	318
1011.8	248
1013.25	206
1014.71	184
1016.16	188
1017.62	186
1019.07	186
1020.53	206
1021.98	246
1023.43	284
1024.89	388
1026.34	496
1027.79	646
1029.24	770
1030.69	892
1032.14	870
1033.59	834
1035.04	672
1036.49	518
1037.94	420
1039.39	312
1040.84	276
1042.29	222
1043.73	204
1045.18	192
1046.63	164
1048.08	154
1049.52	152
1050.97	144
1052.41	144
1053.86	158
1055.3	146
1056.75	154
1058.19	164
1059.64	154
1061.08	148
1062.52	158
1063.96	164
1065.41	160
1066.85	154
1068.29	176
1069.73	168
1071.17	168
1072.61	170
1074.05	176
1075.49	164
1076.93	162
1078.37	158
1079.81	166
1081.25	164
1082.68	168
1084.12	172
1085.56	156
1087	166
1088.43	158
1089.87	166
1091.3	168
1092.74	164
1094.17	150
1095.61	178
1097.04	164
1098.48	172
1099.91	170
1101.34	170
1102.78	156
1104.21	154
1105.64	152
1107.07	132
1108.5	128
1109.93	134
1111.36	134
1112.8	124
1114.22	120
1115.65	128
1117.08	118
1118.51	124
1119.94	114
1121.37	102
1122.8	98
1124.22	102
1125.65	92
1127.08	108
1128.5	102
1129.93	100
1131.35	106
1132.78	110
1134.2	104
1135.63	112
1137.05	120
1138.48	116
1139.9	128
1141.32	136
1142.75	136
1144.17	146
1145.59	162
1147.01	154
1148.43	192
1149.85	240
1151.27	278
1152.69	342
1154.11	404
1155.53	426
1156.95	396
1158.37	334
1159.79	298
1161.21	260
1162.62	232
1164.04	220
1165.46	208
1166.87	202
1168.29	186
1169.71	200
1171.12	212
1172.54	230
1173.95	252
1175.37	304
1176.78	342
1178.19	420
1179.61	470
1181.02	526
1182.43	534
1183.84	496
1185.26	468
1186.67	438
1188.08	410
1189.49	430
1190.9	474
1192.31	484
1193.72	514
1195.13	474
1196.54	518
1197.95	480
1199.36	490
1200.76	492
1202.17	460
1203.58	452
1204.99	408
1206.39	374
1207.8	336
1209.2	320
1210.61	276
1212.01	262
1213.42	250
1214.82	222
1216.23	220
1217.63	212
1219.03	196
1220.44	188
1221.84	204
1223.24	204
1224.64	196
1226.05	216
1227.45	190
1228.85	194
1230.25	182
1231.65	186
1233.05	174
1234.45	180
1235.85	174
1237.25	156
1238.64	170
1240.04	172
1241.44	166
1242.84	172
1244.23	174
1245.63	174
1247.03	146
1248.42	174
1249.82	176
1251.21	168
1252.61	158
1254	174
1255.4	166
1256.79	164
1258.19	164
1259.58	154
1260.97	166
1262.36	170
1263.76	166
1265.15	174
1266.54	174
1267.93	176
1269.32	166
1270.71	166
1272.1	156
1273.49	172
1274.88	182
1276.27	182
1277.66	172
1279.05	172
1280.43	182
1281.82	172
1283.21	172
1284.6	170
1285.98	184
1287.37	168
1288.75	182
1290.14	214
1291.53	186
1292.91	192
1294.29	194
1295.68	196
1297.06	200
1298.45	192
1299.83	204
1301.21	214
1302.59	228
1303.98	204
1305.36	216
1306.74	226
1308.12	234
1309.5	230
1310.88	226
1312.26	230
1313.64	258
1315.02	222
1316.4	246
1317.78	250
1319.16	256
1320.53	262
1321.91	284
1323.29	282
1324.67	282
1326.04	296
1327.42	292
1328.79	278
1330.17	308
1331.54	312
1332.92	296
1334.29	280
1335.67	280
1337.04	290
1338.42	274
1339.79	282
1341.16	268
1342.53	260
1343.91	260
1345.28	256
1346.65	262
1348.02	260
1349.39	254
1350.76	250
1352.13	252
1353.5	266
1354.87	242
1356.24	250
1357.61	260
1358.98	278
1360.34	270
1361.71	252
1363.08	270
1364.45	276
1365.81	268
1367.18	274
1368.54	272
1369.91	270
1371.28	274
1372.64	270
1374.01	280
1375.37	286
1376.73	268
1378.1	266
1379.46	268
1380.82	264
1382.19	244
1383.55	256
1384.91	238
1386.27	238
1387.63	246
1388.99	232
1390.35	236
1391.71	242
1393.07	230
1394.43	228
1395.79	244
1397.15	234
1398.51	248
1399.87	236
1401.23	226
1402.58	236
1403.94	230
1405.3	236
1406.65	220
1408.01	230
1409.37	212
1410.72	236
1412.08	224
1413.43	198
1414.79	218
1416.14	222
1417.49	216
1418.85	232
1420.2	226
1421.55	224
1422.91	208
1424.26	216
1425.61	212
1426.96	214
1428.31	238
1429.66	210
1431.01	226
1432.36	228
1433.71	220
1435.06	248
1436.41	270
1437.76	274
1439.11	266
1440.46	284
1441.81	298
1443.15	296
1444.5	328
1445.85	330
1447.19	332
1448.54	336
1449.89	316
1451.23	318
1452.58	314
1453.92	312
1455.27	288
1456.61	262
1457.95	248
1459.3	224
1460.64	226
1461.98	216
1463.33	194
1464.67	198
1466.01	194
1467.35	192
1468.69	178
1470.03	190
1471.37	176
1472.71	178
1474.05	190
1475.39	176
1476.73	186
1478.07	188
1479.41	168
1480.75	184
1482.09	172
1483.42	190
1484.76	174
1486.1	176
1487.43	166
1488.77	178
1490.11	170
1491.44	186
1492.78	192
1494.11	208
1495.45	166
1496.78	174
1498.12	186
1499.45	170
1500.78	168
1502.11	164
1503.45	170
1504.78	176
1506.11	160
1507.44	174
1508.77	150
1510.11	168
1511.44	168
1512.77	162
1514.1	156
1515.43	164
1516.76	164
1518.08	172
1519.41	156
1520.74	148
1522.07	166
1523.4	172
1524.72	160
1526.05	158
1527.38	162
1528.7	166
1530.03	156
1531.36	166
1532.68	152
1534.01	166
1535.33	158
1536.66	162
1537.98	154
1539.3	170
1540.63	152
1541.95	162
1543.27	168
1544.6	156
1545.92	162
1547.24	166
1548.56	164
1549.88	158
1551.2	164
1552.52	158
1553.84	162
1555.17	166
1556.48	160
1557.8	164
1559.12	158
1560.44	162
1561.76	160
1563.08	166
1564.4	162
1565.71	168
1567.03	160
1568.35	176
1569.66	178
1570.98	194
1572.29	194
1573.61	206
1574.93	206
1576.24	218
1577.55	230
1578.87	276
1580.18	328
1581.5	406
1582.81	426
1584.12	392
1585.43	350
1586.75	296
1588.06	252
1589.37	238
1590.68	258
1591.99	264
1593.3	296
1594.61	308
1595.92	338
1597.23	424
1598.54	506
1599.85	588
1601.16	682
1602.47	694
1603.78	652
1605.08	562
1606.39	464
1607.7	382
1609	312
1610.31	276
1611.62	238
1612.92	214
1614.23	214
1615.53	196
1616.84	194
1618.14	178
1619.45	168
1620.75	180
1622.06	168
1623.36	174
1624.66	150
1625.96	154
1627.27	158
1628.57	142
1629.87	150
1631.17	142
1632.47	152
1633.77	144
1635.07	140
1636.37	150
1637.67	142
1638.97	144
1640.27	150
1641.57	140
1642.87	146
1644.17	148
1645.47	162
1646.76	144
1648.06	150
1649.36	138
1650.66	144
1651.95	146
1653.25	142
1654.54	124
1655.84	146
1657.13	134
1658.43	132
1659.72	136
1661.02	140
1662.31	132
1663.6	128
1664.9	134
1666.19	126
1667.48	128
1668.78	118
1670.07	120
1671.36	126
1672.65	124
1673.94	122
1675.23	136
1676.52	108
1677.81	122
1679.1	126
1680.39	120
1681.68	132
1682.97	122
1684.26	114
1685.55	134
1686.83	126
1688.12	132
1689.41	118
1690.7	120
1691.98	120
1693.27	116
1694.55	114
1695.84	132
1697.13	122
1698.41	118
1699.69	122
1700.98	124
1702.26	106