File: Jesse_Dataset_v2/Pure Raman/Polystyrene/785nm/ps-ppo-6jan25-1,0000-map3_Y08_X03.txt
204.377	844
206.045	820
207.713	868
209.38	860
211.048	874
212.715	856
214.381	918
216.047	888
217.712	914
219.377	908
221.042	874
222.706	886
224.369	898
226.032	862
227.695	824
229.357	774
231.019	738
232.68	666
234.341	632
236.001	564
237.661	550
239.321	482
240.98	470
242.639	408
244.297	382
245.955	354
247.612	338
249.268	312
250.924	294
252.58	294
254.236	276
255.891	282
257.546	282
259.2	270
260.854	266
262.507	260
264.16	238
265.812	254
267.463	250
269.115	242
270.766	226
272.417	236
274.067	246
275.717	234
277.365	236
279.014	222
280.663	198
282.311	216
283.958	216
285.605	210
287.252	208
288.898	200
290.543	194
292.188	176
293.833	184
295.477	158
297.121	174
298.765	178
300.407	166
302.05	170
303.693	166
305.334	158
306.975	172
308.615	158
310.256	164
311.896	162
313.535	166
315.175	172
316.813	174
318.451	162
320.089	170
321.726	168
323.362	174
324.999	170
326.635	168
328.271	168
329.905	166
331.54	150
333.174	174
334.807	162
336.441	158
338.074	158
339.707	152
341.338	160
342.969	170
344.601	152
346.231	156
347.861	146
349.491	162
351.12	158
352.749	144
354.378	150
356.006	146
357.633	148
359.261	148
360.887	150
362.513	154
364.139	152
365.764	140
367.39	142
369.014	152
370.638	144
372.261	152
373.884	146
375.508	156
377.13	166
378.752	162
380.373	170
381.994	164
383.615	162
385.235	186
386.854	176
388.473	174
390.092	186
391.711	188
393.328	190
394.947	204
396.564	192
398.181	186
399.797	200
401.412	198
403.027	226
404.642	242
406.257	234
407.871	234
409.484	236
411.098	206
412.711	198
414.323	174
415.935	192
417.547	184
419.158	164
420.768	170
422.378	168
423.988	156
425.597	156
427.206	146
428.814	138
430.422	150
432.03	136
433.637	148
435.243	138
436.85	138
438.456	134
440.062	134
441.666	136
443.271	130
444.876	106
446.479	130
448.082	122
449.685	122
451.287	116
452.89	120
454.492	112
456.092	108
457.693	108
459.293	104
460.893	110
462.492	102
464.092	104
465.691	104
467.288	106
468.887	102
470.483	110
472.081	96
473.677	98
475.273	106
476.869	96
478.463	108
480.059	104
481.653	98
483.247	106
484.84	92
486.433	98
488.026	100
489.618	94
491.21	100
492.801	104
494.392	104
495.983	96
497.573	94
499.162	102
500.752	100
502.341	112
503.929	114
505.517	100
507.105	100
508.692	110
510.279	96
511.865	96
513.45	104
515.037	110
516.621	108
518.206	110
519.79	104
521.374	104
522.957	116
524.54	112
526.123	104
527.705	112
529.287	128
530.868	118
532.448	120
534.029	132
535.609	148
537.188	150
538.768	144
540.346	152
541.925	146
543.502	136
545.08	134
546.657	146
548.234	136
549.81	138
551.386	134
552.961	134
554.536	138
556.11	130
557.684	140
559.258	132
560.832	136
562.405	132
563.977	112
565.55	128
567.12	142
568.692	126
570.263	114
571.833	136
573.403	134
574.973	136
576.542	140
578.111	116
579.679	114
581.247	118
582.815	118
584.382	112
585.948	108
587.514	110
589.081	112
590.645	114
592.211	112
593.775	98
595.339	116
596.904	102
598.466	104
600.03	108
601.592	114
603.154	130
604.715	124
606.277	140
607.838	154
609.398	140
610.958	134
612.518	160
614.077	186
615.636	226
617.194	306
618.753	522
620.31	718
621.867	694
623.424	460
624.98	272
626.537	198
628.092	166
629.647	138
631.202	134
632.756	122
634.31	110
635.864	96
637.417	106
638.969	98
640.521	88
642.074	80
643.625	92
645.176	84
646.726	84
648.276	76
649.827	80
651.376	82
652.925	76
654.473	70
656.021	78
657.569	82
659.117	76
660.664	74
662.21	70
663.757	74
665.302	74
666.847	74
668.392	70
669.937	72
671.481	78
673.025	74
674.568	76
676.111	70
677.653	74
679.195	72
680.737	76
682.279	70
683.82	70
685.36	68
686.9	72
688.44	74
689.979	70
691.517	76
693.056	70
694.594	82
696.132	84
697.669	90
699.206	84
700.742	88
702.278	98
703.814	98
705.35	102
706.884	88
708.419	102
709.953	96
711.487	96
713.019	88
714.552	98
716.085	92
717.617	98
719.148	104
720.68	122
722.21	130
723.741	140
725.271	140
726.8	136
728.33	132
729.858	116
731.387	120
732.915	132
734.443	126
735.97	144
737.497	166
739.023	168
740.549	184
742.075	166
743.6	180
745.125	170
746.65	188
748.173	182
749.697	200
751.22	198
752.743	202
754.266	204
755.788	234
757.309	226
758.831	234
760.351	238
761.871	236
763.392	234
764.912	216
766.431	208
767.95	206
769.468	212
770.986	224
772.504	196
774.022	192
775.538	182
777.055	192
778.571	194
780.086	212
781.602	222
783.117	238
784.632	258
786.146	286
787.659	278
789.173	292
790.685	328
792.198	340
793.71	346
795.222	326
796.733	336
798.244	336
799.755	304
801.265	292
802.775	232
804.284	228
805.793	198
807.302	186
808.81	182
810.318	180
811.826	164
813.333	162
814.84	166
816.346	142
817.851	128
819.357	120
820.862	118
822.367	102
823.871	108
825.376	116
826.878	112
828.382	118
829.885	106
831.387	116
832.889	114
834.391	122
835.892	132
837.392	134
838.893	154
840.393	166
841.893	166
843.392	152
844.891	148
846.389	148
847.888	130
849.386	132
850.882	140
852.38	134
853.876	132
855.372	134
856.868	130
858.363	118
859.858	120
861.353	126
862.847	122
864.341	128
865.834	132
867.328	118
868.82	120
870.313	124
871.805	120
873.296	114
874.787	116
876.278	114
877.769	106
879.258	114
880.748	112
882.237	104
883.726	112
885.214	112
886.702	108
888.19	116
889.677	116
891.164	104
892.651	112
894.137	110
895.623	118
897.108	128
898.593	114
900.077	126
901.562	134
903.046	138
904.529	140
906.012	152
907.495	144
908.977	128
910.459	126
911.941	118
913.422	110
914.903	120
916.383	118
917.863	108
919.343	110
920.822	96
922.301	96
923.779	102
925.257	98
926.735	100
928.213	96
929.69	100
931.166	106
932.643	102
934.119	88
935.594	98
937.069	100
938.543	106
940.018	98
941.492	94
942.966	100
944.439	96
945.911	100
947.384	100
948.856	102
950.328	92
951.799	92
953.27	104
954.741	100
956.21	100
957.68	108
959.15	110
960.619	110
962.088	110
963.556	124
965.023	120
966.491	124
967.958	126
969.425	118
970.891	134
972.357	128
973.824	124
975.288	136
976.754	148
978.218	156
979.682	172
981.146	212
982.609	204
984.072	234
985.534	276
986.997	330
988.459	424
989.92	610
991.382	762
992.842	826
994.302	762
995.763	864
997.222	1258
998.681	2022
1000.14	2920
1001.6	3364
1003.06	2878
1004.52	1896
1005.97	1186
1007.43	674
1008.89	446
1010.34	334
1011.8	254
1013.25	210
1014.71	190
1016.16	188
1017.62	200
1019.07	188
1020.53	224
1021.98	252
1023.43	326
1024.89	364
1026.34	514
1027.79	608
1029.24	758
1030.69	876
1032.14	906
1033.59	814
1035.04	672
1036.49	530
1037.94	410
1039.39	308
1040.84	260
1042.29	232
1043.73	202
1045.18	186
1046.63	166
1048.08	178
1049.52	164
1050.97	154
1052.41	150
1053.86	154
1055.3	144
1056.75	142
1058.19	152
1059.64	154
1061.08	154
1062.52	162
1063.96	164
1065.41	174
1066.85	164
1068.29	172
1069.73	178
1071.17	172
1072.61	164
1074.05	178
1075.49	164
1076.93	170
1078.37	166
1079.81	156
1081.25	158
1082.68	170
1084.12	150
1085.56	162
1087	154
1088.43	164
1089.87	154
1091.3	166
1092.74	160
1094.17	170
1095.61	162
1097.04	168
1098.48	152
1099.91	172
1101.34	170
1102.78	162
1104.21	146
1105.64	144
1107.07	138
1108.5	136
1109.93	136
1111.36	128
1112.8	124
1114.22	130
1115.65	130
1117.08	114
1118.51	108
1119.94	112
1121.37	102
1122.8	108
1124.22	102
1125.65	106
1127.08	122
1128.5	112
1129.93	110
1131.35	104
1132.78	104
1134.2	100
1135.63	110
1137.05	112
1138.48	112
1139.9	126
1141.32	128
1142.75	146
1144.17	146
1145.59	166
1147.01	162
1148.43	182
1149.85	232
1151.27	294
1152.69	336
1154.11	410
1155.53	416
1156.95	382
1158.37	346
1159.79	274
1161.21	252
1162.62	222
1164.04	202
1165.46	208
1166.87	206
1168.29	212
1169.71	206
1171.12	230
1172.54	250
1173.95	252
1175.37	306
1176.78	356
1178.19	406
1179.61	470
1181.02	504
1182.43	550
1183.84	486
1185.26	460
1186.67	444
1188.08	434
1189.49	418
1190.9	468
1192.31	496
1193.72	500
1195.13	498
1196.54	488
1197.95	520
1199.36	504
1200.76	478
1202.17	458
1203.58	436
1204.99	420
1206.39	376
1207.8	362
1209.2	314
1210.61	294
1212.01	272
1213.42	260
1214.82	236
1216.23	224
1217.63	220
1219.03	214
1220.44	202
1221.84	200
1223.24	204
1224.64	208
1226.05	190
1227.45	186
1228.85	184
1230.25	180
1231.65	168
1233.05	170
1234.45	180
1235.85	166
1237.25	156
1238.64	168
1240.04	166
1241.44	176
1242.84	170
1244.23	176
1245.63	164
1247.03	168
1248.42	162
1249.82	170
1251.21	156
1252.61	170
1254	160
1255.4	158
1256.79	164
1258.19	156
1259.58	166
1260.97	164
1262.36	174
1263.76	166
1265.15	180
1266.54	164
1267.93	166
1269.32	170
1270.71	166
1272.1	162
1273.49	168
1274.88	174
1276.27	172
1277.66	174
1279.05	162
1280.43	170
1281.82	178
1283.21	172
1284.6	166
1285.98	186
1287.37	168
1288.75	194
1290.14	178
1291.53	188
1292.91	190
1294.29	172
1295.68	208
1297.06	206
1298.45	206
1299.83	196
1301.21	190
1302.59	218
1303.98	200
1305.36	210
1306.74	218
1308.12	206
1309.5	230
1310.88	236
1312.26	218
1313.64	230
1315.02	236
1316.4	230
1317.78	262
1319.16	244
1320.53	262
1321.91	260
1323.29	262
1324.67	278
1326.04	296
1327.42	300
1328.79	292
1330.17	302
1331.54	280
1332.92	288
1334.29	300
1335.67	276
1337.04	276
1338.42	282
1339.79	258
1341.16	280
1342.53	254
1343.91	262
1345.28	254
1346.65	262
1348.02	266
1349.39	268
1350.76	264
1352.13	258
1353.5	256
1354.87	266
1356.24	256
1357.61	264
1358.98	278
1360.34	272
1361.71	272
1363.08	256
1364.45	280
1365.81	274
1367.18	276
1368.54	280
1369.91	274
1371.28	290
1372.64	278
1374.01	272
1375.37	274
1376.73	276
1378.1	256
1379.46	274
1380.82	266
1382.19	254
1383.55	260
1384.91	252
1386.27	246
1387.63	240
1388.99	228
1390.35	228
1391.71	236
1393.07	226
1394.43	240
1395.79	220
1397.15	234
1398.51	220
1399.87	234
1401.23	238
1402.58	234
1403.94	218
1405.3	218
1406.65	232
1408.01	234
1409.37	214
1410.72	218
1412.08	216
1413.43	210
1414.79	230
1416.14	218
1417.49	222
1418.85	218
1420.2	194
1421.55	210
1422.91	220
1424.26	210
1425.61	236
1426.96	210
1428.31	232
1429.66	218
1431.01	240
1432.36	222
1433.71	236
1435.06	240
1436.41	248
1437.76	246
1439.11	268
1440.46	280
1441.81	290
1443.15	320
1444.5	328
1445.85	326
1447.19	324
1448.54	326
1449.89	340
1451.23	332
1452.58	312
1453.92	326
1455.27	282
1456.61	264
1457.95	240
1459.3	240
1460.64	210
1461.98	192
1463.33	198
1464.67	194
1466.01	194
1467.35	196
1468.69	182
1470.03	184
1471.37	178
1472.71	186
1474.05	192
1475.39	186
1476.73	180
1478.07	186
1479.41	172
1480.75	174
1482.09	184
1483.42	176
1484.76	172
1486.1	166
1487.43	170
1488.77	176
1490.11	178
1491.44	184
1492.78	174
1494.11	194
1495.45	178
1496.78	174
1498.12	180
1499.45	162
1500.78	172
1502.11	168
1503.45	164
1504.78	158
1506.11	162
1507.44	162
1508.77	170
1510.11	164
1511.44	158
1512.77	154
1514.1	156
1515.43	178
1516.76	162
1518.08	162
1519.41	162
1520.74	158
1522.07	150
1523.4	162
1524.72	170
1526.05	156
1527.38	160
1528.7	160
1530.03	156
1531.36	154
1532.68	164
1534.01	158
1535.33	152
1536.66	144
1537.98	156
1539.3	168
1540.63	148
1541.95	164
1543.27	158
1544.6	162
1545.92	152
1547.24	162
1548.56	164
1549.88	164
1551.2	150
1552.52	154
1553.84	146
1555.17	154
1556.48	154
1557.8	150
1559.12	156
1560.44	158
1561.76	170
1563.08	168
1564.4	172
1565.71	170
1567.03	160
1568.35	180
1569.66	180
1570.98	178
1572.29	174
1573.61	198
1574.93	204
1576.24	208
1577.55	244
1578.87	264
1580.18	322
1581.5	396
1582.81	418
1584.12	406
1585.43	358
1586.75	282
1588.06	258
1589.37	234
1590.68	262
1591.99	250
1593.3	278
1594.61	316
1595.92	346
1597.23	408
1598.54	528
1599.85	602
1601.16	700
1602.47	700
1603.78	636
1605.08	560
1606.39	484
1607.7	374
1609	312
1610.31	282
1611.62	250
1612.92	214
1614.23	214
1615.53	188
1616.84	170
1618.14	182
1619.45	190
1620.75	178
1622.06	170
1623.36	164
1624.66	154
1625.96	156
1627.27	158
1628.57	156
1629.87	150
1631.17	160
1632.47	140
1633.77	140
1635.07	142
1636.37	144
1637.67	128
1638.97	152
1640.27	130
1641.57	146
1642.87	150
1644.17	144
1645.47	148
1646.76	162
1648.06	164
1649.36	152
1650.66	144
1651.95	146
1653.25	130
1654.54	140
1655.84	126
1657.13	142
1658.43	138
1659.72	132
1661.02	138
1662.31	132
1663.6	134
1664.9	140
1666.19	128
1667.48	136
1668.78	126
1670.07	132
1671.36	122
1672.65	142
1673.94	138
1675.23	124
1676.52	120
1677.81	118
1679.1	120
1680.39	128
1681.68	124
1682.97	132
1684.26	128
1685.55	132
1686.83	120
1688.12	128
1689.41	124
1690.7	126
1691.98	118
1693.27	126
1694.55	108
1695.84	128
1697.13	130
1698.41	124
1699.69	116
1700.98	108
1702.26	122