File: Jesse_Dataset_v2/Pure Raman/Polystyrene/785nm/ps-ppo-6jan25-1,0000-map3_Y04_X09.txt
204.377	858
206.045	844
207.713	884
209.38	878
211.048	892
212.715	900
214.381	916
216.047	930
217.712	918
219.377	910
221.042	912
222.706	908
224.369	906
226.032	864
227.695	798
229.357	796
231.019	714
232.68	672
234.341	636
236.001	604
237.661	566
239.321	530
240.98	468
242.639	420
244.297	386
245.955	346
247.612	336
249.268	318
250.924	302
252.58	302
254.236	294
255.891	280
257.546	278
259.2	262
260.854	288
262.507	274
264.16	274
265.812	262
267.463	254
269.115	254
270.766	240
272.417	256
274.067	242
275.717	254
277.365	244
279.014	216
280.663	228
282.311	240
283.958	218
285.605	198
287.252	202
288.898	188
290.543	198
292.188	184
293.833	170
295.477	180
297.121	168
298.765	170
300.407	160
302.05	168
303.693	172
305.334	164
306.975	180
308.615	172
310.256	164
311.896	172
313.535	168
315.175	172
316.813	172
318.451	176
320.089	178
321.726	182
323.362	172
324.999	166
326.635	186
328.271	172
329.905	166
331.54	164
333.174	176
334.807	178
336.441	176
338.074	168
339.707	170
341.338	162
342.969	176
344.601	160
346.231	162
347.861	164
349.491	162
351.12	162
352.749	164
354.378	158
356.006	152
357.633	154
359.261	156
360.887	148
362.513	146
364.139	156
365.764	158
367.39	164
369.014	158
370.638	150
372.261	154
373.884	164
375.508	164
377.13	158
378.752	182
380.373	164
381.994	166
383.615	178
385.235	190
386.854	174
388.473	192
390.092	200
391.711	192
393.328	198
394.947	198
396.564	208
398.181	186
399.797	208
401.412	226
403.027	226
404.642	220
406.257	238
407.871	230
409.484	218
411.098	204
412.711	206
414.323	204
415.935	192
417.547	170
419.158	192
420.768	184
422.378	164
423.988	158
425.597	156
427.206	164
428.814	164
430.422	154
432.03	158
433.637	136
435.243	138
436.85	146
438.456	138
440.062	146
441.666	134
443.271	144
444.876	136
446.479	134
448.082	130
449.685	124
451.287	122
452.89	124
454.492	118
456.092	118
457.693	112
459.293	110
460.893	120
462.492	100
464.092	110
465.691	110
467.288	118
468.887	108
470.483	106
472.081	114
473.677	100
475.273	110
476.869	106
478.463	102
480.059	102
481.653	104
483.247	108
484.84	102
486.433	106
488.026	108
489.618	100
491.21	106
492.801	106
494.392	98
495.983	108
497.573	112
499.162	110
500.752	118
502.341	104
503.929	106
505.517	122
507.105	108
508.692	110
510.279	102
511.865	106
513.45	106
515.037	108
516.621	100
518.206	104
519.79	114
521.374	110
522.957	118
524.54	118
526.123	120
527.705	118
529.287	130
530.868	126
532.448	126
534.029	138
535.609	136
537.188	166
538.768	146
540.346	132
541.925	154
543.502	142
545.08	156
546.657	148
548.234	138
549.81	142
551.386	148
552.961	140
554.536	142
556.11	134
557.684	142
559.258	144
560.832	146
562.405	140
563.977	134
565.55	134
567.12	132
568.692	132
570.263	144
571.833	146
573.403	144
574.973	152
576.542	138
578.111	132
579.679	130
581.247	120
582.815	124
584.382	122
585.948	114
587.514	106
589.081	104
590.645	120
592.211	102
593.775	124
595.339	112
596.904	122
598.466	108
600.03	114
601.592	120
603.154	122
604.715	134
606.277	154
607.838	150
609.398	148
610.958	148
612.518	158
614.077	184
615.636	194
617.194	332
618.753	520
620.31	716
621.867	696
623.424	476
624.98	280
626.537	198
628.092	168
629.647	148
631.202	144
632.756	122
634.31	120
635.864	118
637.417	98
638.969	100
640.521	92
642.074	96
643.625	92
645.176	88
646.726	82
648.276	86
649.827	84
651.376	80
652.925	78
654.473	80
656.021	82
657.569	80
659.117	76
660.664	86
662.21	86
663.757	82
665.302	82
666.847	84
668.392	72
669.937	90
671.481	84
673.025	72
674.568	72
676.111	74
677.653	78
679.195	82
680.737	82
682.279	78
683.82	84
685.36	78
686.9	68
688.44	80
689.979	86
691.517	86
693.056	80
694.594	84
696.132	90
697.669	88
699.206	100
700.742	104
702.278	106
703.814	108
705.35	96
706.884	102
708.419	102
709.953	106
711.487	108
713.019	106
714.552	100
716.085	102
717.617	118
719.148	106
720.68	128
722.21	140
723.741	132
725.271	160
726.8	136
728.33	132
729.858	136
731.387	134
732.915	132
734.443	130
735.97	148
737.497	170
739.023	176
740.549	178
742.075	188
743.6	182
745.125	186
746.65	188
748.173	196
749.697	192
751.22	204
752.743	200
754.266	224
755.788	228
757.309	240
758.831	232
760.351	238
761.871	232
763.392	230
764.912	230
766.431	220
767.95	224
769.468	214
770.986	206
772.504	180
774.022	204
775.538	216
777.055	206
778.571	204
780.086	216
781.602	220
783.117	234
784.632	266
786.146	280
787.659	294
789.173	300
790.685	328
792.198	332
793.71	346
795.222	354
796.733	344
798.244	332
799.755	316
801.265	288
802.775	266
804.284	244
805.793	222
807.302	214
808.81	188
810.318	182
811.826	184
813.333	166
814.84	166
816.346	150
817.851	144
819.357	136
820.862	124
822.367	130
823.871	116
825.376	118
826.878	110
828.382	120
829.885	110
831.387	118
832.889	130
834.391	132
835.892	140
837.392	144
838.893	158
840.393	156
841.893	170
843.392	168
844.891	156
846.389	144
847.888	134
849.386	142
850.882	140
852.38	138
853.876	132
855.372	128
856.868	126
858.363	132
859.858	136
861.353	122
862.847	132
864.341	134
865.834	134
867.328	130
868.82	120
870.313	134
871.805	128
873.296	130
874.787	126
876.278	118
877.769	114
879.258	118
880.748	116
882.237	126
883.726	118
885.214	110
886.702	128
888.19	130
889.677	112
891.164	122
892.651	120
894.137	122
895.623	112
897.108	122
898.593	130
900.077	144
901.562	140
903.046	144
904.529	156
906.012	140
907.495	148
908.977	154
910.459	144
911.941	126
913.422	128
914.903	118
916.383	122
917.863	108
919.343	104
920.822	104
922.301	106
923.779	98
925.257	96
926.735	100
928.213	100
929.69	96
931.166	102
932.643	104
934.119	96
935.594	104
937.069	102
938.543	106
940.018	104
941.492	106
942.966	98
944.439	110
945.911	108
947.384	108
948.856	96
950.328	116
951.799	98
953.27	106
954.741	106
956.21	112
957.68	110
959.15	122
960.619	110
962.088	128
963.556	134
965.023	134
966.491	136
967.958	128
969.425	140
970.891	144
972.357	144
973.824	142
975.288	154
976.754	158
978.218	180
979.682	188
981.146	212
982.609	228
984.072	276
985.534	284
986.997	334
988.459	398
989.92	608
991.382	768
992.842	822
994.302	806
995.763	884
997.222	1242
998.681	1994
1000.14	2926
1001.6	3348
1003.06	2876
1004.52	1956
1005.97	1174
1007.43	684
1008.89	448
1010.34	328
1011.8	238
1013.25	222
1014.71	190
1016.16	190
1017.62	194
1019.07	198
1020.53	228
1021.98	272
1023.43	332
1024.89	392
1026.34	504
1027.79	644
1029.24	780
1030.69	880
1032.14	914
1033.59	844
1035.04	694
1036.49	540
1037.94	410
1039.39	332
1040.84	270
1042.29	240
1043.73	220
1045.18	196
1046.63	196
1048.08	168
1049.52	170
1050.97	180
1052.41	156
1053.86	156
1055.3	160
1056.75	148
1058.19	144
1059.64	156
1061.08	160
1062.52	170
1063.96	180
1065.41	170
1066.85	186
1068.29	178
1069.73	164
1071.17	182
1072.61	176
1074.05	166
1075.49	190
1076.93	178
1078.37	172
1079.81	174
1081.25	174
1082.68	176
1084.12	154
1085.56	176
1087	168
1088.43	172
1089.87	172
1091.3	168
1092.74	182
1094.17	174
1095.61	178
1097.04	174
1098.48	172
1099.91	178
1101.34	164
1102.78	170
1104.21	156
1105.64	142
1107.07	136
1108.5	140
1109.93	136
1111.36	146
1112.8	134
1114.22	134
1115.65	130
1117.08	124
1118.51	126
1119.94	118
1121.37	118
1122.8	114
1124.22	118
1125.65	110
1127.08	112
1128.5	106
1129.93	118
1131.35	108
1132.78	114
1134.2	110
1135.63	122
1137.05	120
1138.48	124
1139.9	124
1141.32	144
1142.75	148
1144.17	150
1145.59	168
1147.01	182
1148.43	188
1149.85	238
1151.27	292
1152.69	366
1154.11	412
1155.53	414
1156.95	406
1158.37	360
1159.79	288
1161.21	266
1162.62	234
1164.04	224
1165.46	222
1166.87	200
1168.29	218
1169.71	224
1171.12	224
1172.54	246
1173.95	262
1175.37	312
1176.78	358
1178.19	440
1179.61	502
1181.02	508
1182.43	518
1183.84	502
1185.26	482
1186.67	446
1188.08	452
1189.49	450
1190.9	478
1192.31	490
1193.72	500
1195.13	512
1196.54	520
1197.95	504
1199.36	498
1200.76	472
1202.17	472
1203.58	462
1204.99	402
1206.39	380
1207.8	374
1209.2	328
1210.61	288
1212.01	276
1213.42	258
1214.82	252
1216.23	220
1217.63	230
1219.03	220
1220.44	210
1221.84	228
1223.24	210
1224.64	192
1226.05	216
1227.45	202
1228.85	194
1230.25	172
1231.65	174
1233.05	188
1234.45	176
1235.85	166
1237.25	176
1238.64	182
1240.04	174
1241.44	182
1242.84	174
1244.23	176
1245.63	180
1247.03	170
1248.42	182
1249.82	178
1251.21	168
1252.61	180
1254	166
1255.4	174
1256.79	174
1258.19	174
1259.58	188
1260.97	178
1262.36	172
1263.76	188
1265.15	176
1266.54	180
1267.93	164
1269.32	164
1270.71	186
1272.1	174
1273.49	170
1274.88	172
1276.27	182
1277.66	180
1279.05	178
1280.43	194
1281.82	176
1283.21	178
1284.6	188
1285.98	194
1287.37	180
1288.75	196
1290.14	190
1291.53	210
1292.91	202
1294.29	196
1295.68	182
1297.06	204
1298.45	200
1299.83	214
1301.21	216
1302.59	236
1303.98	226
1305.36	236
1306.74	246
1308.12	224
1309.5	230
1310.88	238
1312.26	250
1313.64	254
1315.02	254
1316.4	262
1317.78	268
1319.16	276
1320.53	256
1321.91	284
1323.29	302
1324.67	304
1326.04	300
1327.42	294
1328.79	288
1330.17	296
1331.54	310
1332.92	298
1334.29	294
1335.67	300
1337.04	272
1338.42	286
1339.79	280
1341.16	274
1342.53	270
1343.91	284
1345.28	284
1346.65	270
1348.02	290
1349.39	260
1350.76	260
1352.13	274
1353.5	256
1354.87	282
1356.24	286
1357.61	268
1358.98	274
1360.34	280
1361.71	284
1363.08	262
1364.45	286
1365.81	304
1367.18	292
1368.54	296
1369.91	292
1371.28	292
1372.64	280
1374.01	292
1375.37	280
1376.73	292
1378.1	282
1379.46	282
1380.82	268
1382.19	258
1383.55	280
1384.91	254
1386.27	268
1387.63	254
1388.99	248
1390.35	260
1391.71	256
1393.07	254
1394.43	250
1395.79	244
1397.15	250
1398.51	242
1399.87	236
1401.23	240
1402.58	236
1403.94	250
1405.3	264
1406.65	230
1408.01	240
1409.37	236
1410.72	236
1412.08	242
1413.43	238
1414.79	232
1416.14	242
1417.49	228
1418.85	242
1420.2	218
1421.55	218
1422.91	228
1424.26	234
1425.61	230
1426.96	240
1428.31	234
1429.66	228
1431.01	262
1432.36	244
1433.71	258
1435.06	262
1436.41	260
1437.76	268
1439.11	284
1440.46	298
1441.81	304
1443.15	300
1444.5	334
1445.85	336
1447.19	350
1448.54	330
1449.89	330
1451.23	334
1452.58	334
1453.92	322
1455.27	294
1456.61	270
1457.95	262
1459.3	242
1460.64	224
1461.98	208
1463.33	206
1464.67	220
1466.01	206
1467.35	190
1468.69	188
1470.03	204
1471.37	202
1472.71	200
1474.05	200
1475.39	198
1476.73	192
1478.07	194
1479.41	196
1480.75	204
1482.09	186
1483.42	192
1484.76	174
1486.1	186
1487.43	184
1488.77	182
1490.11	190
1491.44	190
1492.78	194
1494.11	186
1495.45	182
1496.78	192
1498.12	176
1499.45	174
1500.78	184
1502.11	174
1503.45	168
1504.78	170
1506.11	180
1507.44	178
1508.77	182
1510.11	178
1511.44	186
1512.77	182
1514.1	168
1515.43	172
1516.76	176
1518.08	184
1519.41	164
1520.74	166
1522.07	178
1523.4	168
1524.72	186
1526.05	164
1527.38	178
1528.7	170
1530.03	180
1531.36	168
1532.68	164
1534.01	168
1535.33	176
1536.66	160
1537.98	166
1539.3	174
1540.63	164
1541.95	176
1543.27	164
1544.6	176
1545.92	162
1547.24	172
1548.56	170
1549.88	160
1551.2	184
1552.52	170
1553.84	170
1555.17	164
1556.48	158
1557.8	168
1559.12	186
1560.44	178
1561.76	176
1563.08	180
1564.4	180
1565.71	186
1567.03	194
1568.35	172
1569.66	184
1570.98	186
1572.29	190
1573.61	202
1574.93	214
1576.24	220
1577.55	258
1578.87	290
1580.18	336
1581.5	380
1582.81	430
1584.12	420
1585.43	376
1586.75	296
1588.06	288
1589.37	264
1590.68	252
1591.99	266
1593.3	288
1594.61	328
1595.92	368
1597.23	440
1598.54	524
1599.85	638
1601.16	686
1602.47	692
1603.78	628
1605.08	558
1606.39	488
1607.7	378
1609	316
1610.31	276
1611.62	256
1612.92	220
1614.23	214
1615.53	212
1616.84	200
1618.14	184
1619.45	186
1620.75	172
1622.06	184
1623.36	172
1624.66	174
1625.96	174
1627.27	170
1628.57	166
1629.87	158
1631.17	152
1632.47	158
1633.77	162
1635.07	154
1636.37	164
1637.67	162
1638.97	154
1640.27	158
1641.57	144
1642.87	156
1644.17	150
1645.47	166
1646.76	150
1648.06	156
1649.36	152
1650.66	160
1651.95	152
1653.25	152
1654.54	146
1655.84	140
1657.13	132
1658.43	152
1659.72	132
1661.02	144
1662.31	136
1663.6	138
1664.9	144
1666.19	122
1667.48	122
1668.78	134
1670.07	142
1671.36	132
1672.65	138
1673.94	134
1675.23	140
1676.52	148
1677.81	124
1679.1	132
1680.39	134
1681.68	126
1682.97	126
1684.26	132
1685.55	132
1686.83	130
1688.12	120
1689.41	134
1690.7	126
1691.98	122
1693.27	128
1694.55	130
1695.84	130
1697.13	134
1698.41	134
1699.69	124
1700.98	120
1702.26	136