File: Jesse_Dataset_v2/Pure Raman/Polystyrene/785nm/ps-ppo-6jan25-1,0000-map3_Y09_X04.txt
204.377	840
206.045	850
207.713	886
209.38	886
211.048	888
212.715	890
214.381	892
216.047	912
217.712	920
219.377	932
221.042	908
222.706	900
224.369	902
226.032	830
227.695	808
229.357	784
231.019	712
232.68	662
234.341	638
236.001	596
237.661	534
239.321	514
240.98	458
242.639	430
244.297	350
245.955	354
247.612	348
249.268	322
250.924	332
252.58	296
254.236	270
255.891	274
257.546	266
259.2	288
260.854	286
262.507	274
264.16	256
265.812	252
267.463	258
269.115	258
270.766	248
272.417	226
274.067	236
275.717	226
277.365	224
279.014	226
280.663	214
282.311	220
283.958	218
285.605	210
287.252	188
288.898	204
290.543	194
292.188	182
293.833	188
295.477	180
297.121	160
298.765	164
300.407	176
302.05	148
303.693	162
305.334	170
306.975	170
308.615	168
310.256	168
311.896	164
313.535	182
315.175	170
316.813	174
318.451	186
320.089	162
321.726	174
323.362	172
324.999	166
326.635	170
328.271	168
329.905	164
331.54	178
333.174	170
334.807	154
336.441	148
338.074	174
339.707	156
341.338	160
342.969	162
344.601	150
346.231	164
347.861	150
349.491	154
351.12	150
352.749	144
354.378	158
356.006	148
357.633	154
359.261	150
360.887	150
362.513	150
364.139	142
365.764	150
367.39	144
369.014	152
370.638	158
372.261	156
373.884	158
375.508	152
377.13	162
378.752	168
380.373	176
381.994	178
383.615	184
385.235	182
386.854	184
388.473	174
390.092	188
391.711	196
393.328	186
394.947	172
396.564	190
398.181	198
399.797	200
401.412	210
403.027	224
404.642	244
406.257	246
407.871	226
409.484	218
411.098	212
412.711	212
414.323	188
415.935	188
417.547	192
419.158	188
420.768	170
422.378	164
423.988	158
425.597	158
427.206	154
428.814	146
430.422	146
432.03	140
433.637	144
435.243	150
436.85	140
438.456	130
440.062	144
441.666	136
443.271	132
444.876	134
446.479	126
448.082	118
449.685	122
451.287	114
452.89	118
454.492	122
456.092	112
457.693	114
459.293	110
460.893	106
462.492	100
464.092	108
465.691	108
467.288	114
468.887	100
470.483	106
472.081	114
473.677	96
475.273	98
476.869	100
478.463	102
480.059	98
481.653	106
483.247	90
484.84	116
486.433	108
488.026	92
489.618	102
491.21	96
492.801	96
494.392	104
495.983	96
497.573	102
499.162	112
500.752	108
502.341	110
503.929	116
505.517	106
507.105	108
508.692	100
510.279	108
511.865	114
513.45	106
515.037	110
516.621	100
518.206	110
519.79	110
521.374	114
522.957	108
524.54	116
526.123	116
527.705	116
529.287	116
530.868	132
532.448	122
534.029	136
535.609	134
537.188	146
538.768	144
540.346	152
541.925	160
543.502	158
545.08	144
546.657	146
548.234	144
549.81	136
551.386	140
552.961	142
554.536	126
556.11	138
557.684	142
559.258	128
560.832	128
562.405	130
563.977	136
565.55	136
567.12	128
568.692	140
570.263	134
571.833	132
573.403	148
574.973	140
576.542	130
578.111	124
579.679	120
581.247	116
582.815	108
584.382	106
585.948	100
587.514	108
589.081	108
590.645	112
592.211	112
593.775	106
595.339	110
596.904	114
598.466	110
600.03	112
601.592	120
603.154	118
604.715	132
606.277	144
607.838	166
609.398	138
610.958	138
612.518	148
614.077	188
615.636	224
617.194	322
618.753	514
620.31	742
621.867	700
623.424	454
624.98	276
626.537	188
628.092	166
629.647	148
631.202	132
632.756	122
634.31	118
635.864	108
637.417	108
638.969	94
640.521	96
642.074	88
643.625	76
645.176	92
646.726	84
648.276	80
649.827	86
651.376	78
652.925	86
654.473	80
656.021	80
657.569	80
659.117	80
660.664	68
662.21	82
663.757	72
665.302	80
666.847	80
668.392	80
669.937	78
671.481	80
673.025	74
674.568	76
676.111	80
677.653	74
679.195	76
680.737	82
682.279	74
683.82	70
685.36	76
686.9	80
688.44	66
689.979	74
691.517	82
693.056	76
694.594	82
696.132	90
697.669	88
699.206	92
700.742	90
702.278	106
703.814	94
705.35	102
706.884	104
708.419	92
709.953	90
711.487	94
713.019	96
714.552	92
716.085	98
717.617	100
719.148	104
720.68	122
722.21	132
723.741	152
725.271	132
726.8	134
728.33	122
729.858	130
731.387	116
732.915	120
734.443	130
735.97	140
737.497	148
739.023	168
740.549	180
742.075	184
743.6	180
745.125	190
746.65	172
748.173	200
749.697	184
751.22	194
752.743	212
754.266	220
755.788	222
757.309	232
758.831	240
760.351	236
761.871	234
763.392	208
764.912	228
766.431	222
767.95	208
769.468	202
770.986	196
772.504	198
774.022	200
775.538	194
777.055	194
778.571	196
780.086	208
781.602	218
783.117	242
784.632	250
786.146	278
787.659	304
789.173	292
790.685	306
792.198	310
793.71	320
795.222	332
796.733	332
798.244	348
799.755	302
801.265	284
802.775	250
804.284	216
805.793	202
807.302	208
808.81	194
810.318	170
811.826	168
813.333	150
814.84	162
816.346	138
817.851	142
819.357	126
820.862	114
822.367	118
823.871	118
825.376	102
826.878	108
828.382	110
829.885	116
831.387	118
832.889	122
834.391	124
835.892	138
837.392	152
838.893	146
840.393	154
841.893	170
843.392	158
844.891	146
846.389	142
847.888	136
849.386	128
850.882	136
852.38	124
853.876	120
855.372	128
856.868	126
858.363	130
859.858	118
861.353	132
862.847	122
864.341	114
865.834	126
867.328	112
868.82	132
870.313	122
871.805	118
873.296	114
874.787	134
876.278	98
877.769	126
879.258	116
880.748	114
882.237	114
883.726	114
885.214	116
886.702	118
888.19	114
889.677	110
891.164	116
892.651	112
894.137	106
895.623	118
897.108	110
898.593	122
900.077	120
901.562	132
903.046	148
904.529	152
906.012	156
907.495	142
908.977	142
910.459	130
911.941	124
913.422	122
914.903	102
916.383	110
917.863	110
919.343	118
920.822	98
922.301	98
923.779	100
925.257	96
926.735	96
928.213	94
929.69	100
931.166	104
932.643	104
934.119	94
935.594	88
937.069	106
938.543	108
940.018	100
941.492	98
942.966	108
944.439	90
945.911	104
947.384	102
948.856	106
950.328	108
951.799	90
953.27	104
954.741	100
956.21	104
957.68	106
959.15	102
960.619	108
962.088	122
963.556	132
965.023	120
966.491	138
967.958	136
969.425	130
970.891	122
972.357	130
973.824	146
975.288	136
976.754	160
978.218	158
979.682	180
981.146	198
982.609	234
984.072	252
985.534	274
986.997	310
988.459	406
989.92	604
991.382	788
992.842	832
994.302	800
995.763	902
997.222	1266
998.681	1982
1000.14	2952
1001.6	3364
1003.06	2850
1004.52	1898
1005.97	1174
1007.43	682
1008.89	440
1010.34	326
1011.8	234
1013.25	202
1014.71	196
1016.16	174
1017.62	188
1019.07	204
1020.53	216
1021.98	260
1023.43	320
1024.89	404
1026.34	528
1027.79	622
1029.24	772
1030.69	874
1032.14	884
1033.59	804
1035.04	690
1036.49	542
1037.94	410
1039.39	314
1040.84	258
1042.29	234
1043.73	204
1045.18	204
1046.63	172
1048.08	164
1049.52	168
1050.97	160
1052.41	148
1053.86	154
1055.3	158
1056.75	162
1058.19	152
1059.64	144
1061.08	158
1062.52	160
1063.96	160
1065.41	160
1066.85	172
1068.29	172
1069.73	170
1071.17	176
1072.61	178
1074.05	162
1075.49	178
1076.93	172
1078.37	172
1079.81	168
1081.25	162
1082.68	154
1084.12	148
1085.56	160
1087	150
1088.43	174
1089.87	164
1091.3	166
1092.74	166
1094.17	170
1095.61	170
1097.04	172
1098.48	176
1099.91	164
1101.34	162
1102.78	156
1104.21	152
1105.64	140
1107.07	142
1108.5	146
1109.93	120
1111.36	120
1112.8	134
1114.22	124
1115.65	114
1117.08	126
1118.51	114
1119.94	114
1121.37	112
1122.8	110
1124.22	110
1125.65	98
1127.08	104
1128.5	102
1129.93	106
1131.35	110
1132.78	116
1134.2	94
1135.63	110
1137.05	120
1138.48	130
1139.9	128
1141.32	118
1142.75	140
1144.17	148
1145.59	166
1147.01	176
1148.43	188
1149.85	240
1151.27	284
1152.69	346
1154.11	410
1155.53	422
1156.95	378
1158.37	344
1159.79	278
1161.21	262
1162.62	206
1164.04	228
1165.46	200
1166.87	206
1168.29	212
1169.71	224
1171.12	226
1172.54	234
1173.95	274
1175.37	290
1176.78	360
1178.19	406
1179.61	476
1181.02	514
1182.43	504
1183.84	506
1185.26	464
1186.67	434
1188.08	448
1189.49	456
1190.9	478
1192.31	470
1193.72	492
1195.13	490
1196.54	498
1197.95	490
1199.36	492
1200.76	486
1202.17	470
1203.58	456
1204.99	412
1206.39	362
1207.8	354
1209.2	306
1210.61	280
1212.01	264
1213.42	224
1214.82	226
1216.23	224
1217.63	212
1219.03	210
1220.44	200
1221.84	222
1223.24	196
1224.64	208
1226.05	218
1227.45	188
1228.85	192
1230.25	180
1231.65	164
1233.05	170
1234.45	180
1235.85	168
1237.25	170
1238.64	174
1240.04	170
1241.44	176
1242.84	160
1244.23	172
1245.63	162
1247.03	172
1248.42	172
1249.82	162
1251.21	166
1252.61	164
1254	166
1255.4	170
1256.79	162
1258.19	162
1259.58	172
1260.97	156
1262.36	172
1263.76	168
1265.15	178
1266.54	166
1267.93	174
1269.32	172
1270.71	166
1272.1	148
1273.49	164
1274.88	174
1276.27	172
1277.66	166
1279.05	158
1280.43	182
1281.82	166
1283.21	178
1284.6	184
1285.98	178
1287.37	176
1288.75	182
1290.14	192
1291.53	192
1292.91	192
1294.29	194
1295.68	204
1297.06	192
1298.45	210
1299.83	210
1301.21	214
1302.59	218
1303.98	222
1305.36	220
1306.74	222
1308.12	216
1309.5	216
1310.88	242
1312.26	232
1313.64	238
1315.02	250
1316.4	250
1317.78	260
1319.16	258
1320.53	280
1321.91	270
1323.29	286
1324.67	292
1326.04	288
1327.42	296
1328.79	268
1330.17	300
1331.54	286
1332.92	316
1334.29	278
1335.67	276
1337.04	288
1338.42	278
1339.79	260
1341.16	274
1342.53	268
1343.91	274
1345.28	266
1346.65	264
1348.02	266
1349.39	256
1350.76	270
1352.13	260
1353.5	266
1354.87	258
1356.24	260
1357.61	276
1358.98	274
1360.34	276
1361.71	262
1363.08	256
1364.45	292
1365.81	274
1367.18	272
1368.54	274
1369.91	268
1371.28	286
1372.64	274
1374.01	268
1375.37	288
1376.73	276
1378.1	276
1379.46	272
1380.82	270
1382.19	264
1383.55	262
1384.91	262
1386.27	246
1387.63	242
1388.99	242
1390.35	246
1391.71	226
1393.07	232
1394.43	236
1395.79	240
1397.15	236
1398.51	236
1399.87	240
1401.23	246
1402.58	218
1403.94	238
1405.3	244
1406.65	236
1408.01	228
1409.37	230
1410.72	232
1412.08	226
1413.43	238
1414.79	230
1416.14	222
1417.49	216
1418.85	212
1420.2	222
1421.55	212
1422.91	230
1424.26	212
1425.61	214
1426.96	214
1428.31	208
1429.66	212
1431.01	228
1432.36	228
1433.71	240
1435.06	246
1436.41	246
1437.76	260
1439.11	270
1440.46	284
1441.81	308
1443.15	292
1444.5	298
1445.85	304
1447.19	306
1448.54	338
1449.89	348
1451.23	328
1452.58	332
1453.92	308
1455.27	302
1456.61	264
1457.95	260
1459.3	230
1460.64	230
1461.98	218
1463.33	214
1464.67	202
1466.01	208
1467.35	182
1468.69	184
1470.03	192
1471.37	186
1472.71	184
1474.05	184
1475.39	180
1476.73	172
1478.07	188
1479.41	170
1480.75	180
1482.09	180
1483.42	180
1484.76	188
1486.1	174
1487.43	178
1488.77	174
1490.11	178
1491.44	184
1492.78	194
1494.11	184
1495.45	176
1496.78	182
1498.12	174
1499.45	168
1500.78	162
1502.11	186
1503.45	166
1504.78	154
1506.11	158
1507.44	164
1508.77	170
1510.11	158
1511.44	162
1512.77	160
1514.1	182
1515.43	164
1516.76	160
1518.08	166
1519.41	150
1520.74	172
1522.07	174
1523.4	162
1524.72	172
1526.05	168
1527.38	164
1528.7	152
1530.03	160
1531.36	172
1532.68	166
1534.01	164
1535.33	166
1536.66	174
1537.98	166
1539.3	160
1540.63	156
1541.95	152
1543.27	158
1544.6	162
1545.92	160
1547.24	160
1548.56	150
1549.88	156
1551.2	158
1552.52	150
1553.84	162
1555.17	154
1556.48	158
1557.8	160
1559.12	162
1560.44	158
1561.76	168
1563.08	164
1564.4	176
1565.71	164
1567.03	168
1568.35	166
1569.66	182
1570.98	184
1572.29	190
1573.61	196
1574.93	202
1576.24	208
1577.55	244
1578.87	284
1580.18	342
1581.5	378
1582.81	424
1584.12	410
1585.43	334
1586.75	298
1588.06	276
1589.37	266
1590.68	262
1591.99	268
1593.3	274
1594.61	314
1595.92	362
1597.23	424
1598.54	506
1599.85	596
1601.16	690
1602.47	680
1603.78	640
1605.08	564
1606.39	454
1607.7	390
1609	334
1610.31	272
1611.62	254
1612.92	214
1614.23	224
1615.53	192
1616.84	186
1618.14	190
1619.45	170
1620.75	170
1622.06	174
1623.36	172
1624.66	160
1625.96	158
1627.27	154
1628.57	164
1629.87	158
1631.17	148
1632.47	148
1633.77	148
1635.07	160
1636.37	158
1637.67	156
1638.97	148
1640.27	152
1641.57	150
1642.87	150
1644.17	158
1645.47	174
1646.76	152
1648.06	138
1649.36	154
1650.66	142
1651.95	150
1653.25	142
1654.54	154
1655.84	132
1657.13	138
1658.43	124
1659.72	116
1661.02	136
1662.31	136
1663.6	138
1664.9	136
1666.19	130
1667.48	130
1668.78	122
1670.07	130
1671.36	126
1672.65	128
1673.94	132
1675.23	124
1676.52	134
1677.81	126
1679.1	124
1680.39	130
1681.68	130
1682.97	130
1684.26	122
1685.55	130
1686.83	128
1688.12	122
1689.41	122
1690.7	124
1691.98	118
1693.27	126
1694.55	120
1695.84	118
1697.13	116
1698.41	114
1699.69	116
1700.98	122
1702.26	118