File: Jesse_Dataset_v2/Pure Raman/Polystyrene/785nm/ps-ppo-6jan25-1,0000-map3_Y06_X03.txt
204.377	836
206.045	852
207.713	864
209.38	874
211.048	874
212.715	914
214.381	900
216.047	922
217.712	944
219.377	938
221.042	906
222.706	892
224.369	870
226.032	836
227.695	816
229.357	784
231.019	712
232.68	688
234.341	656
236.001	604
237.661	552
239.321	510
240.98	452
242.639	412
244.297	394
245.955	356
247.612	334
249.268	332
250.924	322
252.58	324
254.236	288
255.891	284
257.546	284
259.2	294
260.854	282
262.507	258
264.16	288
265.812	260
267.463	250
269.115	262
270.766	248
272.417	248
274.067	260
275.717	230
277.365	226
279.014	232
280.663	214
282.311	238
283.958	224
285.605	212
287.252	202
288.898	206
290.543	208
292.188	188
293.833	194
295.477	180
297.121	184
298.765	180
300.407	178
302.05	170
303.693	168
305.334	180
306.975	170
308.615	168
310.256	176
311.896	182
313.535	178
315.175	176
316.813	176
318.451	184
320.089	168
321.726	182
323.362	182
324.999	186
326.635	178
328.271	172
329.905	172
331.54	172
333.174	182
334.807	168
336.441	180
338.074	182
339.707	164
341.338	168
342.969	176
344.601	168
346.231	162
347.861	162
349.491	156
351.12	158
352.749	160
354.378	162
356.006	156
357.633	170
359.261	158
360.887	164
362.513	162
364.139	160
365.764	160
367.39	156
369.014	168
370.638	148
372.261	168
373.884	166
375.508	172
377.13	174
378.752	176
380.373	170
381.994	176
383.615	182
385.235	178
386.854	200
388.473	200
390.092	194
391.711	196
393.328	190
394.947	202
396.564	200
398.181	208
399.797	212
401.412	222
403.027	222
404.642	248
406.257	240
407.871	238
409.484	236
411.098	230
412.711	226
414.323	202
415.935	194
417.547	198
419.158	172
420.768	176
422.378	170
423.988	172
425.597	162
427.206	162
428.814	168
430.422	154
432.03	162
433.637	140
435.243	156
436.85	142
438.456	156
440.062	154
441.666	138
443.271	154
444.876	132
446.479	138
448.082	136
449.685	130
451.287	140
452.89	122
454.492	128
456.092	120
457.693	108
459.293	124
460.893	124
462.492	120
464.092	114
465.691	122
467.288	124
468.887	136
470.483	114
472.081	120
473.677	116
475.273	122
476.869	110
478.463	116
480.059	114
481.653	118
483.247	108
484.84	108
486.433	98
488.026	110
489.618	112
491.21	118
492.801	112
494.392	110
495.983	114
497.573	122
499.162	120
500.752	116
502.341	120
503.929	128
505.517	120
507.105	112
508.692	118
510.279	116
511.865	116
513.45	118
515.037	124
516.621	126
518.206	114
519.79	122
521.374	106
522.957	122
524.54	138
526.123	128
527.705	134
529.287	128
530.868	138
532.448	152
534.029	152
535.609	154
537.188	160
538.768	158
540.346	160
541.925	152
543.502	166
545.08	162
546.657	156
548.234	148
549.81	160
551.386	150
552.961	162
554.536	138
556.11	152
557.684	148
559.258	154
560.832	144
562.405	148
563.977	144
565.55	142
567.12	142
568.692	152
570.263	156
571.833	152
573.403	146
574.973	154
576.542	146
578.111	144
579.679	128
581.247	120
582.815	128
584.382	116
585.948	128
587.514	124
589.081	118
590.645	116
592.211	122
593.775	118
595.339	118
596.904	130
598.466	114
600.03	126
601.592	122
603.154	132
604.715	140
606.277	148
607.838	160
609.398	164
610.958	164
612.518	158
614.077	188
615.636	236
617.194	332
618.753	514
620.31	742
621.867	714
623.424	466
624.98	304
626.537	202
628.092	182
629.647	144
631.202	140
632.756	140
634.31	114
635.864	128
637.417	112
638.969	108
640.521	100
642.074	96
643.625	90
645.176	90
646.726	94
648.276	94
649.827	84
651.376	82
652.925	92
654.473	78
656.021	88
657.569	80
659.117	82
660.664	84
662.21	88
663.757	82
665.302	90
666.847	84
668.392	86
669.937	90
671.481	80
673.025	88
674.568	82
676.111	88
677.653	90
679.195	80
680.737	86
682.279	78
683.82	92
685.36	80
686.9	78
688.44	76
689.979	80
691.517	84
693.056	92
694.594	82
696.132	88
697.669	94
699.206	98
700.742	104
702.278	108
703.814	102
705.35	104
706.884	106
708.419	86
709.953	98
711.487	98
713.019	102
714.552	98
716.085	102
717.617	100
719.148	114
720.68	120
722.21	130
723.741	156
725.271	162
726.8	152
728.33	136
729.858	128
731.387	122
732.915	130
734.443	142
735.97	158
737.497	168
739.023	176
740.549	188
742.075	190
743.6	194
745.125	192
746.65	200
748.173	190
749.697	204
751.22	210
752.743	210
754.266	222
755.788	244
757.309	230
758.831	242
760.351	236
761.871	236
763.392	238
764.912	218
766.431	214
767.95	208
769.468	200
770.986	216
772.504	214
774.022	204
775.538	190
777.055	200
778.571	210
780.086	220
781.602	224
783.117	240
784.632	254
786.146	286
787.659	306
789.173	296
790.685	338
792.198	332
793.71	326
795.222	348
796.733	350
798.244	338
799.755	322
801.265	286
802.775	242
804.284	238
805.793	214
807.302	200
808.81	192
810.318	180
811.826	164
813.333	170
814.84	152
816.346	144
817.851	140
819.357	128
820.862	122
822.367	112
823.871	124
825.376	118
826.878	112
828.382	114
829.885	118
831.387	116
832.889	132
834.391	128
835.892	152
837.392	144
838.893	150
840.393	166
841.893	170
843.392	150
844.891	162
846.389	150
847.888	146
849.386	134
850.882	128
852.38	140
853.876	140
855.372	128
856.868	130
858.363	132
859.858	124
861.353	124
862.847	132
864.341	120
865.834	128
867.328	130
868.82	124
870.313	118
871.805	118
873.296	130
874.787	134
876.278	126
877.769	126
879.258	120
880.748	124
882.237	116
883.726	104
885.214	106
886.702	118
888.19	118
889.677	124
891.164	110
892.651	118
894.137	132
895.623	126
897.108	134
898.593	134
900.077	128
901.562	140
903.046	142
904.529	154
906.012	140
907.495	154
908.977	150
910.459	136
911.941	132
913.422	122
914.903	118
916.383	116
917.863	104
919.343	106
920.822	102
922.301	100
923.779	114
925.257	90
926.735	110
928.213	90
929.69	98
931.166	100
932.643	96
934.119	108
935.594	88
937.069	100
938.543	92
940.018	110
941.492	102
942.966	98
944.439	106
945.911	98
947.384	106
948.856	96
950.328	102
951.799	106
953.27	100
954.741	106
956.21	102
957.68	108
959.15	110
960.619	118
962.088	122
963.556	128
965.023	112
966.491	132
967.958	142
969.425	128
970.891	128
972.357	120
973.824	138
975.288	140
976.754	154
978.218	182
979.682	184
981.146	208
982.609	208
984.072	262
985.534	276
986.997	314
988.459	414
989.92	570
991.382	772
992.842	846
994.302	776
995.763	864
997.222	1252
998.681	1966
1000.14	2950
1001.6	3374
1003.06	2900
1004.52	1976
1005.97	1152
1007.43	704
1008.89	436
1010.34	322
1011.8	250
1013.25	204
1014.71	190
1016.16	184
1017.62	182
1019.07	200
1020.53	214
1021.98	254
1023.43	300
1024.89	374
1026.34	512
1027.79	652
1029.24	802
1030.69	870
1032.14	882
1033.59	824
1035.04	694
1036.49	538
1037.94	408
1039.39	318
1040.84	278
1042.29	224
1043.73	212
1045.18	198
1046.63	168
1048.08	170
1049.52	164
1050.97	146
1052.41	146
1053.86	156
1055.3	156
1056.75	148
1058.19	150
1059.64	152
1061.08	160
1062.52	164
1063.96	168
1065.41	172
1066.85	170
1068.29	172
1069.73	160
1071.17	172
1072.61	170
1074.05	178
1075.49	168
1076.93	160
1078.37	180
1079.81	170
1081.25	156
1082.68	170
1084.12	174
1085.56	170
1087	156
1088.43	156
1089.87	154
1091.3	164
1092.74	178
1094.17	168
1095.61	166
1097.04	160
1098.48	170
1099.91	168
1101.34	172
1102.78	158
1104.21	170
1105.64	144
1107.07	150
1108.5	128
1109.93	142
1111.36	134
1112.8	128
1114.22	128
1115.65	126
1117.08	128
1118.51	122
1119.94	122
1121.37	112
1122.8	106
1124.22	106
1125.65	116
1127.08	106
1128.5	112
1129.93	104
1131.35	102
1132.78	116
1134.2	112
1135.63	116
1137.05	116
1138.48	120
1139.9	118
1141.32	130
1142.75	146
1144.17	152
1145.59	162
1147.01	162
1148.43	206
1149.85	232
1151.27	276
1152.69	362
1154.11	390
1155.53	422
1156.95	394
1158.37	322
1159.79	286
1161.21	240
1162.62	220
1164.04	208
1165.46	202
1166.87	210
1168.29	214
1169.71	212
1171.12	212
1172.54	236
1173.95	252
1175.37	296
1176.78	350
1178.19	426
1179.61	478
1181.02	530
1182.43	554
1183.84	506
1185.26	472
1186.67	438
1188.08	440
1189.49	440
1190.9	446
1192.31	474
1193.72	504
1195.13	510
1196.54	504
1197.95	520
1199.36	488
1200.76	480
1202.17	454
1203.58	470
1204.99	414
1206.39	386
1207.8	350
1209.2	326
1210.61	274
1212.01	282
1213.42	252
1214.82	230
1216.23	222
1217.63	212
1219.03	216
1220.44	212
1221.84	198
1223.24	212
1224.64	202
1226.05	204
1227.45	184
1228.85	184
1230.25	182
1231.65	180
1233.05	176
1234.45	178
1235.85	172
1237.25	176
1238.64	170
1240.04	174
1241.44	166
1242.84	176
1244.23	162
1245.63	182
1247.03	176
1248.42	176
1249.82	162
1251.21	178
1252.61	164
1254	176
1255.4	166
1256.79	160
1258.19	168
1259.58	176
1260.97	168
1262.36	162
1263.76	168
1265.15	174
1266.54	168
1267.93	180
1269.32	176
1270.71	162
1272.1	160
1273.49	168
1274.88	162
1276.27	168
1277.66	178
1279.05	168
1280.43	166
1281.82	172
1283.21	168
1284.6	172
1285.98	178
1287.37	184
1288.75	176
1290.14	180
1291.53	188
1292.91	172
1294.29	200
1295.68	208
1297.06	180
1298.45	206
1299.83	206
1301.21	210
1302.59	216
1303.98	220
1305.36	204
1306.74	216
1308.12	216
1309.5	212
1310.88	228
1312.26	224
1313.64	230
1315.02	230
1316.4	234
1317.78	264
1319.16	266
1320.53	272
1321.91	282
1323.29	268
1324.67	288
1326.04	294
1327.42	294
1328.79	300
1330.17	286
1331.54	280
1332.92	286
1334.29	300
1335.67	288
1337.04	298
1338.42	284
1339.79	274
1341.16	264
1342.53	252
1343.91	262
1345.28	244
1346.65	262
1348.02	258
1349.39	248
1350.76	260
1352.13	280
1353.5	286
1354.87	266
1356.24	250
1357.61	258
1358.98	266
1360.34	276
1361.71	264
1363.08	276
1364.45	274
1365.81	274
1367.18	264
1368.54	272
1369.91	284
1371.28	274
1372.64	272
1374.01	268
1375.37	276
1376.73	270
1378.1	264
1379.46	264
1380.82	242
1382.19	238
1383.55	254
1384.91	242
1386.27	246
1387.63	228
1388.99	242
1390.35	236
1391.71	232
1393.07	234
1394.43	230
1395.79	216
1397.15	234
1398.51	240
1399.87	236
1401.23	214
1402.58	238
1403.94	226
1405.3	230
1406.65	226
1408.01	224
1409.37	212
1410.72	236
1412.08	222
1413.43	224
1414.79	228
1416.14	206
1417.49	236
1418.85	224
1420.2	214
1421.55	220
1422.91	222
1424.26	204
1425.61	212
1426.96	220
1428.31	210
1429.66	224
1431.01	218
1432.36	234
1433.71	246
1435.06	250
1436.41	266
1437.76	254
1439.11	270
1440.46	286
1441.81	290
1443.15	304
1444.5	322
1445.85	334
1447.19	330
1448.54	344
1449.89	326
1451.23	332
1452.58	308
1453.92	308
1455.27	282
1456.61	270
1457.95	248
1459.3	230
1460.64	220
1461.98	202
1463.33	200
1464.67	196
1466.01	208
1467.35	198
1468.69	194
1470.03	186
1471.37	182
1472.71	180
1474.05	188
1475.39	176
1476.73	176
1478.07	188
1479.41	180
1480.75	180
1482.09	180
1483.42	174
1484.76	174
1486.1	188
1487.43	182
1488.77	180
1490.11	186
1491.44	170
1492.78	198
1494.11	174
1495.45	172
1496.78	178
1498.12	180
1499.45	174
1500.78	178
1502.11	172
1503.45	170
1504.78	166
1506.11	160
1507.44	172
1508.77	156
1510.11	168
1511.44	174
1512.77	162
1514.1	160
1515.43	164
1516.76	162
1518.08	164
1519.41	162
1520.74	168
1522.07	168
1523.4	168
1524.72	170
1526.05	142
1527.38	152
1528.7	158
1530.03	166
1531.36	164
1532.68	154
1534.01	154
1535.33	152
1536.66	166
1537.98	164
1539.3	154
1540.63	164
1541.95	146
1543.27	150
1544.6	162
1545.92	164
1547.24	146
1548.56	162
1549.88	172
1551.2	160
1552.52	158
1553.84	162
1555.17	172
1556.48	166
1557.8	148
1559.12	168
1560.44	144
1561.76	164
1563.08	160
1564.4	164
1565.71	160
1567.03	180
1568.35	174
1569.66	170
1570.98	178
1572.29	186
1573.61	192
1574.93	200
1576.24	218
1577.55	220
1578.87	270
1580.18	308
1581.5	388
1582.81	412
1584.12	394
1585.43	348
1586.75	294
1588.06	258
1589.37	236
1590.68	250
1591.99	266
1593.3	286
1594.61	302
1595.92	360
1597.23	424
1598.54	510
1599.85	634
1601.16	678
1602.47	690
1603.78	622
1605.08	566
1606.39	442
1607.7	380
1609	314
1610.31	272
1611.62	246
1612.92	212
1614.23	206
1615.53	200
1616.84	186
1618.14	200
1619.45	182
1620.75	164
1622.06	172
1623.36	162
1624.66	160
1625.96	160
1627.27	158
1628.57	154
1629.87	158
1631.17	146
1632.47	150
1633.77	148
1635.07	140
1636.37	154
1637.67	144
1638.97	152
1640.27	146
1641.57	140
1642.87	154
1644.17	154
1645.47	150
1646.76	154
1648.06	146
1649.36	156
1650.66	152
1651.95	150
1653.25	140
1654.54	138
1655.84	144
1657.13	138
1658.43	140
1659.72	144
1661.02	130
1662.31	136
1663.6	140
1664.9	134
1666.19	126
1667.48	132
1668.78	130
1670.07	124
1671.36	136
1672.65	124
1673.94	132
1675.23	130
1676.52	128
1677.81	128
1679.1	126
1680.39	128
1681.68	134
1682.97	122
1684.26	120
1685.55	126
1686.83	120
1688.12	116
1689.41	114
1690.7	116
1691.98	108
1693.27	118
1694.55	120
1695.84	130
1697.13	118
1698.41	116
1699.69	112
1700.98	120
1702.26	118