File: Jesse_Dataset_v2/Pure Raman/Polystyrene/785nm/ps-ppo-6jan25-1,0000-map3_Y09_X01.txt
204.377	852
206.045	838
207.713	864
209.38	868
211.048	894
212.715	908
214.381	914
216.047	936
217.712	912
219.377	932
221.042	912
222.706	890
224.369	876
226.032	870
227.695	814
229.357	772
231.019	712
232.68	654
234.341	616
236.001	572
237.661	552
239.321	508
240.98	454
242.639	424
244.297	366
245.955	350
247.612	354
249.268	316
250.924	326
252.58	276
254.236	282
255.891	284
257.546	290
259.2	274
260.854	266
262.507	246
264.16	246
265.812	262
267.463	244
269.115	262
270.766	260
272.417	260
274.067	250
275.717	234
277.365	234
279.014	230
280.663	230
282.311	228
283.958	208
285.605	202
287.252	204
288.898	192
290.543	204
292.188	192
293.833	188
295.477	176
297.121	172
298.765	174
300.407	174
302.05	162
303.693	178
305.334	166
306.975	178
308.615	174
310.256	184
311.896	166
313.535	178
315.175	188
316.813	172
318.451	166
320.089	170
321.726	168
323.362	178
324.999	172
326.635	172
328.271	180
329.905	168
331.54	176
333.174	174
334.807	168
336.441	168
338.074	170
339.707	158
341.338	160
342.969	170
344.601	152
346.231	154
347.861	154
349.491	148
351.12	158
352.749	156
354.378	152
356.006	152
357.633	144
359.261	146
360.887	158
362.513	158
364.139	142
365.764	152
367.39	156
369.014	156
370.638	162
372.261	152
373.884	160
375.508	176
377.13	164
378.752	168
380.373	158
381.994	180
383.615	172
385.235	172
386.854	176
388.473	184
390.092	172
391.711	198
393.328	198
394.947	194
396.564	202
398.181	190
399.797	212
401.412	220
403.027	224
404.642	228
406.257	228
407.871	264
409.484	228
411.098	216
412.711	208
414.323	204
415.935	188
417.547	184
419.158	178
420.768	184
422.378	164
423.988	166
425.597	162
427.206	148
428.814	144
430.422	158
432.03	152
433.637	154
435.243	144
436.85	142
438.456	134
440.062	146
441.666	144
443.271	140
444.876	122
446.479	126
448.082	126
449.685	128
451.287	116
452.89	110
454.492	112
456.092	120
457.693	116
459.293	114
460.893	118
462.492	110
464.092	108
465.691	102
467.288	116
468.887	118
470.483	106
472.081	110
473.677	106
475.273	110
476.869	100
478.463	100
480.059	102
481.653	104
483.247	96
484.84	108
486.433	102
488.026	110
489.618	98
491.21	96
492.801	112
494.392	106
495.983	104
497.573	100
499.162	98
500.752	116
502.341	110
503.929	116
505.517	104
507.105	104
508.692	112
510.279	100
511.865	108
513.45	110
515.037	114
516.621	110
518.206	118
519.79	122
521.374	114
522.957	120
524.54	114
526.123	116
527.705	124
529.287	124
530.868	134
532.448	134
534.029	138
535.609	144
537.188	136
538.768	146
540.346	156
541.925	150
543.502	150
545.08	144
546.657	152
548.234	144
549.81	140
551.386	136
552.961	140
554.536	130
556.11	140
557.684	146
559.258	128
560.832	140
562.405	132
563.977	148
565.55	134
567.12	138
568.692	144
570.263	134
571.833	148
573.403	150
574.973	140
576.542	130
578.111	124
579.679	134
581.247	126
582.815	104
584.382	124
585.948	108
587.514	92
589.081	122
590.645	112
592.211	110
593.775	110
595.339	98
596.904	118
598.466	112
600.03	126
601.592	120
603.154	118
604.715	126
606.277	146
607.838	156
609.398	146
610.958	142
612.518	160
614.077	194
615.636	228
617.194	324
618.753	528
620.31	736
621.867	692
623.424	462
624.98	274
626.537	218
628.092	170
629.647	142
631.202	140
632.756	126
634.31	116
635.864	112
637.417	100
638.969	102
640.521	100
642.074	92
643.625	90
645.176	86
646.726	86
648.276	86
649.827	82
651.376	76
652.925	78
654.473	80
656.021	78
657.569	78
659.117	76
660.664	78
662.21	84
663.757	82
665.302	72
666.847	84
668.392	82
669.937	70
671.481	80
673.025	80
674.568	80
676.111	80
677.653	74
679.195	72
680.737	80
682.279	72
683.82	78
685.36	80
686.9	82
688.44	74
689.979	78
691.517	76
693.056	82
694.594	74
696.132	86
697.669	86
699.206	94
700.742	92
702.278	98
703.814	116
705.35	102
706.884	94
708.419	102
709.953	98
711.487	94
713.019	100
714.552	86
716.085	96
717.617	106
719.148	106
720.68	124
722.21	132
723.741	148
725.271	158
726.8	144
728.33	132
729.858	126
731.387	124
732.915	118
734.443	138
735.97	152
737.497	160
739.023	180
740.549	184
742.075	188
743.6	192
745.125	186
746.65	188
748.173	184
749.697	192
751.22	200
752.743	210
754.266	208
755.788	218
757.309	220
758.831	242
760.351	242
761.871	226
763.392	224
764.912	226
766.431	230
767.95	218
769.468	204
770.986	204
772.504	196
774.022	194
775.538	194
777.055	206
778.571	206
780.086	226
781.602	244
783.117	238
784.632	262
786.146	272
787.659	288
789.173	316
790.685	320
792.198	338
793.71	358
795.222	326
796.733	338
798.244	320
799.755	304
801.265	280
802.775	252
804.284	246
805.793	204
807.302	188
808.81	186
810.318	174
811.826	176
813.333	174
814.84	156
816.346	148
817.851	128
819.357	130
820.862	128
822.367	116
823.871	108
825.376	108
826.878	102
828.382	106
829.885	120
831.387	118
832.889	124
834.391	124
835.892	138
837.392	134
838.893	148
840.393	158
841.893	152
843.392	156
844.891	160
846.389	144
847.888	144
849.386	152
850.882	130
852.38	134
853.876	120
855.372	126
856.868	120
858.363	130
859.858	116
861.353	120
862.847	128
864.341	136
865.834	122
867.328	134
868.82	124
870.313	126
871.805	126
873.296	126
874.787	116
876.278	122
877.769	120
879.258	122
880.748	124
882.237	112
883.726	102
885.214	116
886.702	116
888.19	112
889.677	106
891.164	112
892.651	124
894.137	112
895.623	110
897.108	114
898.593	120
900.077	136
901.562	140
903.046	142
904.529	146
906.012	152
907.495	148
908.977	146
910.459	136
911.941	136
913.422	124
914.903	114
916.383	120
917.863	106
919.343	110
920.822	98
922.301	102
923.779	96
925.257	94
926.735	100
928.213	100
929.69	96
931.166	98
932.643	100
934.119	96
935.594	102
937.069	104
938.543	102
940.018	98
941.492	104
942.966	102
944.439	96
945.911	92
947.384	100
948.856	94
950.328	100
951.799	108
953.27	104
954.741	110
956.21	108
957.68	100
959.15	102
960.619	114
962.088	118
963.556	118
965.023	118
966.491	136
967.958	130
969.425	128
970.891	136
972.357	130
973.824	136
975.288	136
976.754	148
978.218	168
979.682	186
981.146	202
982.609	218
984.072	244
985.534	272
986.997	334
988.459	424
989.92	592
991.382	762
992.842	838
994.302	748
995.763	834
997.222	1230
998.681	1946
1000.14	2926
1001.6	3322
1003.06	2852
1004.52	1922
1005.97	1192
1007.43	686
1008.89	446
1010.34	306
1011.8	264
1013.25	216
1014.71	184
1016.16	184
1017.62	196
1019.07	206
1020.53	232
1021.98	272
1023.43	300
1024.89	378
1026.34	500
1027.79	640
1029.24	758
1030.69	880
1032.14	870
1033.59	802
1035.04	668
1036.49	530
1037.94	412
1039.39	316
1040.84	256
1042.29	238
1043.73	198
1045.18	188
1046.63	176
1048.08	170
1049.52	156
1050.97	170
1052.41	164
1053.86	160
1055.3	138
1056.75	154
1058.19	156
1059.64	162
1061.08	154
1062.52	172
1063.96	160
1065.41	184
1066.85	176
1068.29	168
1069.73	170
1071.17	172
1072.61	178
1074.05	172
1075.49	178
1076.93	170
1078.37	162
1079.81	170
1081.25	160
1082.68	168
1084.12	174
1085.56	162
1087	156
1088.43	154
1089.87	160
1091.3	160
1092.74	166
1094.17	154
1095.61	174
1097.04	166
1098.48	168
1099.91	174
1101.34	170
1102.78	174
1104.21	146
1105.64	148
1107.07	156
1108.5	136
1109.93	136
1111.36	140
1112.8	124
1114.22	120
1115.65	124
1117.08	132
1118.51	114
1119.94	118
1121.37	106
1122.8	108
1124.22	110
1125.65	108
1127.08	110
1128.5	102
1129.93	108
1131.35	110
1132.78	112
1134.2	116
1135.63	120
1137.05	116
1138.48	122
1139.9	124
1141.32	120
1142.75	142
1144.17	146
1145.59	164
1147.01	172
1148.43	194
1149.85	238
1151.27	286
1152.69	366
1154.11	412
1155.53	408
1156.95	388
1158.37	344
1159.79	292
1161.21	258
1162.62	214
1164.04	224
1165.46	198
1166.87	204
1168.29	210
1169.71	214
1171.12	226
1172.54	252
1173.95	274
1175.37	300
1176.78	354
1178.19	422
1179.61	472
1181.02	534
1182.43	522
1183.84	492
1185.26	468
1186.67	426
1188.08	416
1189.49	418
1190.9	470
1192.31	488
1193.72	476
1195.13	506
1196.54	502
1197.95	490
1199.36	486
1200.76	458
1202.17	472
1203.58	420
1204.99	400
1206.39	376
1207.8	342
1209.2	308
1210.61	300
1212.01	276
1213.42	244
1214.82	230
1216.23	224
1217.63	206
1219.03	216
1220.44	206
1221.84	210
1223.24	196
1224.64	188
1226.05	190
1227.45	200
1228.85	168
1230.25	180
1231.65	178
1233.05	182
1234.45	166
1235.85	176
1237.25	164
1238.64	166
1240.04	172
1241.44	158
1242.84	174
1244.23	188
1245.63	176
1247.03	174
1248.42	182
1249.82	164
1251.21	170
1252.61	160
1254	166
1255.4	170
1256.79	170
1258.19	160
1259.58	160
1260.97	162
1262.36	166
1263.76	174
1265.15	154
1266.54	164
1267.93	174
1269.32	170
1270.71	172
1272.1	170
1273.49	164
1274.88	170
1276.27	166
1277.66	176
1279.05	164
1280.43	174
1281.82	168
1283.21	162
1284.6	178
1285.98	184
1287.37	172
1288.75	192
1290.14	176
1291.53	188
1292.91	188
1294.29	196
1295.68	188
1297.06	198
1298.45	202
1299.83	206
1301.21	212
1302.59	216
1303.98	222
1305.36	226
1306.74	222
1308.12	230
1309.5	220
1310.88	236
1312.26	210
1313.64	228
1315.02	246
1316.4	242
1317.78	252
1319.16	258
1320.53	256
1321.91	286
1323.29	288
1324.67	294
1326.04	288
1327.42	282
1328.79	276
1330.17	302
1331.54	296
1332.92	320
1334.29	286
1335.67	302
1337.04	286
1338.42	282
1339.79	264
1341.16	280
1342.53	268
1343.91	268
1345.28	246
1346.65	266
1348.02	248
1349.39	264
1350.76	250
1352.13	262
1353.5	268
1354.87	272
1356.24	262
1357.61	248
1358.98	246
1360.34	268
1361.71	256
1363.08	270
1364.45	280
1365.81	284
1367.18	268
1368.54	270
1369.91	278
1371.28	280
1372.64	276
1374.01	296
1375.37	280
1376.73	274
1378.1	280
1379.46	276
1380.82	274
1382.19	248
1383.55	270
1384.91	238
1386.27	216
1387.63	250
1388.99	246
1390.35	226
1391.71	246
1393.07	230
1394.43	230
1395.79	232
1397.15	218
1398.51	230
1399.87	230
1401.23	212
1402.58	220
1403.94	238
1405.3	238
1406.65	236
1408.01	220
1409.37	228
1410.72	224
1412.08	216
1413.43	224
1414.79	214
1416.14	212
1417.49	212
1418.85	226
1420.2	206
1421.55	214
1422.91	202
1424.26	206
1425.61	228
1426.96	222
1428.31	240
1429.66	224
1431.01	228
1432.36	234
1433.71	246
1435.06	238
1436.41	260
1437.76	260
1439.11	278
1440.46	270
1441.81	296
1443.15	298
1444.5	330
1445.85	326
1447.19	344
1448.54	314
1449.89	322
1451.23	332
1452.58	308
1453.92	314
1455.27	286
1456.61	254
1457.95	238
1459.3	226
1460.64	216
1461.98	208
1463.33	206
1464.67	200
1466.01	186
1467.35	202
1468.69	198
1470.03	184
1471.37	160
1472.71	180
1474.05	184
1475.39	176
1476.73	180
1478.07	182
1479.41	188
1480.75	172
1482.09	180
1483.42	178
1484.76	186
1486.1	176
1487.43	180
1488.77	180
1490.11	176
1491.44	194
1492.78	186
1494.11	180
1495.45	184
1496.78	166
1498.12	168
1499.45	172
1500.78	168
1502.11	170
1503.45	164
1504.78	168
1506.11	164
1507.44	168
1508.77	164
1510.11	162
1511.44	162
1512.77	166
1514.1	156
1515.43	176
1516.76	162
1518.08	164
1519.41	162
1520.74	154
1522.07	166
1523.4	158
1524.72	164
1526.05	164
1527.38	148
1528.7	166
1530.03	162
1531.36	162
1532.68	162
1534.01	156
1535.33	158
1536.66	154
1537.98	166
1539.3	160
1540.63	166
1541.95	158
1543.27	158
1544.6	148
1545.92	160
1547.24	162
1548.56	144
1549.88	168
1551.2	160
1552.52	154
1553.84	166
1555.17	164
1556.48	156
1557.8	162
1559.12	150
1560.44	166
1561.76	160
1563.08	170
1564.4	158
1565.71	178
1567.03	166
1568.35	160
1569.66	180
1570.98	180
1572.29	192
1573.61	196
1574.93	206
1576.24	222
1577.55	238
1578.87	276
1580.18	318
1581.5	390
1582.81	412
1584.12	406
1585.43	342
1586.75	300
1588.06	268
1589.37	244
1590.68	238
1591.99	252
1593.3	286
1594.61	292
1595.92	330
1597.23	428
1598.54	524
1599.85	646
1601.16	684
1602.47	702
1603.78	634
1605.08	544
1606.39	456
1607.7	400
1609	316
1610.31	266
1611.62	246
1612.92	228
1614.23	226
1615.53	186
1616.84	202
1618.14	172
1619.45	174
1620.75	170
1622.06	166
1623.36	164
1624.66	156
1625.96	164
1627.27	164
1628.57	156
1629.87	150
1631.17	152
1632.47	162
1633.77	152
1635.07	144
1636.37	148
1637.67	146
1638.97	148
1640.27	148
1641.57	148
1642.87	152
1644.17	140
1645.47	152
1646.76	152
1648.06	152
1649.36	156
1650.66	136
1651.95	128
1653.25	140
1654.54	134
1655.84	132
1657.13	122
1658.43	132
1659.72	130
1661.02	138
1662.31	142
1663.6	126
1664.9	130
1666.19	128
1667.48	124
1668.78	134
1670.07	124
1671.36	126
1672.65	138
1673.94	120
1675.23	130
1676.52	134
1677.81	126
1679.1	112
1680.39	124
1681.68	124
1682.97	118
1684.26	116
1685.55	132
1686.83	124
1688.12	118
1689.41	122
1690.7	122
1691.98	126
1693.27	120
1694.55	118
1695.84	120
1697.13	126
1698.41	116
1699.69	126
1700.98	106
1702.26	120