File: Jesse_Dataset_v2/Pure Raman/Polystyrene/785nm/ps-ppo-6jan25-1,0000-map3_Y05_X08.txt
204.377	828
206.045	858
207.713	850
209.38	880
211.048	900
212.715	872
214.381	912
216.047	938
217.712	958
219.377	894
221.042	902
222.706	874
224.369	882
226.032	874
227.695	796
229.357	802
231.019	738
232.68	680
234.341	638
236.001	604
237.661	538
239.321	490
240.98	470
242.639	428
244.297	390
245.955	358
247.612	362
249.268	314
250.924	318
252.58	290
254.236	306
255.891	290
257.546	290
259.2	276
260.854	280
262.507	268
264.16	290
265.812	248
267.463	264
269.115	262
270.766	246
272.417	244
274.067	256
275.717	238
277.365	248
279.014	236
280.663	228
282.311	218
283.958	216
285.605	212
287.252	200
288.898	204
290.543	184
292.188	190
293.833	164
295.477	180
297.121	170
298.765	176
300.407	170
302.05	170
303.693	170
305.334	180
306.975	174
308.615	176
310.256	182
311.896	180
313.535	170
315.175	184
316.813	176
318.451	180
320.089	174
321.726	172
323.362	172
324.999	178
326.635	182
328.271	176
329.905	176
331.54	180
333.174	164
334.807	170
336.441	172
338.074	184
339.707	172
341.338	164
342.969	168
344.601	160
346.231	164
347.861	168
349.491	150
351.12	154
352.749	160
354.378	156
356.006	156
357.633	164
359.261	150
360.887	154
362.513	154
364.139	142
365.764	164
367.39	160
369.014	160
370.638	152
372.261	148
373.884	160
375.508	164
377.13	164
378.752	174
380.373	164
381.994	188
383.615	180
385.235	174
386.854	182
388.473	188
390.092	174
391.711	212
393.328	192
394.947	202
396.564	202
398.181	202
399.797	210
401.412	204
403.027	220
404.642	228
406.257	246
407.871	212
409.484	222
411.098	236
412.711	200
414.323	198
415.935	194
417.547	184
419.158	174
420.768	172
422.378	164
423.988	168
425.597	168
427.206	154
428.814	156
430.422	156
432.03	144
433.637	142
435.243	156
436.85	144
438.456	152
440.062	146
441.666	138
443.271	138
444.876	138
446.479	130
448.082	140
449.685	130
451.287	128
452.89	118
454.492	116
456.092	118
457.693	112
459.293	114
460.893	110
462.492	112
464.092	118
465.691	116
467.288	116
468.887	104
470.483	108
472.081	112
473.677	106
475.273	104
476.869	116
478.463	100
480.059	112
481.653	104
483.247	106
484.84	102
486.433	98
488.026	100
489.618	116
491.21	108
492.801	104
494.392	100
495.983	112
497.573	106
499.162	110
500.752	116
502.341	108
503.929	116
505.517	114
507.105	120
508.692	116
510.279	110
511.865	110
513.45	114
515.037	106
516.621	116
518.206	116
519.79	124
521.374	120
522.957	120
524.54	120
526.123	124
527.705	128
529.287	124
530.868	140
532.448	124
534.029	132
535.609	156
537.188	156
538.768	162
540.346	150
541.925	150
543.502	152
545.08	144
546.657	134
548.234	146
549.81	136
551.386	150
552.961	148
554.536	142
556.11	154
557.684	140
559.258	144
560.832	146
562.405	134
563.977	148
565.55	132
567.12	138
568.692	138
570.263	148
571.833	152
573.403	148
574.973	138
576.542	136
578.111	138
579.679	118
581.247	124
582.815	114
584.382	122
585.948	120
587.514	114
589.081	120
590.645	108
592.211	112
593.775	110
595.339	108
596.904	120
598.466	118
600.03	128
601.592	128
603.154	114
604.715	140
606.277	156
607.838	150
609.398	148
610.958	144
612.518	170
614.077	198
615.636	214
617.194	344
618.753	528
620.31	728
621.867	686
623.424	458
624.98	288
626.537	210
628.092	178
629.647	156
631.202	130
632.756	118
634.31	114
635.864	112
637.417	98
638.969	102
640.521	104
642.074	96
643.625	90
645.176	92
646.726	88
648.276	80
649.827	80
651.376	86
652.925	78
654.473	88
656.021	80
657.569	82
659.117	78
660.664	82
662.21	78
663.757	84
665.302	76
666.847	84
668.392	80
669.937	80
671.481	74
673.025	70
674.568	80
676.111	78
677.653	88
679.195	80
680.737	78
682.279	92
683.82	82
685.36	78
686.9	80
688.44	88
689.979	84
691.517	84
693.056	80
694.594	82
696.132	88
697.669	90
699.206	102
700.742	98
702.278	104
703.814	112
705.35	108
706.884	104
708.419	98
709.953	94
711.487	112
713.019	96
714.552	104
716.085	98
717.617	108
719.148	116
720.68	130
722.21	144
723.741	138
725.271	158
726.8	152
728.33	132
729.858	126
731.387	120
732.915	116
734.443	130
735.97	156
737.497	170
739.023	176
740.549	180
742.075	198
743.6	194
745.125	192
746.65	190
748.173	212
749.697	206
751.22	210
752.743	222
754.266	224
755.788	206
757.309	236
758.831	240
760.351	242
761.871	252
763.392	222
764.912	224
766.431	212
767.95	216
769.468	200
770.986	204
772.504	206
774.022	212
775.538	204
777.055	214
778.571	196
780.086	212
781.602	236
783.117	246
784.632	256
786.146	274
787.659	308
789.173	306
790.685	328
792.198	332
793.71	334
795.222	362
796.733	356
798.244	346
799.755	306
801.265	282
802.775	252
804.284	238
805.793	218
807.302	196
808.81	202
810.318	190
811.826	170
813.333	180
814.84	148
816.346	148
817.851	144
819.357	126
820.862	132
822.367	124
823.871	118
825.376	120
826.878	118
828.382	114
829.885	124
831.387	118
832.889	128
834.391	138
835.892	142
837.392	146
838.893	166
840.393	162
841.893	154
843.392	160
844.891	170
846.389	150
847.888	154
849.386	134
850.882	140
852.38	148
853.876	132
855.372	126
856.868	136
858.363	136
859.858	116
861.353	132
862.847	138
864.341	122
865.834	138
867.328	132
868.82	130
870.313	130
871.805	130
873.296	124
874.787	126
876.278	120
877.769	118
879.258	126
880.748	132
882.237	122
883.726	124
885.214	110
886.702	134
888.19	118
889.677	118
891.164	118
892.651	114
894.137	116
895.623	124
897.108	128
898.593	130
900.077	132
901.562	138
903.046	152
904.529	150
906.012	152
907.495	154
908.977	146
910.459	140
911.941	136
913.422	136
914.903	126
916.383	120
917.863	104
919.343	110
920.822	110
922.301	110
923.779	110
925.257	110
926.735	106
928.213	102
929.69	102
931.166	104
932.643	100
934.119	100
935.594	108
937.069	116
938.543	106
940.018	110
941.492	112
942.966	114
944.439	120
945.911	106
947.384	102
948.856	108
950.328	100
951.799	108
953.27	104
954.741	116
956.21	94
957.68	118
959.15	120
960.619	116
962.088	132
963.556	128
965.023	138
966.491	142
967.958	128
969.425	140
970.891	132
972.357	138
973.824	150
975.288	150
976.754	166
978.218	166
979.682	174
981.146	206
982.609	230
984.072	262
985.534	286
986.997	340
988.459	434
989.92	606
991.382	804
992.842	838
994.302	802
995.763	878
997.222	1250
998.681	1996
1000.14	2942
1001.6	3302
1003.06	2866
1004.52	1952
1005.97	1162
1007.43	716
1008.89	440
1010.34	322
1011.8	246
1013.25	222
1014.71	210
1016.16	188
1017.62	198
1019.07	196
1020.53	218
1021.98	262
1023.43	314
1024.89	388
1026.34	486
1027.79	610
1029.24	784
1030.69	886
1032.14	894
1033.59	832
1035.04	678
1036.49	526
1037.94	416
1039.39	340
1040.84	274
1042.29	240
1043.73	214
1045.18	182
1046.63	188
1048.08	172
1049.52	166
1050.97	166
1052.41	162
1053.86	164
1055.3	156
1056.75	158
1058.19	158
1059.64	164
1061.08	170
1062.52	170
1063.96	176
1065.41	174
1066.85	164
1068.29	188
1069.73	178
1071.17	188
1072.61	178
1074.05	176
1075.49	174
1076.93	168
1078.37	178
1079.81	162
1081.25	168
1082.68	172
1084.12	164
1085.56	174
1087	174
1088.43	164
1089.87	168
1091.3	164
1092.74	168
1094.17	174
1095.61	168
1097.04	170
1098.48	184
1099.91	180
1101.34	160
1102.78	174
1104.21	168
1105.64	154
1107.07	142
1108.5	140
1109.93	138
1111.36	132
1112.8	136
1114.22	128
1115.65	140
1117.08	136
1118.51	126
1119.94	120
1121.37	122
1122.8	116
1124.22	116
1125.65	110
1127.08	114
1128.5	104
1129.93	114
1131.35	112
1132.78	104
1134.2	118
1135.63	118
1137.05	120
1138.48	130
1139.9	132
1141.32	134
1142.75	142
1144.17	150
1145.59	162
1147.01	180
1148.43	202
1149.85	248
1151.27	296
1152.69	358
1154.11	398
1155.53	430
1156.95	412
1158.37	348
1159.79	290
1161.21	266
1162.62	222
1164.04	200
1165.46	222
1166.87	196
1168.29	218
1169.71	210
1171.12	230
1172.54	242
1173.95	264
1175.37	294
1176.78	344
1178.19	422
1179.61	464
1181.02	532
1182.43	518
1183.84	494
1185.26	468
1186.67	450
1188.08	446
1189.49	434
1190.9	470
1192.31	482
1193.72	502
1195.13	500
1196.54	524
1197.95	502
1199.36	486
1200.76	484
1202.17	452
1203.58	446
1204.99	416
1206.39	378
1207.8	356
1209.2	314
1210.61	300
1212.01	278
1213.42	256
1214.82	234
1216.23	238
1217.63	212
1219.03	208
1220.44	222
1221.84	208
1223.24	206
1224.64	210
1226.05	196
1227.45	198
1228.85	202
1230.25	174
1231.65	186
1233.05	180
1234.45	168
1235.85	168
1237.25	162
1238.64	172
1240.04	180
1241.44	194
1242.84	174
1244.23	174
1245.63	178
1247.03	184
1248.42	166
1249.82	178
1251.21	178
1252.61	178
1254	168
1255.4	168
1256.79	176
1258.19	176
1259.58	172
1260.97	164
1262.36	174
1263.76	176
1265.15	168
1266.54	176
1267.93	172
1269.32	184
1270.71	180
1272.1	174
1273.49	180
1274.88	182
1276.27	184
1277.66	184
1279.05	174
1280.43	176
1281.82	180
1283.21	188
1284.6	176
1285.98	194
1287.37	184
1288.75	186
1290.14	180
1291.53	200
1292.91	192
1294.29	196
1295.68	198
1297.06	204
1298.45	204
1299.83	224
1301.21	214
1302.59	226
1303.98	228
1305.36	234
1306.74	232
1308.12	232
1309.5	242
1310.88	218
1312.26	242
1313.64	238
1315.02	232
1316.4	246
1317.78	262
1319.16	270
1320.53	280
1321.91	260
1323.29	286
1324.67	258
1326.04	294
1327.42	306
1328.79	310
1330.17	296
1331.54	284
1332.92	308
1334.29	292
1335.67	306
1337.04	292
1338.42	280
1339.79	284
1341.16	272
1342.53	264
1343.91	268
1345.28	276
1346.65	276
1348.02	282
1349.39	272
1350.76	258
1352.13	276
1353.5	272
1354.87	280
1356.24	278
1357.61	278
1358.98	268
1360.34	282
1361.71	300
1363.08	274
1364.45	276
1365.81	292
1367.18	292
1368.54	284
1369.91	282
1371.28	272
1372.64	282
1374.01	282
1375.37	278
1376.73	290
1378.1	276
1379.46	290
1380.82	268
1382.19	278
1383.55	246
1384.91	256
1386.27	250
1387.63	260
1388.99	254
1390.35	238
1391.71	248
1393.07	236
1394.43	240
1395.79	242
1397.15	242
1398.51	230
1399.87	240
1401.23	238
1402.58	234
1403.94	228
1405.3	242
1406.65	244
1408.01	230
1409.37	246
1410.72	234
1412.08	228
1413.43	248
1414.79	228
1416.14	234
1417.49	214
1418.85	230
1420.2	222
1421.55	240
1422.91	230
1424.26	222
1425.61	208
1426.96	230
1428.31	248
1429.66	236
1431.01	230
1432.36	236
1433.71	252
1435.06	234
1436.41	264
1437.76	260
1439.11	298
1440.46	298
1441.81	290
1443.15	298
1444.5	326
1445.85	320
1447.19	350
1448.54	336
1449.89	326
1451.23	322
1452.58	332
1453.92	312
1455.27	308
1456.61	272
1457.95	244
1459.3	248
1460.64	228
1461.98	218
1463.33	214
1464.67	214
1466.01	212
1467.35	194
1468.69	206
1470.03	188
1471.37	190
1472.71	194
1474.05	192
1475.39	186
1476.73	206
1478.07	182
1479.41	188
1480.75	198
1482.09	180
1483.42	180
1484.76	180
1486.1	188
1487.43	180
1488.77	184
1490.11	188
1491.44	184
1492.78	208
1494.11	192
1495.45	186
1496.78	180
1498.12	190
1499.45	184
1500.78	164
1502.11	172
1503.45	178
1504.78	172
1506.11	176
1507.44	178
1508.77	178
1510.11	188
1511.44	170
1512.77	180
1514.1	162
1515.43	184
1516.76	180
1518.08	164
1519.41	154
1520.74	176
1522.07	170
1523.4	170
1524.72	172
1526.05	170
1527.38	170
1528.7	160
1530.03	176
1531.36	172
1532.68	160
1534.01	172
1535.33	166
1536.66	168
1537.98	168
1539.3	170
1540.63	162
1541.95	168
1543.27	174
1544.6	164
1545.92	168
1547.24	178
1548.56	162
1549.88	180
1551.2	166
1552.52	164
1553.84	170
1555.17	170
1556.48	176
1557.8	168
1559.12	172
1560.44	170
1561.76	166
1563.08	172
1564.4	154
1565.71	182
1567.03	178
1568.35	182
1569.66	186
1570.98	188
1572.29	192
1573.61	190
1574.93	210
1576.24	220
1577.55	218
1578.87	282
1580.18	338
1581.5	410
1582.81	426
1584.12	418
1585.43	350
1586.75	304
1588.06	266
1589.37	266
1590.68	272
1591.99	260
1593.3	274
1594.61	306
1595.92	356
1597.23	422
1598.54	528
1599.85	618
1601.16	706
1602.47	704
1603.78	656
1605.08	534
1606.39	474
1607.7	394
1609	328
1610.31	280
1611.62	260
1612.92	228
1614.23	218
1615.53	200
1616.84	192
1618.14	196
1619.45	170
1620.75	166
1622.06	176
1623.36	188
1624.66	158
1625.96	168
1627.27	168
1628.57	162
1629.87	160
1631.17	146
1632.47	160
1633.77	146
1635.07	148
1636.37	162
1637.67	148
1638.97	160
1640.27	162
1641.57	158
1642.87	154
1644.17	160
1645.47	146
1646.76	152
1648.06	158
1649.36	154
1650.66	154
1651.95	154
1653.25	152
1654.54	138
1655.84	140
1657.13	150
1658.43	120
1659.72	134
1661.02	144
1662.31	136
1663.6	140
1664.9	140
1666.19	132
1667.48	138
1668.78	144
1670.07	134
1671.36	142
1672.65	130
1673.94	138
1675.23	122
1676.52	130
1677.81	136
1679.1	134
1680.39	140
1681.68	128
1682.97	132
1684.26	128
1685.55	122
1686.83	136
1688.12	126
1689.41	126
1690.7	124
1691.98	118
1693.27	140
1694.55	134
1695.84	138
1697.13	122
1698.41	130
1699.69	124
1700.98	128
1702.26	128