File: Jesse_Dataset_v2/Pure Raman/Polystyrene/785nm/ps-ppo-6jan25-1,0000-map3_Y02_X06.txt
204.377	844
206.045	866
207.713	846
209.38	872
211.048	860
212.715	944
214.381	908
216.047	882
217.712	898
219.377	922
221.042	928
222.706	888
224.369	876
226.032	810
227.695	782
229.357	800
231.019	696
232.68	662
234.341	630
236.001	580
237.661	576
239.321	484
240.98	436
242.639	408
244.297	382
245.955	346
247.612	346
249.268	330
250.924	310
252.58	304
254.236	288
255.891	274
257.546	272
259.2	264
260.854	276
262.507	244
264.16	256
265.812	256
267.463	262
269.115	250
270.766	252
272.417	248
274.067	228
275.717	236
277.365	220
279.014	224
280.663	224
282.311	228
283.958	214
285.605	210
287.252	206
288.898	196
290.543	192
292.188	178
293.833	178
295.477	172
297.121	174
298.765	160
300.407	162
302.05	164
303.693	168
305.334	168
306.975	168
308.615	166
310.256	166
311.896	156
313.535	162
315.175	154
316.813	176
318.451	178
320.089	178
321.726	170
323.362	162
324.999	164
326.635	162
328.271	170
329.905	158
331.54	172
333.174	166
334.807	162
336.441	172
338.074	152
339.707	156
341.338	166
342.969	148
344.601	144
346.231	166
347.861	158
349.491	142
351.12	134
352.749	148
354.378	146
356.006	136
357.633	146
359.261	144
360.887	134
362.513	136
364.139	150
365.764	158
367.39	150
369.014	150
370.638	154
372.261	154
373.884	156
375.508	164
377.13	156
378.752	168
380.373	164
381.994	170
383.615	174
385.235	172
386.854	168
388.473	172
390.092	178
391.711	182
393.328	196
394.947	190
396.564	194
398.181	206
399.797	196
401.412	218
403.027	230
404.642	226
406.257	230
407.871	230
409.484	214
411.098	220
412.711	204
414.323	186
415.935	198
417.547	194
419.158	176
420.768	178
422.378	148
423.988	154
425.597	148
427.206	146
428.814	150
430.422	146
432.03	134
433.637	140
435.243	136
436.85	144
438.456	142
440.062	132
441.666	132
443.271	122
444.876	138
446.479	128
448.082	126
449.685	114
451.287	118
452.89	120
454.492	114
456.092	112
457.693	108
459.293	100
460.893	102
462.492	94
464.092	106
465.691	108
467.288	118
468.887	108
470.483	112
472.081	96
473.677	96
475.273	106
476.869	86
478.463	98
480.059	88
481.653	100
483.247	100
484.84	90
486.433	90
488.026	100
489.618	94
491.21	90
492.801	98
494.392	98
495.983	94
497.573	96
499.162	108
500.752	98
502.341	102
503.929	112
505.517	100
507.105	116
508.692	106
510.279	110
511.865	100
513.45	102
515.037	104
516.621	108
518.206	118
519.79	112
521.374	106
522.957	96
524.54	116
526.123	120
527.705	112
529.287	120
530.868	132
532.448	118
534.029	134
535.609	144
537.188	148
538.768	128
540.346	148
541.925	136
543.502	150
545.08	142
546.657	148
548.234	148
549.81	146
551.386	142
552.961	146
554.536	134
556.11	136
557.684	126
559.258	136
560.832	132
562.405	132
563.977	132
565.55	118
567.12	130
568.692	126
570.263	128
571.833	142
573.403	142
574.973	140
576.542	124
578.111	124
579.679	110
581.247	116
582.815	114
584.382	108
585.948	100
587.514	106
589.081	116
590.645	114
592.211	102
593.775	112
595.339	110
596.904	114
598.466	106
600.03	110
601.592	120
603.154	130
604.715	128
606.277	138
607.838	152
609.398	146
610.958	138
612.518	166
614.077	176
615.636	224
617.194	308
618.753	486
620.31	720
621.867	670
623.424	478
624.98	304
626.537	198
628.092	164
629.647	144
631.202	136
632.756	116
634.31	112
635.864	104
637.417	102
638.969	96
640.521	86
642.074	80
643.625	86
645.176	88
646.726	78
648.276	82
649.827	78
651.376	78
652.925	78
654.473	76
656.021	74
657.569	80
659.117	74
660.664	74
662.21	72
663.757	78
665.302	86
666.847	68
668.392	76
669.937	70
671.481	74
673.025	78
674.568	76
676.111	78
677.653	80
679.195	70
680.737	74
682.279	76
683.82	68
685.36	78
686.9	80
688.44	76
689.979	80
691.517	82
693.056	76
694.594	78
696.132	76
697.669	88
699.206	86
700.742	90
702.278	102
703.814	100
705.35	92
706.884	86
708.419	92
709.953	86
711.487	100
713.019	90
714.552	92
716.085	92
717.617	102
719.148	110
720.68	108
722.21	132
723.741	148
725.271	154
726.8	142
728.33	124
729.858	126
731.387	118
732.915	132
734.443	132
735.97	154
737.497	166
739.023	162
740.549	166
742.075	172
743.6	180
745.125	176
746.65	190
748.173	184
749.697	190
751.22	194
752.743	204
754.266	212
755.788	220
757.309	220
758.831	244
760.351	232
761.871	230
763.392	212
764.912	208
766.431	220
767.95	208
769.468	200
770.986	196
772.504	196
774.022	190
775.538	194
777.055	194
778.571	202
780.086	210
781.602	208
783.117	248
784.632	242
786.146	272
787.659	290
789.173	302
790.685	318
792.198	334
793.71	348
795.222	350
796.733	340
798.244	342
799.755	306
801.265	286
802.775	258
804.284	224
805.793	208
807.302	194
808.81	190
810.318	178
811.826	158
813.333	162
814.84	150
816.346	154
817.851	134
819.357	128
820.862	120
822.367	118
823.871	114
825.376	108
826.878	118
828.382	112
829.885	106
831.387	118
832.889	124
834.391	124
835.892	124
837.392	148
838.893	152
840.393	166
841.893	158
843.392	170
844.891	144
846.389	150
847.888	136
849.386	130
850.882	130
852.38	130
853.876	118
855.372	128
856.868	120
858.363	126
859.858	128
861.353	122
862.847	126
864.341	120
865.834	112
867.328	122
868.82	124
870.313	120
871.805	126
873.296	128
874.787	120
876.278	126
877.769	118
879.258	118
880.748	112
882.237	114
883.726	116
885.214	122
886.702	110
888.19	118
889.677	110
891.164	108
892.651	110
894.137	120
895.623	116
897.108	116
898.593	128
900.077	122
901.562	138
903.046	138
904.529	144
906.012	140
907.495	140
908.977	150
910.459	136
911.941	136
913.422	108
914.903	116
916.383	110
917.863	110
919.343	100
920.822	96
922.301	104
923.779	82
925.257	100
926.735	90
928.213	92
929.69	94
931.166	94
932.643	104
934.119	88
935.594	96
937.069	100
938.543	102
940.018	90
941.492	104
942.966	96
944.439	98
945.911	104
947.384	104
948.856	96
950.328	106
951.799	98
953.27	100
954.741	98
956.21	106
957.68	98
959.15	104
960.619	112
962.088	118
963.556	122
965.023	124
966.491	120
967.958	130
969.425	126
970.891	130
972.357	138
973.824	146
975.288	130
976.754	154
978.218	168
979.682	176
981.146	202
982.609	226
984.072	250
985.534	266
986.997	326
988.459	420
989.92	594
991.382	744
992.842	820
994.302	746
995.763	850
997.222	1188
998.681	1928
1000.14	2878
1001.6	3332
1003.06	2868
1004.52	1984
1005.97	1170
1007.43	706
1008.89	432
1010.34	320
1011.8	252
1013.25	210
1014.71	200
1016.16	188
1017.62	182
1019.07	204
1020.53	226
1021.98	246
1023.43	298
1024.89	376
1026.34	488
1027.79	628
1029.24	746
1030.69	870
1032.14	910
1033.59	838
1035.04	712
1036.49	526
1037.94	420
1039.39	328
1040.84	268
1042.29	238
1043.73	202
1045.18	188
1046.63	172
1048.08	162
1049.52	142
1050.97	166
1052.41	156
1053.86	148
1055.3	144
1056.75	158
1058.19	154
1059.64	148
1061.08	164
1062.52	164
1063.96	160
1065.41	158
1066.85	166
1068.29	168
1069.73	174
1071.17	182
1072.61	172
1074.05	174
1075.49	150
1076.93	174
1078.37	178
1079.81	162
1081.25	164
1082.68	164
1084.12	164
1085.56	160
1087	166
1088.43	166
1089.87	154
1091.3	174
1092.74	166
1094.17	164
1095.61	168
1097.04	162
1098.48	178
1099.91	178
1101.34	170
1102.78	160
1104.21	154
1105.64	148
1107.07	148
1108.5	132
1109.93	130
1111.36	132
1112.8	134
1114.22	118
1115.65	124
1117.08	114
1118.51	122
1119.94	112
1121.37	114
1122.8	106
1124.22	98
1125.65	110
1127.08	104
1128.5	90
1129.93	104
1131.35	110
1132.78	106
1134.2	102
1135.63	118
1137.05	120
1138.48	122
1139.9	122
1141.32	126
1142.75	142
1144.17	142
1145.59	152
1147.01	182
1148.43	196
1149.85	232
1151.27	284
1152.69	348
1154.11	416
1155.53	420
1156.95	380
1158.37	344
1159.79	296
1161.21	248
1162.62	226
1164.04	210
1165.46	196
1166.87	198
1168.29	216
1169.71	196
1171.12	218
1172.54	234
1173.95	248
1175.37	298
1176.78	348
1178.19	420
1179.61	476
1181.02	512
1182.43	522
1183.84	490
1185.26	464
1186.67	436
1188.08	430
1189.49	462
1190.9	460
1192.31	480
1193.72	522
1195.13	522
1196.54	502
1197.95	504
1199.36	490
1200.76	488
1202.17	448
1203.58	448
1204.99	406
1206.39	390
1207.8	340
1209.2	308
1210.61	286
1212.01	264
1213.42	240
1214.82	228
1216.23	216
1217.63	214
1219.03	212
1220.44	206
1221.84	206
1223.24	200
1224.64	204
1226.05	188
1227.45	200
1228.85	184
1230.25	182
1231.65	176
1233.05	184
1234.45	180
1235.85	156
1237.25	172
1238.64	170
1240.04	172
1241.44	160
1242.84	180
1244.23	172
1245.63	148
1247.03	158
1248.42	168
1249.82	150
1251.21	166
1252.61	174
1254	172
1255.4	164
1256.79	172
1258.19	166
1259.58	152
1260.97	174
1262.36	170
1263.76	158
1265.15	166
1266.54	164
1267.93	160
1269.32	170
1270.71	164
1272.1	172
1273.49	166
1274.88	160
1276.27	174
1277.66	174
1279.05	160
1280.43	170
1281.82	174
1283.21	170
1284.6	184
1285.98	174
1287.37	178
1288.75	172
1290.14	180
1291.53	190
1292.91	186
1294.29	196
1295.68	214
1297.06	212
1298.45	188
1299.83	200
1301.21	210
1302.59	208
1303.98	216
1305.36	228
1306.74	224
1308.12	240
1309.5	220
1310.88	224
1312.26	236
1313.64	240
1315.02	250
1316.4	232
1317.78	254
1319.16	262
1320.53	256
1321.91	284
1323.29	274
1324.67	292
1326.04	306
1327.42	310
1328.79	286
1330.17	298
1331.54	292
1332.92	280
1334.29	302
1335.67	296
1337.04	280
1338.42	292
1339.79	266
1341.16	280
1342.53	272
1343.91	270
1345.28	268
1346.65	270
1348.02	254
1349.39	246
1350.76	258
1352.13	270
1353.5	268
1354.87	280
1356.24	268
1357.61	254
1358.98	262
1360.34	258
1361.71	270
1363.08	276
1364.45	272
1365.81	288
1367.18	266
1368.54	252
1369.91	280
1371.28	274
1372.64	286
1374.01	264
1375.37	282
1376.73	278
1378.1	274
1379.46	262
1380.82	262
1382.19	248
1383.55	248
1384.91	254
1386.27	256
1387.63	244
1388.99	240
1390.35	238
1391.71	238
1393.07	238
1394.43	242
1395.79	240
1397.15	232
1398.51	236
1399.87	226
1401.23	224
1402.58	218
1403.94	242
1405.3	214
1406.65	232
1408.01	232
1409.37	222
1410.72	222
1412.08	230
1413.43	236
1414.79	224
1416.14	206
1417.49	220
1418.85	224
1420.2	218
1421.55	220
1422.91	222
1424.26	222
1425.61	226
1426.96	222
1428.31	224
1429.66	230
1431.01	226
1432.36	248
1433.71	230
1435.06	264
1436.41	252
1437.76	262
1439.11	266
1440.46	272
1441.81	282
1443.15	298
1444.5	320
1445.85	320
1447.19	322
1448.54	342
1449.89	342
1451.23	328
1452.58	332
1453.92	304
1455.27	278
1456.61	264
1457.95	248
1459.3	226
1460.64	224
1461.98	194
1463.33	204
1464.67	194
1466.01	198
1467.35	192
1468.69	198
1470.03	186
1471.37	188
1472.71	186
1474.05	182
1475.39	178
1476.73	176
1478.07	172
1479.41	172
1480.75	174
1482.09	180
1483.42	186
1484.76	176
1486.1	176
1487.43	184
1488.77	184
1490.11	184
1491.44	188
1492.78	186
1494.11	184
1495.45	190
1496.78	190
1498.12	174
1499.45	178
1500.78	170
1502.11	164
1503.45	166
1504.78	148
1506.11	160
1507.44	166
1508.77	156
1510.11	162
1511.44	162
1512.77	168
1514.1	166
1515.43	160
1516.76	166
1518.08	172
1519.41	188
1520.74	156
1522.07	166
1523.4	156
1524.72	162
1526.05	164
1527.38	172
1528.7	156
1530.03	162
1531.36	164
1532.68	160
1534.01	158
1535.33	160
1536.66	152
1537.98	160
1539.3	164
1540.63	172
1541.95	154
1543.27	160
1544.6	158
1545.92	166
1547.24	168
1548.56	162
1549.88	162
1551.2	160
1552.52	162
1553.84	158
1555.17	162
1556.48	168
1557.8	158
1559.12	154
1560.44	158
1561.76	170
1563.08	156
1564.4	166
1565.71	172
1567.03	166
1568.35	170
1569.66	172
1570.98	186
1572.29	180
1573.61	204
1574.93	208
1576.24	214
1577.55	226
1578.87	260
1580.18	316
1581.5	404
1582.81	418
1584.12	408
1585.43	340
1586.75	286
1588.06	270
1589.37	248
1590.68	232
1591.99	256
1593.3	272
1594.61	274
1595.92	350
1597.23	426
1598.54	508
1599.85	596
1601.16	670
1602.47	688
1603.78	662
1605.08	536
1606.39	456
1607.7	386
1609	324
1610.31	254
1611.62	238
1612.92	226
1614.23	210
1615.53	178
1616.84	184
1618.14	184
1619.45	182
1620.75	172
1622.06	176
1623.36	164
1624.66	162
1625.96	166
1627.27	152
1628.57	164
1629.87	150
1631.17	154
1632.47	156
1633.77	158
1635.07	138
1636.37	148
1637.67	138
1638.97	140
1640.27	142
1641.57	148
1642.87	144
1644.17	142
1645.47	148
1646.76	158
1648.06	154
1649.36	154
1650.66	140
1651.95	140
1653.25	146
1654.54	138
1655.84	136
1657.13	140
1658.43	134
1659.72	132
1661.02	138
1662.31	132
1663.6	122
1664.9	126
1666.19	134
1667.48	142
1668.78	124
1670.07	128
1671.36	132
1672.65	130
1673.94	132
1675.23	132
1676.52	126
1677.81	118
1679.1	122
1680.39	128
1681.68	132
1682.97	126
1684.26	120
1685.55	124
1686.83	124
1688.12	130
1689.41	120
1690.7	122
1691.98	122
1693.27	122
1694.55	126
1695.84	116
1697.13	116
1698.41	116
1699.69	136
1700.98	124
1702.26	114