File: Jesse_Dataset_v2/Pure Raman/Polystyrene/785nm/ps-ppo-6jan25-1,0000-map3_Y04_X04.txt
204.377	808
206.045	846
207.713	842
209.38	890
211.048	862
212.715	886
214.381	906
216.047	910
217.712	910
219.377	920
221.042	900
222.706	878
224.369	890
226.032	860
227.695	812
229.357	786
231.019	722
232.68	660
234.341	618
236.001	590
237.661	540
239.321	494
240.98	440
242.639	396
244.297	374
245.955	358
247.612	338
249.268	320
250.924	312
252.58	294
254.236	280
255.891	272
257.546	278
259.2	272
260.854	266
262.507	268
264.16	238
265.812	262
267.463	262
269.115	244
270.766	250
272.417	248
274.067	246
275.717	238
277.365	240
279.014	246
280.663	224
282.311	214
283.958	208
285.605	216
287.252	196
288.898	204
290.543	182
292.188	172
293.833	188
295.477	168
297.121	160
298.765	156
300.407	168
302.05	164
303.693	164
305.334	170
306.975	164
308.615	162
310.256	164
311.896	168
313.535	172
315.175	168
316.813	160
318.451	172
320.089	176
321.726	164
323.362	188
324.999	172
326.635	168
328.271	178
329.905	178
331.54	166
333.174	160
334.807	166
336.441	160
338.074	166
339.707	160
341.338	172
342.969	158
344.601	156
346.231	152
347.861	154
349.491	148
351.12	148
352.749	152
354.378	158
356.006	146
357.633	144
359.261	150
360.887	150
362.513	160
364.139	146
365.764	140
367.39	152
369.014	150
370.638	150
372.261	162
373.884	152
375.508	148
377.13	154
378.752	164
380.373	170
381.994	180
383.615	172
385.235	174
386.854	190
388.473	178
390.092	188
391.711	190
393.328	182
394.947	194
396.564	204
398.181	192
399.797	190
401.412	218
403.027	244
404.642	236
406.257	234
407.871	240
409.484	226
411.098	214
412.711	202
414.323	206
415.935	196
417.547	184
419.158	168
420.768	162
422.378	160
423.988	164
425.597	156
427.206	158
428.814	158
430.422	144
432.03	146
433.637	160
435.243	142
436.85	142
438.456	150
440.062	140
441.666	140
443.271	134
444.876	122
446.479	134
448.082	130
449.685	122
451.287	116
452.89	120
454.492	114
456.092	112
457.693	102
459.293	114
460.893	122
462.492	104
464.092	112
465.691	106
467.288	114
468.887	112
470.483	116
472.081	112
473.677	106
475.273	110
476.869	110
478.463	100
480.059	102
481.653	104
483.247	102
484.84	96
486.433	108
488.026	98
489.618	100
491.21	104
492.801	108
494.392	110
495.983	110
497.573	106
499.162	110
500.752	104
502.341	110
503.929	114
505.517	112
507.105	106
508.692	112
510.279	104
511.865	108
513.45	100
515.037	120
516.621	106
518.206	116
519.79	110
521.374	110
522.957	114
524.54	116
526.123	124
527.705	112
529.287	114
530.868	128
532.448	134
534.029	130
535.609	152
537.188	152
538.768	138
540.346	152
541.925	144
543.502	148
545.08	148
546.657	140
548.234	138
549.81	142
551.386	138
552.961	150
554.536	132
556.11	138
557.684	138
559.258	140
560.832	144
562.405	150
563.977	142
565.55	140
567.12	130
568.692	128
570.263	132
571.833	148
573.403	134
574.973	140
576.542	148
578.111	126
579.679	122
581.247	114
582.815	108
584.382	116
585.948	118
587.514	110
589.081	114
590.645	114
592.211	116
593.775	110
595.339	110
596.904	120
598.466	116
600.03	114
601.592	108
603.154	118
604.715	130
606.277	152
607.838	154
609.398	148
610.958	138
612.518	164
614.077	204
615.636	230
617.194	324
618.753	530
620.31	718
621.867	652
623.424	482
624.98	294
626.537	194
628.092	162
629.647	158
631.202	124
632.756	110
634.31	98
635.864	108
637.417	100
638.969	100
640.521	98
642.074	92
643.625	90
645.176	80
646.726	82
648.276	88
649.827	82
651.376	86
652.925	86
654.473	74
656.021	80
657.569	80
659.117	70
660.664	80
662.21	72
663.757	82
665.302	82
666.847	80
668.392	82
669.937	64
671.481	72
673.025	80
674.568	78
676.111	78
677.653	78
679.195	76
680.737	78
682.279	76
683.82	84
685.36	78
686.9	78
688.44	68
689.979	68
691.517	74
693.056	76
694.594	78
696.132	80
697.669	86
699.206	86
700.742	100
702.278	96
703.814	96
705.35	112
706.884	100
708.419	98
709.953	90
711.487	96
713.019	98
714.552	92
716.085	92
717.617	102
719.148	114
720.68	114
722.21	124
723.741	144
725.271	158
726.8	140
728.33	128
729.858	124
731.387	130
732.915	126
734.443	132
735.97	148
737.497	158
739.023	168
740.549	172
742.075	182
743.6	178
745.125	192
746.65	190
748.173	180
749.697	194
751.22	198
752.743	222
754.266	218
755.788	222
757.309	244
758.831	224
760.351	246
761.871	248
763.392	224
764.912	218
766.431	212
767.95	204
769.468	190
770.986	200
772.504	188
774.022	196
775.538	198
777.055	218
778.571	204
780.086	212
781.602	226
783.117	236
784.632	260
786.146	278
787.659	298
789.173	318
790.685	308
792.198	324
793.71	344
795.222	350
796.733	348
798.244	334
799.755	312
801.265	294
802.775	250
804.284	238
805.793	214
807.302	192
808.81	194
810.318	164
811.826	170
813.333	158
814.84	150
816.346	142
817.851	118
819.357	132
820.862	118
822.367	120
823.871	118
825.376	112
826.878	110
828.382	114
829.885	118
831.387	114
832.889	118
834.391	132
835.892	138
837.392	146
838.893	162
840.393	150
841.893	156
843.392	158
844.891	152
846.389	148
847.888	146
849.386	134
850.882	134
852.38	124
853.876	122
855.372	130
856.868	112
858.363	122
859.858	130
861.353	132
862.847	122
864.341	124
865.834	128
867.328	116
868.82	122
870.313	118
871.805	126
873.296	114
874.787	132
876.278	120
877.769	122
879.258	126
880.748	110
882.237	114
883.726	104
885.214	106
886.702	112
888.19	116
889.677	120
891.164	112
892.651	118
894.137	106
895.623	112
897.108	118
898.593	124
900.077	130
901.562	144
903.046	142
904.529	140
906.012	148
907.495	148
908.977	144
910.459	128
911.941	124
913.422	114
914.903	126
916.383	98
917.863	108
919.343	108
920.822	96
922.301	94
923.779	104
925.257	96
926.735	94
928.213	98
929.69	104
931.166	96
932.643	100
934.119	94
935.594	98
937.069	98
938.543	92
940.018	98
941.492	96
942.966	96
944.439	94
945.911	102
947.384	98
948.856	94
950.328	102
951.799	106
953.27	92
954.741	98
956.21	110
957.68	108
959.15	110
960.619	106
962.088	122
963.556	130
965.023	132
966.491	138
967.958	120
969.425	126
970.891	134
972.357	132
973.824	122
975.288	136
976.754	146
978.218	172
979.682	186
981.146	192
982.609	218
984.072	244
985.534	278
986.997	330
988.459	412
989.92	586
991.382	762
992.842	826
994.302	770
995.763	818
997.222	1232
998.681	1976
1000.14	2868
1001.6	3360
1003.06	2908
1004.52	1968
1005.97	1150
1007.43	682
1008.89	452
1010.34	316
1011.8	250
1013.25	206
1014.71	192
1016.16	190
1017.62	182
1019.07	190
1020.53	216
1021.98	256
1023.43	284
1024.89	392
1026.34	486
1027.79	640
1029.24	750
1030.69	880
1032.14	888
1033.59	820
1035.04	664
1036.49	512
1037.94	418
1039.39	330
1040.84	268
1042.29	222
1043.73	196
1045.18	182
1046.63	174
1048.08	172
1049.52	160
1050.97	170
1052.41	148
1053.86	138
1055.3	154
1056.75	140
1058.19	154
1059.64	148
1061.08	150
1062.52	162
1063.96	170
1065.41	172
1066.85	174
1068.29	178
1069.73	172
1071.17	168
1072.61	176
1074.05	172
1075.49	172
1076.93	170
1078.37	160
1079.81	158
1081.25	158
1082.68	182
1084.12	154
1085.56	164
1087	172
1088.43	160
1089.87	172
1091.3	162
1092.74	174
1094.17	166
1095.61	168
1097.04	172
1098.48	160
1099.91	160
1101.34	172
1102.78	158
1104.21	164
1105.64	144
1107.07	146
1108.5	134
1109.93	122
1111.36	126
1112.8	136
1114.22	110
1115.65	122
1117.08	112
1118.51	112
1119.94	104
1121.37	110
1122.8	102
1124.22	106
1125.65	102
1127.08	102
1128.5	100
1129.93	114
1131.35	104
1132.78	108
1134.2	108
1135.63	98
1137.05	122
1138.48	112
1139.9	126
1141.32	128
1142.75	136
1144.17	144
1145.59	164
1147.01	186
1148.43	192
1149.85	226
1151.27	272
1152.69	344
1154.11	410
1155.53	426
1156.95	384
1158.37	342
1159.79	310
1161.21	256
1162.62	210
1164.04	214
1165.46	206
1166.87	198
1168.29	202
1169.71	212
1171.12	230
1172.54	234
1173.95	276
1175.37	300
1176.78	354
1178.19	428
1179.61	464
1181.02	520
1182.43	524
1183.84	492
1185.26	472
1186.67	450
1188.08	432
1189.49	424
1190.9	466
1192.31	468
1193.72	496
1195.13	524
1196.54	512
1197.95	506
1199.36	484
1200.76	464
1202.17	458
1203.58	430
1204.99	398
1206.39	368
1207.8	342
1209.2	316
1210.61	296
1212.01	254
1213.42	248
1214.82	254
1216.23	220
1217.63	208
1219.03	216
1220.44	194
1221.84	216
1223.24	186
1224.64	204
1226.05	188
1227.45	194
1228.85	178
1230.25	186
1231.65	182
1233.05	182
1234.45	158
1235.85	170
1237.25	178
1238.64	160
1240.04	174
1241.44	172
1242.84	164
1244.23	172
1245.63	162
1247.03	168
1248.42	162
1249.82	168
1251.21	170
1252.61	172
1254	160
1255.4	160
1256.79	166
1258.19	176
1259.58	168
1260.97	164
1262.36	168
1263.76	174
1265.15	172
1266.54	168
1267.93	172
1269.32	172
1270.71	186
1272.1	160
1273.49	172
1274.88	160
1276.27	168
1277.66	168
1279.05	176
1280.43	180
1281.82	170
1283.21	178
1284.6	176
1285.98	182
1287.37	174
1288.75	170
1290.14	180
1291.53	188
1292.91	188
1294.29	192
1295.68	198
1297.06	206
1298.45	210
1299.83	206
1301.21	204
1302.59	220
1303.98	224
1305.36	224
1306.74	222
1308.12	214
1309.5	228
1310.88	230
1312.26	232
1313.64	228
1315.02	236
1316.4	224
1317.78	252
1319.16	258
1320.53	270
1321.91	278
1323.29	272
1324.67	290
1326.04	290
1327.42	290
1328.79	278
1330.17	296
1331.54	280
1332.92	296
1334.29	300
1335.67	298
1337.04	278
1338.42	284
1339.79	266
1341.16	274
1342.53	264
1343.91	266
1345.28	258
1346.65	264
1348.02	268
1349.39	242
1350.76	270
1352.13	272
1353.5	258
1354.87	262
1356.24	254
1357.61	270
1358.98	264
1360.34	278
1361.71	272
1363.08	272
1364.45	262
1365.81	260
1367.18	264
1368.54	268
1369.91	262
1371.28	270
1372.64	272
1374.01	276
1375.37	280
1376.73	260
1378.1	276
1379.46	258
1380.82	252
1382.19	268
1383.55	250
1384.91	260
1386.27	246
1387.63	260
1388.99	236
1390.35	226
1391.71	234
1393.07	228
1394.43	230
1395.79	236
1397.15	228
1398.51	240
1399.87	230
1401.23	228
1402.58	230
1403.94	224
1405.3	236
1406.65	226
1408.01	216
1409.37	228
1410.72	228
1412.08	228
1413.43	238
1414.79	220
1416.14	210
1417.49	206
1418.85	220
1420.2	220
1421.55	210
1422.91	220
1424.26	214
1425.61	220
1426.96	212
1428.31	212
1429.66	220
1431.01	224
1432.36	222
1433.71	238
1435.06	242
1436.41	268
1437.76	266
1439.11	278
1440.46	270
1441.81	274
1443.15	292
1444.5	304
1445.85	326
1447.19	324
1448.54	328
1449.89	322
1451.23	320
1452.58	326
1453.92	288
1455.27	298
1456.61	284
1457.95	248
1459.3	206
1460.64	222
1461.98	212
1463.33	204
1464.67	198
1466.01	204
1467.35	178
1468.69	182
1470.03	198
1471.37	190
1472.71	186
1474.05	172
1475.39	188
1476.73	202
1478.07	184
1479.41	178
1480.75	190
1482.09	190
1483.42	174
1484.76	176
1486.1	184
1487.43	188
1488.77	172
1490.11	178
1491.44	172
1492.78	184
1494.11	166
1495.45	192
1496.78	162
1498.12	170
1499.45	172
1500.78	166
1502.11	170
1503.45	166
1504.78	162
1506.11	162
1507.44	166
1508.77	156
1510.11	160
1511.44	166
1512.77	164
1514.1	168
1515.43	170
1516.76	174
1518.08	166
1519.41	180
1520.74	176
1522.07	166
1523.4	170
1524.72	168
1526.05	154
1527.38	156
1528.7	158
1530.03	158
1531.36	156
1532.68	160
1534.01	160
1535.33	152
1536.66	162
1537.98	164
1539.3	158
1540.63	160
1541.95	170
1543.27	156
1544.6	146
1545.92	158
1547.24	162
1548.56	162
1549.88	168
1551.2	148
1552.52	162
1553.84	160
1555.17	160
1556.48	146
1557.8	162
1559.12	172
1560.44	164
1561.76	168
1563.08	162
1564.4	172
1565.71	166
1567.03	160
1568.35	180
1569.66	174
1570.98	182
1572.29	178
1573.61	178
1574.93	198
1576.24	220
1577.55	234
1578.87	266
1580.18	326
1581.5	376
1582.81	418
1584.12	400
1585.43	362
1586.75	290
1588.06	264
1589.37	248
1590.68	244
1591.99	252
1593.3	280
1594.61	316
1595.92	362
1597.23	434
1598.54	492
1599.85	630
1601.16	666
1602.47	714
1603.78	638
1605.08	534
1606.39	456
1607.7	364
1609	334
1610.31	270
1611.62	246
1612.92	224
1614.23	200
1615.53	192
1616.84	182
1618.14	176
1619.45	176
1620.75	166
1622.06	170
1623.36	172
1624.66	160
1625.96	158
1627.27	152
1628.57	160
1629.87	140
1631.17	152
1632.47	142
1633.77	150
1635.07	148
1636.37	158
1637.67	150
1638.97	150
1640.27	148
1641.57	152
1642.87	142
1644.17	158
1645.47	156
1646.76	160
1648.06	148
1649.36	150
1650.66	148
1651.95	146
1653.25	142
1654.54	146
1655.84	128
1657.13	134
1658.43	142
1659.72	136
1661.02	128
1662.31	116
1663.6	122
1664.9	130
1666.19	126
1667.48	126
1668.78	134
1670.07	128
1671.36	124
1672.65	130
1673.94	136
1675.23	128
1676.52	118
1677.81	126
1679.1	128
1680.39	122
1681.68	126
1682.97	126
1684.26	124
1685.55	114
1686.83	124
1688.12	122
1689.41	126
1690.7	122
1691.98	114
1693.27	128
1694.55	120
1695.84	114
1697.13	112
1698.41	124
1699.69	118
1700.98	116
1702.26	124