File: Jesse_Dataset_v2/Pure Raman/Polystyrene/785nm/ps-ppo-6jan25-1,0000-map3_Y06_X07.txt
204.377	832
206.045	824
207.713	874
209.38	870
211.048	862
212.715	896
214.381	920
216.047	878
217.712	908
219.377	930
221.042	914
222.706	882
224.369	854
226.032	852
227.695	820
229.357	774
231.019	740
232.68	680
234.341	596
236.001	574
237.661	562
239.321	496
240.98	472
242.639	408
244.297	370
245.955	368
247.612	352
249.268	324
250.924	300
252.58	306
254.236	296
255.891	270
257.546	264
259.2	282
260.854	262
262.507	264
264.16	262
265.812	266
267.463	252
269.115	246
270.766	256
272.417	242
274.067	242
275.717	246
277.365	224
279.014	228
280.663	224
282.311	214
283.958	216
285.605	202
287.252	196
288.898	192
290.543	186
292.188	178
293.833	172
295.477	172
297.121	168
298.765	164
300.407	170
302.05	168
303.693	180
305.334	176
306.975	164
308.615	168
310.256	162
311.896	172
313.535	170
315.175	158
316.813	170
318.451	174
320.089	178
321.726	166
323.362	166
324.999	184
326.635	174
328.271	170
329.905	172
331.54	160
333.174	166
334.807	174
336.441	170
338.074	168
339.707	166
341.338	154
342.969	160
344.601	150
346.231	164
347.861	158
349.491	158
351.12	156
352.749	148
354.378	144
356.006	150
357.633	154
359.261	154
360.887	162
362.513	146
364.139	152
365.764	154
367.39	152
369.014	160
370.638	148
372.261	158
373.884	146
375.508	152
377.13	170
378.752	176
380.373	178
381.994	180
383.615	172
385.235	182
386.854	192
388.473	178
390.092	190
391.711	182
393.328	182
394.947	186
396.564	192
398.181	208
399.797	202
401.412	214
403.027	222
404.642	234
406.257	236
407.871	228
409.484	220
411.098	220
412.711	194
414.323	212
415.935	186
417.547	168
419.158	176
420.768	164
422.378	184
423.988	168
425.597	166
427.206	156
428.814	162
430.422	148
432.03	156
433.637	144
435.243	136
436.85	128
438.456	132
440.062	136
441.666	142
443.271	136
444.876	126
446.479	138
448.082	130
449.685	130
451.287	128
452.89	122
454.492	118
456.092	110
457.693	110
459.293	102
460.893	118
462.492	112
464.092	102
465.691	112
467.288	112
468.887	108
470.483	104
472.081	104
473.677	104
475.273	102
476.869	108
478.463	94
480.059	104
481.653	100
483.247	100
484.84	100
486.433	96
488.026	100
489.618	100
491.21	106
492.801	98
494.392	104
495.983	104
497.573	114
499.162	110
500.752	102
502.341	108
503.929	106
505.517	118
507.105	110
508.692	106
510.279	98
511.865	110
513.45	114
515.037	106
516.621	100
518.206	108
519.79	114
521.374	110
522.957	120
524.54	110
526.123	114
527.705	120
529.287	110
530.868	136
532.448	134
534.029	140
535.609	144
537.188	138
538.768	148
540.346	154
541.925	142
543.502	148
545.08	142
546.657	136
548.234	142
549.81	154
551.386	136
552.961	136
554.536	142
556.11	138
557.684	146
559.258	146
560.832	142
562.405	140
563.977	138
565.55	136
567.12	126
568.692	146
570.263	130
571.833	140
573.403	148
574.973	144
576.542	140
578.111	122
579.679	120
581.247	118
582.815	112
584.382	110
585.948	110
587.514	110
589.081	116
590.645	114
592.211	102
593.775	104
595.339	110
596.904	116
598.466	118
600.03	128
601.592	122
603.154	118
604.715	132
606.277	144
607.838	156
609.398	146
610.958	152
612.518	156
614.077	192
615.636	224
617.194	338
618.753	540
620.31	722
621.867	680
623.424	446
624.98	284
626.537	206
628.092	166
629.647	146
631.202	132
632.756	124
634.31	110
635.864	112
637.417	108
638.969	100
640.521	94
642.074	100
643.625	92
645.176	90
646.726	82
648.276	86
649.827	82
651.376	76
652.925	78
654.473	80
656.021	76
657.569	78
659.117	82
660.664	78
662.21	74
663.757	80
665.302	82
666.847	74
668.392	90
669.937	80
671.481	76
673.025	80
674.568	82
676.111	82
677.653	70
679.195	88
680.737	76
682.279	78
683.82	78
685.36	78
686.9	88
688.44	74
689.979	82
691.517	80
693.056	70
694.594	82
696.132	82
697.669	82
699.206	98
700.742	90
702.278	102
703.814	106
705.35	108
706.884	92
708.419	104
709.953	90
711.487	100
713.019	98
714.552	96
716.085	100
717.617	98
719.148	112
720.68	114
722.21	138
723.741	150
725.271	150
726.8	142
728.33	132
729.858	130
731.387	128
732.915	122
734.443	138
735.97	142
737.497	160
739.023	174
740.549	180
742.075	192
743.6	180
745.125	204
746.65	178
748.173	194
749.697	192
751.22	210
752.743	206
754.266	216
755.788	218
757.309	232
758.831	234
760.351	242
761.871	242
763.392	240
764.912	212
766.431	230
767.95	198
769.468	210
770.986	206
772.504	196
774.022	194
775.538	192
777.055	194
778.571	212
780.086	214
781.602	224
783.117	242
784.632	266
786.146	286
787.659	284
789.173	306
790.685	318
792.198	348
793.71	346
795.222	348
796.733	330
798.244	342
799.755	316
801.265	274
802.775	242
804.284	214
805.793	216
807.302	184
808.81	186
810.318	184
811.826	176
813.333	156
814.84	136
816.346	136
817.851	136
819.357	124
820.862	112
822.367	114
823.871	112
825.376	112
826.878	116
828.382	118
829.885	116
831.387	116
832.889	124
834.391	130
835.892	130
837.392	140
838.893	144
840.393	160
841.893	156
843.392	156
844.891	154
846.389	142
847.888	138
849.386	128
850.882	132
852.38	130
853.876	122
855.372	128
856.868	134
858.363	136
859.858	122
861.353	126
862.847	128
864.341	136
865.834	126
867.328	132
868.82	130
870.313	128
871.805	124
873.296	128
874.787	122
876.278	126
877.769	110
879.258	124
880.748	120
882.237	112
883.726	114
885.214	120
886.702	116
888.19	114
889.677	108
891.164	114
892.651	118
894.137	102
895.623	120
897.108	120
898.593	124
900.077	120
901.562	144
903.046	138
904.529	144
906.012	144
907.495	150
908.977	130
910.459	136
911.941	132
913.422	132
914.903	112
916.383	110
917.863	106
919.343	108
920.822	102
922.301	102
923.779	100
925.257	102
926.735	92
928.213	96
929.69	92
931.166	92
932.643	98
934.119	96
935.594	102
937.069	96
938.543	94
940.018	98
941.492	104
942.966	98
944.439	106
945.911	106
947.384	96
948.856	100
950.328	98
951.799	106
953.27	106
954.741	110
956.21	100
957.68	122
959.15	114
960.619	114
962.088	120
963.556	126
965.023	132
966.491	130
967.958	130
969.425	134
970.891	134
972.357	136
973.824	134
975.288	138
976.754	156
978.218	176
979.682	176
981.146	196
982.609	216
984.072	274
985.534	272
986.997	308
988.459	418
989.92	612
991.382	802
992.842	824
994.302	804
995.763	856
997.222	1250
998.681	2048
1000.14	2944
1001.6	3380
1003.06	2854
1004.52	1942
1005.97	1166
1007.43	670
1008.89	454
1010.34	318
1011.8	252
1013.25	190
1014.71	194
1016.16	190
1017.62	192
1019.07	200
1020.53	210
1021.98	250
1023.43	306
1024.89	392
1026.34	500
1027.79	658
1029.24	774
1030.69	878
1032.14	898
1033.59	810
1035.04	676
1036.49	524
1037.94	416
1039.39	322
1040.84	262
1042.29	228
1043.73	212
1045.18	184
1046.63	178
1048.08	178
1049.52	168
1050.97	170
1052.41	148
1053.86	164
1055.3	142
1056.75	162
1058.19	156
1059.64	158
1061.08	154
1062.52	160
1063.96	166
1065.41	178
1066.85	166
1068.29	172
1069.73	182
1071.17	180
1072.61	172
1074.05	176
1075.49	164
1076.93	160
1078.37	178
1079.81	170
1081.25	176
1082.68	168
1084.12	150
1085.56	156
1087	164
1088.43	168
1089.87	158
1091.3	156
1092.74	168
1094.17	176
1095.61	162
1097.04	168
1098.48	172
1099.91	164
1101.34	166
1102.78	166
1104.21	148
1105.64	156
1107.07	144
1108.5	142
1109.93	140
1111.36	128
1112.8	130
1114.22	132
1115.65	124
1117.08	130
1118.51	112
1119.94	124
1121.37	116
1122.8	112
1124.22	112
1125.65	104
1127.08	112
1128.5	110
1129.93	102
1131.35	106
1132.78	100
1134.2	122
1135.63	116
1137.05	112
1138.48	124
1139.9	130
1141.32	136
1142.75	134
1144.17	144
1145.59	158
1147.01	180
1148.43	206
1149.85	216
1151.27	286
1152.69	366
1154.11	396
1155.53	414
1156.95	372
1158.37	346
1159.79	304
1161.21	250
1162.62	234
1164.04	218
1165.46	210
1166.87	206
1168.29	212
1169.71	224
1171.12	228
1172.54	238
1173.95	270
1175.37	324
1176.78	370
1178.19	410
1179.61	478
1181.02	514
1182.43	522
1183.84	496
1185.26	450
1186.67	466
1188.08	430
1189.49	432
1190.9	444
1192.31	484
1193.72	502
1195.13	516
1196.54	484
1197.95	500
1199.36	500
1200.76	490
1202.17	444
1203.58	436
1204.99	438
1206.39	390
1207.8	348
1209.2	308
1210.61	292
1212.01	274
1213.42	246
1214.82	226
1216.23	210
1217.63	226
1219.03	210
1220.44	212
1221.84	210
1223.24	188
1224.64	200
1226.05	186
1227.45	192
1228.85	192
1230.25	184
1231.65	192
1233.05	172
1234.45	184
1235.85	178
1237.25	176
1238.64	180
1240.04	182
1241.44	170
1242.84	172
1244.23	180
1245.63	172
1247.03	182
1248.42	156
1249.82	174
1251.21	174
1252.61	156
1254	162
1255.4	168
1256.79	172
1258.19	176
1259.58	172
1260.97	174
1262.36	164
1263.76	172
1265.15	168
1266.54	168
1267.93	182
1269.32	180
1270.71	178
1272.1	170
1273.49	166
1274.88	170
1276.27	176
1277.66	176
1279.05	176
1280.43	168
1281.82	186
1283.21	178
1284.6	178
1285.98	186
1287.37	178
1288.75	188
1290.14	198
1291.53	190
1292.91	204
1294.29	186
1295.68	208
1297.06	192
1298.45	200
1299.83	220
1301.21	228
1302.59	208
1303.98	226
1305.36	228
1306.74	222
1308.12	234
1309.5	236
1310.88	236
1312.26	246
1313.64	244
1315.02	252
1316.4	250
1317.78	260
1319.16	276
1320.53	268
1321.91	276
1323.29	282
1324.67	310
1326.04	298
1327.42	294
1328.79	316
1330.17	294
1331.54	304
1332.92	294
1334.29	304
1335.67	272
1337.04	286
1338.42	284
1339.79	288
1341.16	274
1342.53	288
1343.91	284
1345.28	276
1346.65	272
1348.02	272
1349.39	270
1350.76	268
1352.13	250
1353.5	264
1354.87	268
1356.24	272
1357.61	272
1358.98	288
1360.34	270
1361.71	274
1363.08	278
1364.45	280
1365.81	280
1367.18	284
1368.54	252
1369.91	288
1371.28	310
1372.64	286
1374.01	282
1375.37	282
1376.73	276
1378.1	270
1379.46	284
1380.82	276
1382.19	260
1383.55	260
1384.91	254
1386.27	256
1387.63	238
1388.99	252
1390.35	238
1391.71	256
1393.07	236
1394.43	232
1395.79	232
1397.15	234
1398.51	248
1399.87	230
1401.23	252
1402.58	218
1403.94	248
1405.3	240
1406.65	248
1408.01	230
1409.37	240
1410.72	226
1412.08	242
1413.43	226
1414.79	232
1416.14	226
1417.49	234
1418.85	218
1420.2	214
1421.55	232
1422.91	242
1424.26	234
1425.61	232
1426.96	222
1428.31	220
1429.66	224
1431.01	226
1432.36	242
1433.71	252
1435.06	254
1436.41	268
1437.76	272
1439.11	276
1440.46	288
1441.81	294
1443.15	292
1444.5	302
1445.85	344
1447.19	332
1448.54	342
1449.89	338
1451.23	344
1452.58	316
1453.92	310
1455.27	306
1456.61	276
1457.95	258
1459.3	226
1460.64	236
1461.98	222
1463.33	218
1464.67	214
1466.01	204
1467.35	192
1468.69	196
1470.03	196
1471.37	200
1472.71	186
1474.05	188
1475.39	194
1476.73	190
1478.07	194
1479.41	186
1480.75	190
1482.09	188
1483.42	178
1484.76	186
1486.1	186
1487.43	182
1488.77	174
1490.11	188
1491.44	184
1492.78	196
1494.11	194
1495.45	170
1496.78	174
1498.12	170
1499.45	170
1500.78	178
1502.11	180
1503.45	176
1504.78	166
1506.11	178
1507.44	156
1508.77	176
1510.11	164
1511.44	166
1512.77	162
1514.1	172
1515.43	178
1516.76	176
1518.08	176
1519.41	170
1520.74	170
1522.07	162
1523.4	174
1524.72	168
1526.05	168
1527.38	166
1528.7	176
1530.03	174
1531.36	166
1532.68	172
1534.01	180
1535.33	172
1536.66	174
1537.98	152
1539.3	166
1540.63	164
1541.95	162
1543.27	174
1544.6	154
1545.92	166
1547.24	166
1548.56	166
1549.88	154
1551.2	152
1552.52	160
1553.84	154
1555.17	166
1556.48	168
1557.8	172
1559.12	166
1560.44	180
1561.76	172
1563.08	176
1564.4	182
1565.71	178
1567.03	174
1568.35	172
1569.66	166
1570.98	190
1572.29	184
1573.61	194
1574.93	216
1576.24	226
1577.55	248
1578.87	282
1580.18	336
1581.5	406
1582.81	416
1584.12	414
1585.43	366
1586.75	310
1588.06	272
1589.37	232
1590.68	266
1591.99	252
1593.3	286
1594.61	322
1595.92	362
1597.23	446
1598.54	524
1599.85	608
1601.16	702
1602.47	692
1603.78	646
1605.08	584
1606.39	468
1607.7	394
1609	328
1610.31	274
1611.62	262
1612.92	230
1614.23	222
1615.53	190
1616.84	196
1618.14	180
1619.45	182
1620.75	174
1622.06	166
1623.36	158
1624.66	166
1625.96	158
1627.27	158
1628.57	172
1629.87	164
1631.17	154
1632.47	160
1633.77	148
1635.07	146
1636.37	154
1637.67	140
1638.97	138
1640.27	152
1641.57	156
1642.87	166
1644.17	148
1645.47	158
1646.76	158
1648.06	150
1649.36	166
1650.66	144
1651.95	132
1653.25	142
1654.54	148
1655.84	138
1657.13	140
1658.43	134
1659.72	138
1661.02	142
1662.31	134
1663.6	130
1664.9	132
1666.19	136
1667.48	138
1668.78	136
1670.07	130
1671.36	136
1672.65	124
1673.94	142
1675.23	128
1676.52	140
1677.81	132
1679.1	136
1680.39	112
1681.68	130
1682.97	120
1684.26	128
1685.55	122
1686.83	128
1688.12	132
1689.41	130
1690.7	132
1691.98	126
1693.27	126
1694.55	124
1695.84	124
1697.13	122
1698.41	124
1699.69	124
1700.98	108
1702.26	110