File: Jesse_Dataset_v2/Pure Raman/Polystyrene/785nm/ps-ppo-6jan25-1,0000-map3_Y01_X10.txt
204.377	838
206.045	858
207.713	870
209.38	908
211.048	906
212.715	888
214.381	918
216.047	890
217.712	934
219.377	896
221.042	884
222.706	868
224.369	882
226.032	866
227.695	814
229.357	772
231.019	734
232.68	688
234.341	640
236.001	596
237.661	548
239.321	496
240.98	454
242.639	406
244.297	372
245.955	364
247.612	332
249.268	312
250.924	308
252.58	288
254.236	280
255.891	294
257.546	284
259.2	264
260.854	262
262.507	266
264.16	268
265.812	246
267.463	268
269.115	258
270.766	256
272.417	240
274.067	242
275.717	232
277.365	228
279.014	232
280.663	224
282.311	218
283.958	202
285.605	196
287.252	192
288.898	188
290.543	192
292.188	180
293.833	156
295.477	178
297.121	172
298.765	168
300.407	168
302.05	156
303.693	150
305.334	166
306.975	166
308.615	164
310.256	168
311.896	178
313.535	172
315.175	166
316.813	164
318.451	168
320.089	182
321.726	162
323.362	168
324.999	176
326.635	160
328.271	180
329.905	176
331.54	174
333.174	172
334.807	168
336.441	160
338.074	154
339.707	160
341.338	172
342.969	162
344.601	158
346.231	158
347.861	154
349.491	144
351.12	144
352.749	148
354.378	162
356.006	150
357.633	142
359.261	156
360.887	150
362.513	144
364.139	152
365.764	134
367.39	152
369.014	138
370.638	150
372.261	148
373.884	164
375.508	164
377.13	168
378.752	156
380.373	166
381.994	164
383.615	168
385.235	176
386.854	170
388.473	186
390.092	182
391.711	192
393.328	186
394.947	194
396.564	194
398.181	190
399.797	204
401.412	230
403.027	212
404.642	238
406.257	242
407.871	232
409.484	222
411.098	208
412.711	202
414.323	194
415.935	194
417.547	170
419.158	178
420.768	158
422.378	172
423.988	150
425.597	164
427.206	154
428.814	138
430.422	140
432.03	136
433.637	136
435.243	136
436.85	148
438.456	146
440.062	138
441.666	136
443.271	130
444.876	128
446.479	122
448.082	120
449.685	130
451.287	110
452.89	114
454.492	118
456.092	104
457.693	98
459.293	98
460.893	106
462.492	102
464.092	98
465.691	102
467.288	102
468.887	108
470.483	108
472.081	104
473.677	108
475.273	92
476.869	106
478.463	106
480.059	100
481.653	102
483.247	102
484.84	102
486.433	102
488.026	98
489.618	102
491.21	100
492.801	92
494.392	98
495.983	98
497.573	98
499.162	104
500.752	104
502.341	112
503.929	108
505.517	114
507.105	102
508.692	104
510.279	104
511.865	112
513.45	108
515.037	106
516.621	108
518.206	104
519.79	114
521.374	106
522.957	122
524.54	110
526.123	114
527.705	118
529.287	116
530.868	112
532.448	116
534.029	124
535.609	134
537.188	142
538.768	126
540.346	140
541.925	152
543.502	156
545.08	140
546.657	140
548.234	152
549.81	140
551.386	132
552.961	140
554.536	132
556.11	140
557.684	138
559.258	122
560.832	136
562.405	136
563.977	124
565.55	138
567.12	126
568.692	126
570.263	142
571.833	140
573.403	140
574.973	144
576.542	142
578.111	118
579.679	116
581.247	106
582.815	116
584.382	104
585.948	112
587.514	114
589.081	106
590.645	106
592.211	112
593.775	104
595.339	104
596.904	116
598.466	114
600.03	108
601.592	122
603.154	110
604.715	132
606.277	136
607.838	152
609.398	148
610.958	152
612.518	152
614.077	192
615.636	236
617.194	330
618.753	506
620.31	724
621.867	694
623.424	476
624.98	282
626.537	206
628.092	174
629.647	144
631.202	138
632.756	126
634.31	98
635.864	108
637.417	94
638.969	98
640.521	98
642.074	86
643.625	88
645.176	84
646.726	80
648.276	72
649.827	86
651.376	82
652.925	78
654.473	80
656.021	76
657.569	90
659.117	72
660.664	80
662.21	78
663.757	76
665.302	74
666.847	78
668.392	84
669.937	80
671.481	72
673.025	74
674.568	82
676.111	76
677.653	86
679.195	78
680.737	80
682.279	80
683.82	72
685.36	82
686.9	76
688.44	78
689.979	84
691.517	82
693.056	82
694.594	84
696.132	82
697.669	86
699.206	88
700.742	106
702.278	98
703.814	98
705.35	88
706.884	88
708.419	78
709.953	86
711.487	94
713.019	96
714.552	94
716.085	90
717.617	104
719.148	110
720.68	124
722.21	136
723.741	144
725.271	152
726.8	144
728.33	138
729.858	116
731.387	122
732.915	122
734.443	138
735.97	150
737.497	156
739.023	172
740.549	180
742.075	180
743.6	182
745.125	196
746.65	188
748.173	190
749.697	198
751.22	200
752.743	208
754.266	214
755.788	224
757.309	228
758.831	236
760.351	240
761.871	228
763.392	228
764.912	232
766.431	224
767.95	206
769.468	196
770.986	202
772.504	206
774.022	200
775.538	200
777.055	194
778.571	204
780.086	214
781.602	218
783.117	248
784.632	248
786.146	268
787.659	290
789.173	316
790.685	316
792.198	336
793.71	346
795.222	360
796.733	358
798.244	344
799.755	292
801.265	274
802.775	262
804.284	236
805.793	210
807.302	192
808.81	182
810.318	178
811.826	174
813.333	160
814.84	152
816.346	138
817.851	136
819.357	124
820.862	118
822.367	112
823.871	106
825.376	112
826.878	114
828.382	106
829.885	110
831.387	116
832.889	116
834.391	132
835.892	144
837.392	136
838.893	146
840.393	146
841.893	156
843.392	154
844.891	152
846.389	150
847.888	136
849.386	140
850.882	134
852.38	136
853.876	132
855.372	138
856.868	130
858.363	122
859.858	120
861.353	130
862.847	128
864.341	126
865.834	124
867.328	130
868.82	128
870.313	122
871.805	116
873.296	130
874.787	126
876.278	110
877.769	130
879.258	122
880.748	108
882.237	118
883.726	114
885.214	108
886.702	108
888.19	116
889.677	116
891.164	116
892.651	102
894.137	108
895.623	112
897.108	118
898.593	130
900.077	128
901.562	138
903.046	142
904.529	148
906.012	150
907.495	144
908.977	134
910.459	128
911.941	130
913.422	126
914.903	110
916.383	106
917.863	106
919.343	92
920.822	98
922.301	96
923.779	108
925.257	106
926.735	92
928.213	98
929.69	98
931.166	98
932.643	100
934.119	90
935.594	96
937.069	92
938.543	94
940.018	96
941.492	110
942.966	104
944.439	92
945.911	104
947.384	96
948.856	102
950.328	100
951.799	104
953.27	100
954.741	98
956.21	92
957.68	106
959.15	112
960.619	118
962.088	124
963.556	120
965.023	134
966.491	122
967.958	118
969.425	118
970.891	118
972.357	134
973.824	136
975.288	150
976.754	156
978.218	180
979.682	176
981.146	206
982.609	228
984.072	254
985.534	276
986.997	330
988.459	408
989.92	586
991.382	792
992.842	860
994.302	786
995.763	854
997.222	1240
998.681	1942
1000.14	2880
1001.6	3326
1003.06	2854
1004.52	1956
1005.97	1168
1007.43	712
1008.89	458
1010.34	320
1011.8	248
1013.25	216
1014.71	190
1016.16	188
1017.62	188
1019.07	204
1020.53	224
1021.98	248
1023.43	310
1024.89	412
1026.34	484
1027.79	640
1029.24	756
1030.69	862
1032.14	884
1033.59	806
1035.04	686
1036.49	512
1037.94	416
1039.39	310
1040.84	246
1042.29	240
1043.73	214
1045.18	196
1046.63	190
1048.08	156
1049.52	172
1050.97	166
1052.41	160
1053.86	156
1055.3	154
1056.75	162
1058.19	154
1059.64	160
1061.08	160
1062.52	160
1063.96	166
1065.41	164
1066.85	166
1068.29	178
1069.73	188
1071.17	170
1072.61	176
1074.05	182
1075.49	168
1076.93	168
1078.37	166
1079.81	168
1081.25	172
1082.68	160
1084.12	172
1085.56	158
1087	166
1088.43	178
1089.87	154
1091.3	166
1092.74	164
1094.17	156
1095.61	182
1097.04	172
1098.48	168
1099.91	176
1101.34	164
1102.78	166
1104.21	158
1105.64	150
1107.07	152
1108.5	140
1109.93	132
1111.36	136
1112.8	138
1114.22	124
1115.65	124
1117.08	114
1118.51	118
1119.94	98
1121.37	104
1122.8	110
1124.22	118
1125.65	118
1127.08	112
1128.5	114
1129.93	104
1131.35	98
1132.78	124
1134.2	108
1135.63	106
1137.05	110
1138.48	126
1139.9	124
1141.32	130
1142.75	138
1144.17	146
1145.59	154
1147.01	182
1148.43	190
1149.85	224
1151.27	290
1152.69	372
1154.11	412
1155.53	422
1156.95	394
1158.37	342
1159.79	292
1161.21	264
1162.62	212
1164.04	216
1165.46	210
1166.87	204
1168.29	206
1169.71	206
1171.12	244
1172.54	232
1173.95	256
1175.37	294
1176.78	348
1178.19	428
1179.61	492
1181.02	496
1182.43	546
1183.84	502
1185.26	460
1186.67	448
1188.08	434
1189.49	448
1190.9	458
1192.31	486
1193.72	502
1195.13	512
1196.54	520
1197.95	514
1199.36	510
1200.76	496
1202.17	466
1203.58	422
1204.99	430
1206.39	396
1207.8	366
1209.2	322
1210.61	284
1212.01	262
1213.42	252
1214.82	232
1216.23	220
1217.63	220
1219.03	212
1220.44	212
1221.84	214
1223.24	198
1224.64	206
1226.05	196
1227.45	194
1228.85	184
1230.25	194
1231.65	190
1233.05	180
1234.45	176
1235.85	174
1237.25	168
1238.64	176
1240.04	162
1241.44	180
1242.84	188
1244.23	172
1245.63	166
1247.03	176
1248.42	166
1249.82	158
1251.21	168
1252.61	170
1254	168
1255.4	164
1256.79	170
1258.19	174
1259.58	164
1260.97	176
1262.36	176
1263.76	174
1265.15	170
1266.54	160
1267.93	178
1269.32	172
1270.71	176
1272.1	174
1273.49	184
1274.88	164
1276.27	174
1277.66	182
1279.05	164
1280.43	172
1281.82	176
1283.21	178
1284.6	192
1285.98	170
1287.37	180
1288.75	194
1290.14	194
1291.53	192
1292.91	192
1294.29	190
1295.68	202
1297.06	214
1298.45	204
1299.83	216
1301.21	210
1302.59	238
1303.98	228
1305.36	224
1306.74	226
1308.12	218
1309.5	238
1310.88	244
1312.26	236
1313.64	226
1315.02	244
1316.4	256
1317.78	242
1319.16	258
1320.53	284
1321.91	276
1323.29	302
1324.67	304
1326.04	294
1327.42	304
1328.79	298
1330.17	320
1331.54	306
1332.92	320
1334.29	306
1335.67	312
1337.04	296
1338.42	294
1339.79	284
1341.16	262
1342.53	268
1343.91	278
1345.28	288
1346.65	256
1348.02	264
1349.39	268
1350.76	256
1352.13	270
1353.5	270
1354.87	264
1356.24	268
1357.61	274
1358.98	276
1360.34	284
1361.71	276
1363.08	274
1364.45	290
1365.81	276
1367.18	286
1368.54	286
1369.91	274
1371.28	282
1372.64	300
1374.01	294
1375.37	264
1376.73	286
1378.1	278
1379.46	282
1380.82	256
1382.19	256
1383.55	278
1384.91	256
1386.27	252
1387.63	240
1388.99	252
1390.35	236
1391.71	234
1393.07	234
1394.43	250
1395.79	246
1397.15	250
1398.51	242
1399.87	250
1401.23	234
1402.58	236
1403.94	242
1405.3	222
1406.65	238
1408.01	240
1409.37	238
1410.72	228
1412.08	224
1413.43	232
1414.79	240
1416.14	234
1417.49	226
1418.85	230
1420.2	222
1421.55	218
1422.91	234
1424.26	216
1425.61	224
1426.96	226
1428.31	220
1429.66	230
1431.01	228
1432.36	236
1433.71	238
1435.06	268
1436.41	274
1437.76	276
1439.11	280
1440.46	284
1441.81	300
1443.15	324
1444.5	322
1445.85	330
1447.19	332
1448.54	356
1449.89	340
1451.23	346
1452.58	322
1453.92	318
1455.27	302
1456.61	256
1457.95	262
1459.3	246
1460.64	230
1461.98	222
1463.33	216
1464.67	206
1466.01	202
1467.35	196
1468.69	184
1470.03	192
1471.37	214
1472.71	196
1474.05	200
1475.39	190
1476.73	190
1478.07	190
1479.41	184
1480.75	186
1482.09	184
1483.42	186
1484.76	176
1486.1	200
1487.43	182
1488.77	188
1490.11	174
1491.44	192
1492.78	190
1494.11	188
1495.45	180
1496.78	178
1498.12	192
1499.45	178
1500.78	172
1502.11	174
1503.45	170
1504.78	172
1506.11	170
1507.44	154
1508.77	170
1510.11	164
1511.44	172
1512.77	162
1514.1	172
1515.43	180
1516.76	162
1518.08	178
1519.41	170
1520.74	178
1522.07	172
1523.4	166
1524.72	172
1526.05	172
1527.38	168
1528.7	166
1530.03	174
1531.36	170
1532.68	158
1534.01	160
1535.33	160
1536.66	162
1537.98	170
1539.3	164
1540.63	166
1541.95	172
1543.27	158
1544.6	166
1545.92	170
1547.24	166
1548.56	178
1549.88	166
1551.2	172
1552.52	162
1553.84	170
1555.17	158
1556.48	160
1557.8	160
1559.12	164
1560.44	170
1561.76	166
1563.08	170
1564.4	170
1565.71	172
1567.03	170
1568.35	176
1569.66	180
1570.98	194
1572.29	196
1573.61	206
1574.93	204
1576.24	220
1577.55	242
1578.87	270
1580.18	320
1581.5	390
1582.81	430
1584.12	394
1585.43	376
1586.75	294
1588.06	264
1589.37	238
1590.68	250
1591.99	258
1593.3	292
1594.61	312
1595.92	344
1597.23	422
1598.54	516
1599.85	644
1601.16	676
1602.47	692
1603.78	646
1605.08	544
1606.39	470
1607.7	384
1609	320
1610.31	280
1611.62	266
1612.92	228
1614.23	206
1615.53	198
1616.84	186
1618.14	188
1619.45	180
1620.75	190
1622.06	184
1623.36	170
1624.66	174
1625.96	170
1627.27	158
1628.57	160
1629.87	166
1631.17	156
1632.47	166
1633.77	148
1635.07	160
1636.37	156
1637.67	146
1638.97	146
1640.27	156
1641.57	144
1642.87	146
1644.17	170
1645.47	152
1646.76	142
1648.06	150
1649.36	156
1650.66	158
1651.95	140
1653.25	142
1654.54	140
1655.84	152
1657.13	132
1658.43	132
1659.72	138
1661.02	134
1662.31	134
1663.6	134
1664.9	136
1666.19	124
1667.48	140
1668.78	132
1670.07	134
1671.36	130
1672.65	128
1673.94	132
1675.23	134
1676.52	132
1677.81	132
1679.1	130
1680.39	126
1681.68	130
1682.97	132
1684.26	134
1685.55	120
1686.83	136
1688.12	128
1689.41	130
1690.7	134
1691.98	136
1693.27	132
1694.55	116
1695.84	128
1697.13	128
1698.41	136
1699.69	114
1700.98	108
1702.26	118