File: Jesse_Dataset_v2/Pure Raman/Polystyrene/785nm/ps-ppo-6jan25-1,0000-map3_Y08_X10.txt
204.377	852
206.045	854
207.713	856
209.38	866
211.048	890
212.715	912
214.381	930
216.047	912
217.712	924
219.377	916
221.042	932
222.706	880
224.369	842
226.032	848
227.695	826
229.357	776
231.019	720
232.68	674
234.341	646
236.001	574
237.661	540
239.321	494
240.98	424
242.639	402
244.297	380
245.955	356
247.612	346
249.268	324
250.924	326
252.58	298
254.236	278
255.891	296
257.546	268
259.2	296
260.854	278
262.507	274
264.16	272
265.812	256
267.463	258
269.115	248
270.766	252
272.417	248
274.067	242
275.717	240
277.365	234
279.014	220
280.663	218
282.311	214
283.958	198
285.605	204
287.252	200
288.898	198
290.543	190
292.188	190
293.833	178
295.477	176
297.121	176
298.765	168
300.407	172
302.05	158
303.693	182
305.334	164
306.975	178
308.615	178
310.256	184
311.896	174
313.535	166
315.175	170
316.813	176
318.451	180
320.089	178
321.726	152
323.362	166
324.999	176
326.635	166
328.271	176
329.905	168
331.54	170
333.174	174
334.807	156
336.441	164
338.074	160
339.707	162
341.338	172
342.969	166
344.601	160
346.231	160
347.861	152
349.491	156
351.12	168
352.749	154
354.378	152
356.006	150
357.633	158
359.261	140
360.887	150
362.513	156
364.139	144
365.764	140
367.39	150
369.014	152
370.638	160
372.261	164
373.884	148
375.508	152
377.13	170
378.752	162
380.373	180
381.994	174
383.615	174
385.235	178
386.854	184
388.473	200
390.092	202
391.711	190
393.328	200
394.947	192
396.564	202
398.181	200
399.797	208
401.412	216
403.027	232
404.642	238
406.257	238
407.871	224
409.484	220
411.098	210
412.711	214
414.323	196
415.935	190
417.547	190
419.158	162
420.768	164
422.378	170
423.988	144
425.597	170
427.206	160
428.814	148
430.422	152
432.03	148
433.637	142
435.243	152
436.85	140
438.456	132
440.062	132
441.666	136
443.271	142
444.876	138
446.479	140
448.082	122
449.685	130
451.287	124
452.89	110
454.492	112
456.092	118
457.693	106
459.293	112
460.893	114
462.492	102
464.092	98
465.691	108
467.288	96
468.887	112
470.483	112
472.081	104
473.677	100
475.273	104
476.869	108
478.463	98
480.059	104
481.653	104
483.247	102
484.84	102
486.433	94
488.026	96
489.618	106
491.21	104
492.801	106
494.392	102
495.983	106
497.573	104
499.162	100
500.752	112
502.341	108
503.929	114
505.517	116
507.105	114
508.692	110
510.279	104
511.865	114
513.45	90
515.037	112
516.621	104
518.206	112
519.79	108
521.374	112
522.957	122
524.54	120
526.123	110
527.705	122
529.287	130
530.868	134
532.448	134
534.029	142
535.609	136
537.188	138
538.768	164
540.346	152
541.925	148
543.502	162
545.08	142
546.657	150
548.234	144
549.81	140
551.386	148
552.961	126
554.536	136
556.11	136
557.684	138
559.258	134
560.832	140
562.405	128
563.977	138
565.55	136
567.12	124
568.692	130
570.263	146
571.833	140
573.403	132
574.973	140
576.542	140
578.111	120
579.679	122
581.247	114
582.815	122
584.382	116
585.948	120
587.514	110
589.081	110
590.645	114
592.211	116
593.775	106
595.339	100
596.904	114
598.466	118
600.03	120
601.592	112
603.154	126
604.715	132
606.277	140
607.838	160
609.398	144
610.958	160
612.518	168
614.077	200
615.636	222
617.194	322
618.753	530
620.31	720
621.867	680
623.424	468
624.98	282
626.537	206
628.092	164
629.647	152
631.202	136
632.756	114
634.31	112
635.864	110
637.417	88
638.969	94
640.521	104
642.074	88
643.625	86
645.176	88
646.726	88
648.276	80
649.827	84
651.376	80
652.925	78
654.473	84
656.021	76
657.569	84
659.117	84
660.664	84
662.21	78
663.757	80
665.302	74
666.847	84
668.392	84
669.937	78
671.481	72
673.025	74
674.568	76
676.111	68
677.653	72
679.195	86
680.737	76
682.279	84
683.82	74
685.36	76
686.9	78
688.44	76
689.979	86
691.517	80
693.056	78
694.594	82
696.132	78
697.669	90
699.206	90
700.742	98
702.278	98
703.814	96
705.35	100
706.884	98
708.419	94
709.953	102
711.487	92
713.019	96
714.552	96
716.085	102
717.617	104
719.148	108
720.68	128
722.21	134
723.741	144
725.271	158
726.8	136
728.33	134
729.858	128
731.387	134
732.915	122
734.443	130
735.97	148
737.497	164
739.023	174
740.549	190
742.075	192
743.6	180
745.125	190
746.65	198
748.173	190
749.697	202
751.22	198
752.743	200
754.266	228
755.788	216
757.309	232
758.831	232
760.351	232
761.871	230
763.392	218
764.912	218
766.431	218
767.95	200
769.468	218
770.986	206
772.504	206
774.022	194
775.538	210
777.055	202
778.571	194
780.086	214
781.602	240
783.117	250
784.632	260
786.146	280
787.659	290
789.173	304
790.685	312
792.198	324
793.71	332
795.222	358
796.733	350
798.244	336
799.755	310
801.265	282
802.775	250
804.284	218
805.793	198
807.302	194
808.81	172
810.318	190
811.826	172
813.333	156
814.84	154
816.346	132
817.851	138
819.357	128
820.862	114
822.367	120
823.871	108
825.376	112
826.878	122
828.382	114
829.885	112
831.387	114
832.889	120
834.391	120
835.892	134
837.392	146
838.893	152
840.393	154
841.893	162
843.392	164
844.891	162
846.389	146
847.888	142
849.386	134
850.882	132
852.38	134
853.876	128
855.372	126
856.868	120
858.363	126
859.858	116
861.353	122
862.847	124
864.341	122
865.834	130
867.328	120
868.82	132
870.313	128
871.805	124
873.296	122
874.787	118
876.278	126
877.769	120
879.258	124
880.748	114
882.237	106
883.726	112
885.214	102
886.702	110
888.19	120
889.677	104
891.164	118
892.651	110
894.137	114
895.623	126
897.108	120
898.593	132
900.077	136
901.562	128
903.046	142
904.529	138
906.012	138
907.495	144
908.977	144
910.459	134
911.941	132
913.422	126
914.903	124
916.383	108
917.863	116
919.343	106
920.822	104
922.301	106
923.779	90
925.257	100
926.735	96
928.213	108
929.69	98
931.166	90
932.643	106
934.119	102
935.594	92
937.069	96
938.543	104
940.018	104
941.492	100
942.966	106
944.439	104
945.911	102
947.384	98
948.856	106
950.328	116
951.799	100
953.27	110
954.741	112
956.21	106
957.68	112
959.15	104
960.619	118
962.088	106
963.556	126
965.023	124
966.491	134
967.958	122
969.425	134
970.891	124
972.357	126
973.824	134
975.288	134
976.754	152
978.218	170
979.682	188
981.146	204
982.609	224
984.072	256
985.534	280
986.997	332
988.459	428
989.92	612
991.382	794
992.842	880
994.302	820
995.763	890
997.222	1260
998.681	1972
1000.14	2938
1001.6	3328
1003.06	2794
1004.52	1886
1005.97	1212
1007.43	656
1008.89	446
1010.34	298
1011.8	260
1013.25	192
1014.71	188
1016.16	180
1017.62	178
1019.07	196
1020.53	224
1021.98	250
1023.43	296
1024.89	394
1026.34	514
1027.79	650
1029.24	760
1030.69	862
1032.14	890
1033.59	846
1035.04	668
1036.49	536
1037.94	408
1039.39	328
1040.84	252
1042.29	220
1043.73	206
1045.18	184
1046.63	182
1048.08	174
1049.52	166
1050.97	148
1052.41	146
1053.86	158
1055.3	156
1056.75	160
1058.19	146
1059.64	168
1061.08	166
1062.52	158
1063.96	166
1065.41	164
1066.85	166
1068.29	172
1069.73	192
1071.17	178
1072.61	182
1074.05	182
1075.49	172
1076.93	166
1078.37	174
1079.81	168
1081.25	176
1082.68	166
1084.12	168
1085.56	162
1087	172
1088.43	166
1089.87	168
1091.3	170
1092.74	176
1094.17	162
1095.61	160
1097.04	180
1098.48	158
1099.91	164
1101.34	172
1102.78	160
1104.21	158
1105.64	150
1107.07	136
1108.5	152
1109.93	146
1111.36	126
1112.8	136
1114.22	132
1115.65	120
1117.08	116
1118.51	120
1119.94	118
1121.37	106
1122.8	110
1124.22	116
1125.65	120
1127.08	116
1128.5	112
1129.93	120
1131.35	100
1132.78	120
1134.2	104
1135.63	120
1137.05	120
1138.48	120
1139.9	134
1141.32	124
1142.75	144
1144.17	156
1145.59	166
1147.01	180
1148.43	198
1149.85	222
1151.27	292
1152.69	380
1154.11	414
1155.53	406
1156.95	404
1158.37	336
1159.79	284
1161.21	256
1162.62	228
1164.04	214
1165.46	204
1166.87	202
1168.29	224
1169.71	224
1171.12	236
1172.54	258
1173.95	272
1175.37	304
1176.78	358
1178.19	448
1179.61	498
1181.02	526
1182.43	522
1183.84	510
1185.26	462
1186.67	450
1188.08	424
1189.49	434
1190.9	454
1192.31	490
1193.72	494
1195.13	530
1196.54	526
1197.95	512
1199.36	502
1200.76	484
1202.17	434
1203.58	452
1204.99	396
1206.39	394
1207.8	356
1209.2	310
1210.61	290
1212.01	278
1213.42	248
1214.82	252
1216.23	226
1217.63	222
1219.03	206
1220.44	214
1221.84	192
1223.24	208
1224.64	200
1226.05	214
1227.45	196
1228.85	176
1230.25	194
1231.65	174
1233.05	190
1234.45	172
1235.85	182
1237.25	172
1238.64	180
1240.04	170
1241.44	188
1242.84	184
1244.23	176
1245.63	178
1247.03	176
1248.42	176
1249.82	168
1251.21	180
1252.61	170
1254	168
1255.4	186
1256.79	174
1258.19	180
1259.58	166
1260.97	160
1262.36	166
1263.76	164
1265.15	172
1266.54	176
1267.93	176
1269.32	176
1270.71	168
1272.1	172
1273.49	174
1274.88	178
1276.27	170
1277.66	184
1279.05	176
1280.43	174
1281.82	182
1283.21	178
1284.6	186
1285.98	188
1287.37	190
1288.75	194
1290.14	198
1291.53	196
1292.91	204
1294.29	200
1295.68	196
1297.06	208
1298.45	210
1299.83	222
1301.21	222
1302.59	216
1303.98	222
1305.36	226
1306.74	234
1308.12	240
1309.5	234
1310.88	246
1312.26	250
1313.64	234
1315.02	260
1316.4	254
1317.78	270
1319.16	278
1320.53	260
1321.91	290
1323.29	298
1324.67	288
1326.04	296
1327.42	286
1328.79	312
1330.17	304
1331.54	306
1332.92	310
1334.29	306
1335.67	300
1337.04	284
1338.42	308
1339.79	290
1341.16	298
1342.53	278
1343.91	278
1345.28	272
1346.65	288
1348.02	280
1349.39	278
1350.76	276
1352.13	290
1353.5	286
1354.87	278
1356.24	294
1357.61	278
1358.98	286
1360.34	286
1361.71	296
1363.08	286
1364.45	290
1365.81	282
1367.18	286
1368.54	300
1369.91	304
1371.28	302
1372.64	312
1374.01	304
1375.37	306
1376.73	286
1378.1	282
1379.46	276
1380.82	298
1382.19	284
1383.55	274
1384.91	258
1386.27	266
1387.63	268
1388.99	252
1390.35	264
1391.71	248
1393.07	250
1394.43	232
1395.79	244
1397.15	252
1398.51	240
1399.87	248
1401.23	246
1402.58	258
1403.94	258
1405.3	242
1406.65	246
1408.01	226
1409.37	240
1410.72	248
1412.08	238
1413.43	252
1414.79	242
1416.14	216
1417.49	212
1418.85	228
1420.2	230
1421.55	224
1422.91	226
1424.26	248
1425.61	232
1426.96	230
1428.31	232
1429.66	218
1431.01	262
1432.36	244
1433.71	256
1435.06	280
1436.41	282
1437.76	276
1439.11	288
1440.46	304
1441.81	298
1443.15	316
1444.5	298
1445.85	326
1447.19	340
1448.54	352
1449.89	344
1451.23	322
1452.58	316
1453.92	338
1455.27	300
1456.61	288
1457.95	250
1459.3	242
1460.64	234
1461.98	232
1463.33	232
1464.67	212
1466.01	194
1467.35	206
1468.69	204
1470.03	204
1471.37	206
1472.71	196
1474.05	210
1475.39	198
1476.73	202
1478.07	186
1479.41	190
1480.75	186
1482.09	190
1483.42	190
1484.76	184
1486.1	180
1487.43	196
1488.77	184
1490.11	178
1491.44	198
1492.78	210
1494.11	192
1495.45	188
1496.78	168
1498.12	190
1499.45	186
1500.78	184
1502.11	172
1503.45	178
1504.78	180
1506.11	168
1507.44	172
1508.77	178
1510.11	180
1511.44	172
1512.77	174
1514.1	174
1515.43	162
1516.76	172
1518.08	182
1519.41	180
1520.74	168
1522.07	166
1523.4	168
1524.72	158
1526.05	170
1527.38	156
1528.7	168
1530.03	174
1531.36	178
1532.68	170
1534.01	176
1535.33	178
1536.66	178
1537.98	178
1539.3	178
1540.63	168
1541.95	164
1543.27	182
1544.6	170
1545.92	178
1547.24	174
1548.56	170
1549.88	170
1551.2	180
1552.52	172
1553.84	176
1555.17	182
1556.48	168
1557.8	168
1559.12	172
1560.44	162
1561.76	174
1563.08	168
1564.4	184
1565.71	190
1567.03	168
1568.35	182
1569.66	192
1570.98	204
1572.29	204
1573.61	204
1574.93	218
1576.24	222
1577.55	238
1578.87	272
1580.18	342
1581.5	388
1582.81	412
1584.12	406
1585.43	366
1586.75	296
1588.06	282
1589.37	262
1590.68	252
1591.99	256
1593.3	298
1594.61	304
1595.92	378
1597.23	432
1598.54	542
1599.85	624
1601.16	696
1602.47	690
1603.78	652
1605.08	548
1606.39	456
1607.7	386
1609	334
1610.31	296
1611.62	246
1612.92	238
1614.23	212
1615.53	206
1616.84	194
1618.14	204
1619.45	186
1620.75	166
1622.06	184
1623.36	174
1624.66	180
1625.96	174
1627.27	170
1628.57	166
1629.87	160
1631.17	162
1632.47	166
1633.77	140
1635.07	152
1636.37	152
1637.67	150
1638.97	144
1640.27	146
1641.57	154
1642.87	158
1644.17	158
1645.47	156
1646.76	160
1648.06	158
1649.36	158
1650.66	148
1651.95	144
1653.25	156
1654.54	138
1655.84	136
1657.13	142
1658.43	138
1659.72	140
1661.02	146
1662.31	158
1663.6	146
1664.9	138
1666.19	128
1667.48	140
1668.78	140
1670.07	148
1671.36	142
1672.65	144
1673.94	132
1675.23	134
1676.52	140
1677.81	140
1679.1	124
1680.39	124
1681.68	122
1682.97	132
1684.26	138
1685.55	138
1686.83	138
1688.12	136
1689.41	132
1690.7	124
1691.98	116
1693.27	124
1694.55	130
1695.84	128
1697.13	126
1698.41	128
1699.69	126
1700.98	132
1702.26	134