File: Jesse_Dataset_v2/Pure Raman/Polystyrene/785nm/ps-ppo-6jan25-1,0000-map3_Y07_X09.txt
204.377	868
206.045	886
207.713	874
209.38	888
211.048	900
212.715	908
214.381	916
216.047	908
217.712	914
219.377	898
221.042	910
222.706	902
224.369	870
226.032	842
227.695	828
229.357	764
231.019	742
232.68	714
234.341	652
236.001	582
237.661	538
239.321	498
240.98	484
242.639	414
244.297	394
245.955	360
247.612	350
249.268	326
250.924	326
252.58	312
254.236	292
255.891	294
257.546	282
259.2	268
260.854	278
262.507	284
264.16	284
265.812	268
267.463	270
269.115	248
270.766	236
272.417	248
274.067	258
275.717	238
277.365	256
279.014	246
280.663	220
282.311	214
283.958	228
285.605	214
287.252	206
288.898	212
290.543	196
292.188	186
293.833	192
295.477	176
297.121	170
298.765	192
300.407	180
302.05	178
303.693	168
305.334	182
306.975	162
308.615	182
310.256	156
311.896	174
313.535	168
315.175	182
316.813	170
318.451	174
320.089	174
321.726	182
323.362	186
324.999	172
326.635	168
328.271	180
329.905	174
331.54	180
333.174	178
334.807	168
336.441	174
338.074	164
339.707	166
341.338	168
342.969	172
344.601	162
346.231	168
347.861	162
349.491	164
351.12	150
352.749	162
354.378	160
356.006	150
357.633	140
359.261	158
360.887	160
362.513	160
364.139	164
365.764	164
367.39	170
369.014	154
370.638	166
372.261	168
373.884	162
375.508	160
377.13	168
378.752	188
380.373	170
381.994	170
383.615	180
385.235	188
386.854	184
388.473	200
390.092	196
391.711	196
393.328	202
394.947	192
396.564	196
398.181	198
399.797	216
401.412	222
403.027	234
404.642	244
406.257	232
407.871	228
409.484	228
411.098	208
412.711	206
414.323	210
415.935	194
417.547	182
419.158	172
420.768	172
422.378	162
423.988	172
425.597	162
427.206	164
428.814	158
430.422	150
432.03	150
433.637	148
435.243	146
436.85	136
438.456	146
440.062	140
441.666	142
443.271	136
444.876	132
446.479	130
448.082	134
449.685	134
451.287	134
452.89	118
454.492	126
456.092	120
457.693	118
459.293	118
460.893	116
462.492	112
464.092	108
465.691	108
467.288	116
468.887	114
470.483	112
472.081	100
473.677	110
475.273	106
476.869	112
478.463	104
480.059	112
481.653	100
483.247	100
484.84	112
486.433	106
488.026	98
489.618	110
491.21	106
492.801	110
494.392	108
495.983	100
497.573	114
499.162	108
500.752	108
502.341	106
503.929	112
505.517	122
507.105	112
508.692	106
510.279	116
511.865	108
513.45	110
515.037	112
516.621	124
518.206	114
519.79	120
521.374	124
522.957	110
524.54	120
526.123	120
527.705	128
529.287	126
530.868	130
532.448	134
534.029	144
535.609	152
537.188	152
538.768	144
540.346	154
541.925	160
543.502	154
545.08	146
546.657	152
548.234	138
549.81	144
551.386	144
552.961	138
554.536	160
556.11	148
557.684	144
559.258	148
560.832	132
562.405	126
563.977	142
565.55	144
567.12	148
568.692	136
570.263	144
571.833	156
573.403	138
574.973	150
576.542	146
578.111	136
579.679	128
581.247	124
582.815	110
584.382	118
585.948	116
587.514	114
589.081	112
590.645	112
592.211	112
593.775	118
595.339	106
596.904	122
598.466	108
600.03	124
601.592	126
603.154	124
604.715	132
606.277	152
607.838	160
609.398	150
610.958	152
612.518	162
614.077	194
615.636	236
617.194	324
618.753	534
620.31	702
621.867	676
623.424	446
624.98	282
626.537	202
628.092	154
629.647	146
631.202	146
632.756	132
634.31	108
635.864	108
637.417	108
638.969	104
640.521	94
642.074	92
643.625	94
645.176	86
646.726	88
648.276	88
649.827	86
651.376	90
652.925	88
654.473	86
656.021	88
657.569	80
659.117	82
660.664	76
662.21	86
663.757	80
665.302	74
666.847	78
668.392	80
669.937	88
671.481	76
673.025	78
674.568	68
676.111	78
677.653	82
679.195	80
680.737	82
682.279	80
683.82	78
685.36	86
686.9	78
688.44	84
689.979	76
691.517	80
693.056	92
694.594	76
696.132	88
697.669	100
699.206	98
700.742	108
702.278	98
703.814	110
705.35	112
706.884	106
708.419	98
709.953	108
711.487	96
713.019	92
714.552	98
716.085	108
717.617	94
719.148	112
720.68	126
722.21	138
723.741	148
725.271	158
726.8	150
728.33	124
729.858	124
731.387	126
732.915	132
734.443	138
735.97	146
737.497	168
739.023	180
740.549	190
742.075	192
743.6	204
745.125	188
746.65	194
748.173	200
749.697	204
751.22	214
752.743	198
754.266	212
755.788	234
757.309	238
758.831	238
760.351	226
761.871	228
763.392	236
764.912	234
766.431	220
767.95	212
769.468	208
770.986	196
772.504	202
774.022	200
775.538	204
777.055	202
778.571	210
780.086	208
781.602	228
783.117	250
784.632	258
786.146	282
787.659	284
789.173	302
790.685	318
792.198	338
793.71	354
795.222	352
796.733	352
798.244	332
799.755	300
801.265	278
802.775	248
804.284	238
805.793	206
807.302	196
808.81	188
810.318	192
811.826	170
813.333	170
814.84	158
816.346	150
817.851	134
819.357	132
820.862	120
822.367	118
823.871	112
825.376	104
826.878	116
828.382	120
829.885	124
831.387	118
832.889	132
834.391	136
835.892	140
837.392	150
838.893	152
840.393	178
841.893	164
843.392	152
844.891	160
846.389	162
847.888	140
849.386	150
850.882	130
852.38	136
853.876	130
855.372	130
856.868	130
858.363	132
859.858	126
861.353	126
862.847	128
864.341	126
865.834	114
867.328	126
868.82	132
870.313	128
871.805	130
873.296	134
874.787	130
876.278	126
877.769	126
879.258	120
880.748	112
882.237	114
883.726	122
885.214	110
886.702	112
888.19	112
889.677	110
891.164	118
892.651	124
894.137	110
895.623	110
897.108	126
898.593	126
900.077	132
901.562	134
903.046	152
904.529	144
906.012	150
907.495	158
908.977	152
910.459	140
911.941	124
913.422	126
914.903	118
916.383	114
917.863	112
919.343	106
920.822	108
922.301	98
923.779	104
925.257	102
926.735	104
928.213	96
929.69	94
931.166	100
932.643	100
934.119	104
935.594	100
937.069	98
938.543	100
940.018	92
941.492	108
942.966	106
944.439	108
945.911	110
947.384	104
948.856	102
950.328	102
951.799	102
953.27	114
954.741	114
956.21	106
957.68	102
959.15	114
960.619	118
962.088	126
963.556	120
965.023	128
966.491	126
967.958	124
969.425	122
970.891	126
972.357	124
973.824	124
975.288	136
976.754	154
978.218	180
979.682	196
981.146	188
982.609	234
984.072	258
985.534	282
986.997	336
988.459	424
989.92	592
991.382	806
992.842	884
994.302	784
995.763	882
997.222	1272
998.681	2044
1000.14	2942
1001.6	3334
1003.06	2872
1004.52	1930
1005.97	1170
1007.43	714
1008.89	464
1010.34	328
1011.8	242
1013.25	224
1014.71	198
1016.16	184
1017.62	194
1019.07	206
1020.53	216
1021.98	272
1023.43	296
1024.89	394
1026.34	496
1027.79	632
1029.24	766
1030.69	890
1032.14	898
1033.59	804
1035.04	698
1036.49	518
1037.94	402
1039.39	330
1040.84	268
1042.29	224
1043.73	216
1045.18	196
1046.63	168
1048.08	176
1049.52	162
1050.97	160
1052.41	168
1053.86	154
1055.3	156
1056.75	162
1058.19	144
1059.64	162
1061.08	166
1062.52	160
1063.96	170
1065.41	174
1066.85	172
1068.29	168
1069.73	172
1071.17	188
1072.61	186
1074.05	186
1075.49	170
1076.93	170
1078.37	168
1079.81	176
1081.25	176
1082.68	166
1084.12	174
1085.56	170
1087	162
1088.43	174
1089.87	178
1091.3	174
1092.74	172
1094.17	174
1095.61	158
1097.04	174
1098.48	176
1099.91	164
1101.34	172
1102.78	160
1104.21	166
1105.64	154
1107.07	148
1108.5	154
1109.93	140
1111.36	130
1112.8	120
1114.22	130
1115.65	118
1117.08	132
1118.51	116
1119.94	122
1121.37	116
1122.8	102
1124.22	104
1125.65	98
1127.08	106
1128.5	102
1129.93	104
1131.35	116
1132.78	114
1134.2	110
1135.63	122
1137.05	122
1138.48	128
1139.9	136
1141.32	144
1142.75	148
1144.17	144
1145.59	162
1147.01	172
1148.43	200
1149.85	232
1151.27	300
1152.69	354
1154.11	424
1155.53	412
1156.95	404
1158.37	332
1159.79	298
1161.21	272
1162.62	238
1164.04	222
1165.46	218
1166.87	208
1168.29	208
1169.71	222
1171.12	250
1172.54	238
1173.95	276
1175.37	304
1176.78	352
1178.19	414
1179.61	492
1181.02	530
1182.43	522
1183.84	504
1185.26	478
1186.67	454
1188.08	424
1189.49	432
1190.9	478
1192.31	464
1193.72	498
1195.13	506
1196.54	518
1197.95	500
1199.36	498
1200.76	488
1202.17	484
1203.58	468
1204.99	418
1206.39	388
1207.8	344
1209.2	330
1210.61	290
1212.01	276
1213.42	264
1214.82	228
1216.23	236
1217.63	224
1219.03	220
1220.44	204
1221.84	216
1223.24	200
1224.64	194
1226.05	194
1227.45	206
1228.85	194
1230.25	188
1231.65	188
1233.05	188
1234.45	172
1235.85	174
1237.25	172
1238.64	182
1240.04	170
1241.44	184
1242.84	158
1244.23	176
1245.63	164
1247.03	186
1248.42	182
1249.82	178
1251.21	168
1252.61	178
1254	168
1255.4	170
1256.79	178
1258.19	186
1259.58	172
1260.97	174
1262.36	172
1263.76	176
1265.15	168
1266.54	164
1267.93	180
1269.32	166
1270.71	180
1272.1	176
1273.49	170
1274.88	168
1276.27	174
1277.66	180
1279.05	178
1280.43	178
1281.82	176
1283.21	180
1284.6	186
1285.98	176
1287.37	190
1288.75	196
1290.14	194
1291.53	194
1292.91	196
1294.29	212
1295.68	204
1297.06	214
1298.45	210
1299.83	220
1301.21	216
1302.59	210
1303.98	226
1305.36	224
1306.74	228
1308.12	228
1309.5	244
1310.88	238
1312.26	240
1313.64	244
1315.02	258
1316.4	250
1317.78	272
1319.16	284
1320.53	276
1321.91	290
1323.29	288
1324.67	304
1326.04	280
1327.42	294
1328.79	302
1330.17	314
1331.54	296
1332.92	302
1334.29	300
1335.67	324
1337.04	296
1338.42	304
1339.79	288
1341.16	276
1342.53	286
1343.91	282
1345.28	288
1346.65	284
1348.02	278
1349.39	272
1350.76	276
1352.13	262
1353.5	264
1354.87	284
1356.24	254
1357.61	292
1358.98	276
1360.34	292
1361.71	282
1363.08	282
1364.45	286
1365.81	286
1367.18	286
1368.54	302
1369.91	306
1371.28	280
1372.64	298
1374.01	302
1375.37	290
1376.73	294
1378.1	288
1379.46	280
1380.82	286
1382.19	274
1383.55	282
1384.91	270
1386.27	276
1387.63	252
1388.99	250
1390.35	250
1391.71	262
1393.07	238
1394.43	234
1395.79	246
1397.15	252
1398.51	250
1399.87	232
1401.23	244
1402.58	252
1403.94	248
1405.3	248
1406.65	244
1408.01	238
1409.37	232
1410.72	236
1412.08	234
1413.43	230
1414.79	240
1416.14	232
1417.49	234
1418.85	232
1420.2	234
1421.55	232
1422.91	230
1424.26	242
1425.61	220
1426.96	228
1428.31	246
1429.66	244
1431.01	238
1432.36	250
1433.71	238
1435.06	250
1436.41	250
1437.76	274
1439.11	300
1440.46	298
1441.81	296
1443.15	320
1444.5	296
1445.85	312
1447.19	350
1448.54	348
1449.89	330
1451.23	336
1452.58	320
1453.92	322
1455.27	286
1456.61	280
1457.95	260
1459.3	236
1460.64	240
1461.98	226
1463.33	216
1464.67	214
1466.01	206
1467.35	214
1468.69	200
1470.03	216
1471.37	214
1472.71	180
1474.05	198
1475.39	198
1476.73	190
1478.07	188
1479.41	200
1480.75	178
1482.09	178
1483.42	192
1484.76	196
1486.1	184
1487.43	200
1488.77	192
1490.11	188
1491.44	208
1492.78	194
1494.11	208
1495.45	198
1496.78	200
1498.12	196
1499.45	196
1500.78	186
1502.11	176
1503.45	178
1504.78	172
1506.11	188
1507.44	164
1508.77	178
1510.11	190
1511.44	186
1512.77	194
1514.1	170
1515.43	178
1516.76	162
1518.08	178
1519.41	178
1520.74	186
1522.07	182
1523.4	190
1524.72	172
1526.05	172
1527.38	172
1528.7	172
1530.03	182
1531.36	180
1532.68	174
1534.01	174
1535.33	170
1536.66	164
1537.98	160
1539.3	180
1540.63	170
1541.95	172
1543.27	174
1544.6	160
1545.92	170
1547.24	180
1548.56	168
1549.88	168
1551.2	168
1552.52	170
1553.84	166
1555.17	178
1556.48	174
1557.8	178
1559.12	176
1560.44	154
1561.76	178
1563.08	166
1564.4	176
1565.71	172
1567.03	176
1568.35	190
1569.66	190
1570.98	182
1572.29	202
1573.61	202
1574.93	232
1576.24	226
1577.55	262
1578.87	286
1580.18	328
1581.5	398
1582.81	416
1584.12	406
1585.43	362
1586.75	306
1588.06	282
1589.37	252
1590.68	258
1591.99	244
1593.3	292
1594.61	306
1595.92	380
1597.23	432
1598.54	556
1599.85	638
1601.16	690
1602.47	698
1603.78	648
1605.08	574
1606.39	460
1607.7	394
1609	334
1610.31	286
1611.62	256
1612.92	238
1614.23	214
1615.53	184
1616.84	190
1618.14	186
1619.45	184
1620.75	172
1622.06	176
1623.36	174
1624.66	170
1625.96	166
1627.27	160
1628.57	150
1629.87	166
1631.17	162
1632.47	158
1633.77	152
1635.07	146
1636.37	156
1637.67	156
1638.97	156
1640.27	158
1641.57	154
1642.87	158
1644.17	170
1645.47	170
1646.76	164
1648.06	162
1649.36	160
1650.66	158
1651.95	146
1653.25	152
1654.54	144
1655.84	140
1657.13	144
1658.43	144
1659.72	144
1661.02	144
1662.31	138
1663.6	138
1664.9	150
1666.19	138
1667.48	142
1668.78	148
1670.07	136
1671.36	142
1672.65	132
1673.94	142
1675.23	132
1676.52	134
1677.81	140
1679.1	136
1680.39	138
1681.68	144
1682.97	130
1684.26	120
1685.55	130
1686.83	128
1688.12	138
1689.41	130
1690.7	126
1691.98	132
1693.27	134
1694.55	126
1695.84	128
1697.13	130
1698.41	132
1699.69	120
1700.98	132
1702.26	126