File: Jesse_Dataset_v2/Pure Raman/Polystyrene/785nm/ps-ppo-6jan25-1,0000-map3_Y04_X00.txt
204.377	808
206.045	852
207.713	854
209.38	888
211.048	906
212.715	884
214.381	932
216.047	918
217.712	930
219.377	908
221.042	918
222.706	884
224.369	886
226.032	822
227.695	808
229.357	764
231.019	704
232.68	668
234.341	618
236.001	596
237.661	560
239.321	518
240.98	450
242.639	414
244.297	378
245.955	352
247.612	336
249.268	308
250.924	286
252.58	298
254.236	282
255.891	286
257.546	292
259.2	268
260.854	268
262.507	254
264.16	254
265.812	244
267.463	244
269.115	248
270.766	236
272.417	240
274.067	230
275.717	214
277.365	226
279.014	218
280.663	218
282.311	216
283.958	218
285.605	208
287.252	206
288.898	196
290.543	174
292.188	180
293.833	178
295.477	170
297.121	176
298.765	176
300.407	162
302.05	158
303.693	174
305.334	160
306.975	162
308.615	164
310.256	166
311.896	174
313.535	174
315.175	172
316.813	158
318.451	168
320.089	168
321.726	154
323.362	162
324.999	160
326.635	162
328.271	172
329.905	166
331.54	160
333.174	162
334.807	166
336.441	166
338.074	176
339.707	156
341.338	162
342.969	144
344.601	140
346.231	142
347.861	152
349.491	148
351.12	152
352.749	144
354.378	150
356.006	136
357.633	132
359.261	152
360.887	148
362.513	152
364.139	138
365.764	148
367.39	154
369.014	140
370.638	156
372.261	150
373.884	158
375.508	146
377.13	166
378.752	154
380.373	168
381.994	168
383.615	170
385.235	162
386.854	178
388.473	168
390.092	186
391.711	178
393.328	178
394.947	198
396.564	186
398.181	188
399.797	200
401.412	216
403.027	208
404.642	214
406.257	220
407.871	232
409.484	228
411.098	210
412.711	216
414.323	186
415.935	186
417.547	168
419.158	176
420.768	174
422.378	170
423.988	150
425.597	150
427.206	138
428.814	158
430.422	144
432.03	136
433.637	142
435.243	138
436.85	140
438.456	128
440.062	130
441.666	144
443.271	126
444.876	134
446.479	120
448.082	110
449.685	122
451.287	118
452.89	120
454.492	110
456.092	102
457.693	108
459.293	112
460.893	118
462.492	98
464.092	102
465.691	100
467.288	100
468.887	102
470.483	98
472.081	100
473.677	104
475.273	106
476.869	106
478.463	104
480.059	96
481.653	102
483.247	92
484.84	98
486.433	100
488.026	92
489.618	90
491.21	100
492.801	92
494.392	96
495.983	92
497.573	94
499.162	108
500.752	108
502.341	106
503.929	116
505.517	106
507.105	112
508.692	106
510.279	92
511.865	108
513.45	106
515.037	100
516.621	102
518.206	110
519.79	106
521.374	94
522.957	110
524.54	120
526.123	112
527.705	122
529.287	122
530.868	114
532.448	126
534.029	136
535.609	132
537.188	136
538.768	156
540.346	126
541.925	142
543.502	140
545.08	148
546.657	142
548.234	140
549.81	136
551.386	136
552.961	136
554.536	130
556.11	140
557.684	130
559.258	122
560.832	134
562.405	130
563.977	130
565.55	126
567.12	128
568.692	128
570.263	142
571.833	138
573.403	130
574.973	140
576.542	128
578.111	124
579.679	114
581.247	114
582.815	114
584.382	110
585.948	108
587.514	108
589.081	92
590.645	108
592.211	108
593.775	114
595.339	106
596.904	116
598.466	116
600.03	102
601.592	106
603.154	116
604.715	122
606.277	136
607.838	144
609.398	136
610.958	152
612.518	156
614.077	184
615.636	222
617.194	326
618.753	500
620.31	722
621.867	684
623.424	464
624.98	280
626.537	196
628.092	170
629.647	138
631.202	126
632.756	122
634.31	110
635.864	102
637.417	88
638.969	92
640.521	94
642.074	84
643.625	84
645.176	76
646.726	78
648.276	82
649.827	82
651.376	78
652.925	74
654.473	78
656.021	80
657.569	82
659.117	76
660.664	82
662.21	78
663.757	72
665.302	72
666.847	72
668.392	68
669.937	72
671.481	76
673.025	74
674.568	70
676.111	72
677.653	80
679.195	68
680.737	76
682.279	74
683.82	70
685.36	76
686.9	78
688.44	76
689.979	70
691.517	72
693.056	74
694.594	76
696.132	68
697.669	82
699.206	90
700.742	96
702.278	96
703.814	96
705.35	106
706.884	100
708.419	96
709.953	94
711.487	88
713.019	88
714.552	94
716.085	92
717.617	96
719.148	94
720.68	122
722.21	130
723.741	152
725.271	150
726.8	128
728.33	128
729.858	120
731.387	116
732.915	120
734.443	138
735.97	136
737.497	160
739.023	174
740.549	182
742.075	190
743.6	182
745.125	192
746.65	182
748.173	176
749.697	196
751.22	202
752.743	208
754.266	204
755.788	218
757.309	222
758.831	220
760.351	224
761.871	234
763.392	226
764.912	210
766.431	212
767.95	212
769.468	198
770.986	192
772.504	206
774.022	208
775.538	196
777.055	208
778.571	192
780.086	208
781.602	230
783.117	234
784.632	246
786.146	260
787.659	282
789.173	310
790.685	290
792.198	334
793.71	328
795.222	342
796.733	350
798.244	314
799.755	306
801.265	264
802.775	258
804.284	232
805.793	206
807.302	200
808.81	178
810.318	176
811.826	174
813.333	148
814.84	142
816.346	144
817.851	136
819.357	118
820.862	124
822.367	116
823.871	108
825.376	118
826.878	106
828.382	122
829.885	110
831.387	118
832.889	114
834.391	114
835.892	136
837.392	146
838.893	150
840.393	142
841.893	156
843.392	154
844.891	154
846.389	150
847.888	150
849.386	140
850.882	124
852.38	122
853.876	122
855.372	118
856.868	122
858.363	120
859.858	118
861.353	128
862.847	126
864.341	108
865.834	110
867.328	112
868.82	120
870.313	124
871.805	116
873.296	120
874.787	112
876.278	120
877.769	118
879.258	114
880.748	112
882.237	106
883.726	104
885.214	108
886.702	108
888.19	110
889.677	110
891.164	106
892.651	108
894.137	116
895.623	104
897.108	112
898.593	120
900.077	128
901.562	134
903.046	134
904.529	142
906.012	146
907.495	142
908.977	136
910.459	130
911.941	132
913.422	122
914.903	118
916.383	116
917.863	110
919.343	98
920.822	102
922.301	100
923.779	94
925.257	96
926.735	98
928.213	98
929.69	98
931.166	90
932.643	94
934.119	96
935.594	96
937.069	88
938.543	90
940.018	92
941.492	100
942.966	96
944.439	100
945.911	96
947.384	102
948.856	106
950.328	96
951.799	96
953.27	98
954.741	102
956.21	100
957.68	106
959.15	100
960.619	106
962.088	120
963.556	128
965.023	116
966.491	130
967.958	142
969.425	124
970.891	126
972.357	126
973.824	140
975.288	136
976.754	150
978.218	170
979.682	180
981.146	200
982.609	216
984.072	242
985.534	274
986.997	318
988.459	390
989.92	536
991.382	740
992.842	774
994.302	758
995.763	860
997.222	1222
998.681	1922
1000.14	2810
1001.6	3280
1003.06	2916
1004.52	1938
1005.97	1174
1007.43	692
1008.89	450
1010.34	324
1011.8	240
1013.25	208
1014.71	170
1016.16	188
1017.62	192
1019.07	200
1020.53	204
1021.98	248
1023.43	316
1024.89	374
1026.34	500
1027.79	612
1029.24	770
1030.69	860
1032.14	906
1033.59	840
1035.04	696
1036.49	528
1037.94	416
1039.39	292
1040.84	272
1042.29	232
1043.73	198
1045.18	188
1046.63	184
1048.08	162
1049.52	150
1050.97	154
1052.41	146
1053.86	152
1055.3	154
1056.75	148
1058.19	166
1059.64	158
1061.08	152
1062.52	162
1063.96	172
1065.41	166
1066.85	166
1068.29	168
1069.73	174
1071.17	174
1072.61	170
1074.05	180
1075.49	160
1076.93	160
1078.37	170
1079.81	174
1081.25	170
1082.68	160
1084.12	164
1085.56	164
1087	156
1088.43	160
1089.87	156
1091.3	164
1092.74	164
1094.17	170
1095.61	168
1097.04	168
1098.48	164
1099.91	160
1101.34	160
1102.78	152
1104.21	152
1105.64	148
1107.07	142
1108.5	144
1109.93	118
1111.36	120
1112.8	120
1114.22	132
1115.65	120
1117.08	120
1118.51	108
1119.94	118
1121.37	112
1122.8	102
1124.22	110
1125.65	92
1127.08	100
1128.5	98
1129.93	104
1131.35	112
1132.78	98
1134.2	96
1135.63	114
1137.05	120
1138.48	120
1139.9	122
1141.32	132
1142.75	128
1144.17	134
1145.59	158
1147.01	180
1148.43	194
1149.85	236
1151.27	300
1152.69	352
1154.11	392
1155.53	408
1156.95	384
1158.37	354
1159.79	294
1161.21	258
1162.62	226
1164.04	214
1165.46	212
1166.87	206
1168.29	190
1169.71	210
1171.12	218
1172.54	240
1173.95	252
1175.37	274
1176.78	342
1178.19	402
1179.61	472
1181.02	506
1182.43	528
1183.84	486
1185.26	490
1186.67	414
1188.08	432
1189.49	436
1190.9	450
1192.31	458
1193.72	470
1195.13	500
1196.54	488
1197.95	482
1199.36	484
1200.76	460
1202.17	460
1203.58	444
1204.99	422
1206.39	392
1207.8	326
1209.2	294
1210.61	282
1212.01	274
1213.42	240
1214.82	234
1216.23	218
1217.63	208
1219.03	198
1220.44	192
1221.84	196
1223.24	194
1224.64	196
1226.05	192
1227.45	184
1228.85	188
1230.25	172
1231.65	174
1233.05	162
1234.45	176
1235.85	166
1237.25	176
1238.64	162
1240.04	164
1241.44	162
1242.84	166
1244.23	168
1245.63	144
1247.03	162
1248.42	166
1249.82	158
1251.21	166
1252.61	168
1254	156
1255.4	164
1256.79	160
1258.19	160
1259.58	174
1260.97	154
1262.36	154
1263.76	158
1265.15	164
1266.54	152
1267.93	172
1269.32	152
1270.71	162
1272.1	170
1273.49	166
1274.88	158
1276.27	162
1277.66	172
1279.05	164
1280.43	158
1281.82	166
1283.21	160
1284.6	164
1285.98	174
1287.37	170
1288.75	182
1290.14	174
1291.53	192
1292.91	186
1294.29	184
1295.68	190
1297.06	186
1298.45	206
1299.83	202
1301.21	218
1302.59	198
1303.98	212
1305.36	218
1306.74	200
1308.12	216
1309.5	214
1310.88	220
1312.26	210
1313.64	238
1315.02	230
1316.4	242
1317.78	232
1319.16	244
1320.53	272
1321.91	272
1323.29	262
1324.67	270
1326.04	284
1327.42	258
1328.79	294
1330.17	288
1331.54	306
1332.92	288
1334.29	276
1335.67	286
1337.04	266
1338.42	274
1339.79	266
1341.16	264
1342.53	250
1343.91	268
1345.28	256
1346.65	264
1348.02	248
1349.39	246
1350.76	246
1352.13	264
1353.5	260
1354.87	272
1356.24	250
1357.61	254
1358.98	242
1360.34	266
1361.71	268
1363.08	260
1364.45	264
1365.81	270
1367.18	252
1368.54	272
1369.91	270
1371.28	258
1372.64	272
1374.01	264
1375.37	274
1376.73	264
1378.1	250
1379.46	254
1380.82	250
1382.19	260
1383.55	244
1384.91	250
1386.27	230
1387.63	234
1388.99	228
1390.35	218
1391.71	228
1393.07	226
1394.43	228
1395.79	226
1397.15	210
1398.51	216
1399.87	216
1401.23	228
1402.58	224
1403.94	220
1405.3	218
1406.65	216
1408.01	224
1409.37	220
1410.72	222
1412.08	202
1413.43	212
1414.79	212
1416.14	208
1417.49	200
1418.85	202
1420.2	204
1421.55	202
1422.91	208
1424.26	208
1425.61	212
1426.96	208
1428.31	210
1429.66	216
1431.01	214
1432.36	198
1433.71	220
1435.06	238
1436.41	232
1437.76	246
1439.11	254
1440.46	270
1441.81	276
1443.15	290
1444.5	300
1445.85	326
1447.19	314
1448.54	322
1449.89	320
1451.23	312
1452.58	318
1453.92	292
1455.27	286
1456.61	254
1457.95	234
1459.3	226
1460.64	208
1461.98	204
1463.33	184
1464.67	188
1466.01	186
1467.35	180
1468.69	180
1470.03	178
1471.37	176
1472.71	180
1474.05	174
1475.39	182
1476.73	178
1478.07	172
1479.41	174
1480.75	170
1482.09	164
1483.42	180
1484.76	170
1486.1	174
1487.43	172
1488.77	176
1490.11	170
1491.44	178
1492.78	190
1494.11	184
1495.45	174
1496.78	180
1498.12	168
1499.45	162
1500.78	168
1502.11	162
1503.45	156
1504.78	168
1506.11	150
1507.44	162
1508.77	154
1510.11	146
1511.44	156
1512.77	154
1514.1	136
1515.43	150
1516.76	166
1518.08	168
1519.41	148
1520.74	146
1522.07	150
1523.4	162
1524.72	148
1526.05	152
1527.38	160
1528.7	158
1530.03	156
1531.36	150
1532.68	152
1534.01	156
1535.33	152
1536.66	160
1537.98	152
1539.3	162
1540.63	156
1541.95	156
1543.27	148
1544.6	154
1545.92	162
1547.24	152
1548.56	146
1549.88	168
1551.2	148
1552.52	156
1553.84	156
1555.17	150
1556.48	156
1557.8	148
1559.12	158
1560.44	166
1561.76	160
1563.08	160
1564.4	164
1565.71	168
1567.03	152
1568.35	162
1569.66	178
1570.98	180
1572.29	182
1573.61	174
1574.93	192
1576.24	218
1577.55	216
1578.87	258
1580.18	298
1581.5	364
1582.81	412
1584.12	386
1585.43	348
1586.75	300
1588.06	248
1589.37	246
1590.68	244
1591.99	258
1593.3	270
1594.61	312
1595.92	356
1597.23	398
1598.54	514
1599.85	594
1601.16	670
1602.47	646
1603.78	652
1605.08	548
1606.39	452
1607.7	382
1609	300
1610.31	268
1611.62	224
1612.92	220
1614.23	206
1615.53	188
1616.84	190
1618.14	184
1619.45	162
1620.75	166
1622.06	154
1623.36	160
1624.66	164
1625.96	152
1627.27	152
1628.57	150
1629.87	148
1631.17	148
1632.47	146
1633.77	142
1635.07	142
1636.37	132
1637.67	140
1638.97	134
1640.27	150
1641.57	148
1642.87	136
1644.17	134
1645.47	150
1646.76	142
1648.06	164
1649.36	154
1650.66	150
1651.95	146
1653.25	138
1654.54	136
1655.84	128
1657.13	136
1658.43	128
1659.72	130
1661.02	132
1662.31	122
1663.6	130
1664.9	130
1666.19	128
1667.48	130
1668.78	124
1670.07	126
1671.36	120
1672.65	122
1673.94	140
1675.23	128
1676.52	114
1677.81	130
1679.1	128
1680.39	124
1681.68	122
1682.97	124
1684.26	126
1685.55	126
1686.83	116
1688.12	114
1689.41	104
1690.7	114
1691.98	118
1693.27	114
1694.55	114
1695.84	118
1697.13	118
1698.41	122
1699.69	122
1700.98	110
1702.26	114