File: Jesse_Dataset_v2/Pure Raman/Polystyrene/785nm/ps-ppo-6jan25-1,0000-map3_Y04_X07.txt
204.377	832
206.045	828
207.713	852
209.38	892
211.048	894
212.715	868
214.381	936
216.047	900
217.712	914
219.377	902
221.042	922
222.706	914
224.369	888
226.032	852
227.695	822
229.357	768
231.019	720
232.68	664
234.341	610
236.001	592
237.661	528
239.321	510
240.98	450
242.639	408
244.297	382
245.955	364
247.612	336
249.268	326
250.924	324
252.58	300
254.236	298
255.891	268
257.546	292
259.2	266
260.854	268
262.507	248
264.16	268
265.812	248
267.463	260
269.115	248
270.766	238
272.417	246
274.067	260
275.717	234
277.365	234
279.014	232
280.663	228
282.311	210
283.958	208
285.605	208
287.252	206
288.898	182
290.543	192
292.188	186
293.833	174
295.477	174
297.121	178
298.765	164
300.407	166
302.05	168
303.693	166
305.334	168
306.975	156
308.615	168
310.256	174
311.896	170
313.535	164
315.175	164
316.813	156
318.451	168
320.089	164
321.726	162
323.362	166
324.999	168
326.635	178
328.271	164
329.905	176
331.54	162
333.174	168
334.807	158
336.441	164
338.074	168
339.707	160
341.338	160
342.969	160
344.601	160
346.231	170
347.861	160
349.491	142
351.12	156
352.749	150
354.378	140
356.006	154
357.633	152
359.261	142
360.887	136
362.513	158
364.139	146
365.764	156
367.39	148
369.014	152
370.638	136
372.261	150
373.884	144
375.508	168
377.13	162
378.752	156
380.373	170
381.994	170
383.615	164
385.235	188
386.854	184
388.473	168
390.092	182
391.711	186
393.328	194
394.947	202
396.564	194
398.181	192
399.797	200
401.412	212
403.027	214
404.642	218
406.257	228
407.871	232
409.484	232
411.098	218
412.711	204
414.323	182
415.935	162
417.547	172
419.158	172
420.768	164
422.378	176
423.988	152
425.597	166
427.206	148
428.814	148
430.422	158
432.03	132
433.637	140
435.243	148
436.85	124
438.456	138
440.062	142
441.666	138
443.271	144
444.876	122
446.479	126
448.082	120
449.685	114
451.287	122
452.89	110
454.492	116
456.092	108
457.693	104
459.293	106
460.893	104
462.492	110
464.092	104
465.691	106
467.288	110
468.887	100
470.483	108
472.081	108
473.677	108
475.273	110
476.869	90
478.463	104
480.059	100
481.653	96
483.247	96
484.84	98
486.433	88
488.026	92
489.618	106
491.21	106
492.801	104
494.392	92
495.983	102
497.573	96
499.162	106
500.752	108
502.341	114
503.929	106
505.517	98
507.105	104
508.692	104
510.279	106
511.865	96
513.45	112
515.037	118
516.621	102
518.206	108
519.79	104
521.374	112
522.957	106
524.54	114
526.123	118
527.705	120
529.287	114
530.868	128
532.448	132
534.029	136
535.609	148
537.188	150
538.768	148
540.346	144
541.925	144
543.502	136
545.08	148
546.657	142
548.234	134
549.81	152
551.386	142
552.961	136
554.536	142
556.11	128
557.684	126
559.258	136
560.832	140
562.405	136
563.977	134
565.55	132
567.12	128
568.692	140
570.263	138
571.833	128
573.403	134
574.973	130
576.542	134
578.111	122
579.679	118
581.247	124
582.815	108
584.382	106
585.948	114
587.514	100
589.081	110
590.645	114
592.211	94
593.775	112
595.339	116
596.904	104
598.466	118
600.03	120
601.592	102
603.154	120
604.715	136
606.277	138
607.838	150
609.398	140
610.958	148
612.518	148
614.077	190
615.636	232
617.194	324
618.753	522
620.31	668
621.867	698
623.424	458
624.98	286
626.537	206
628.092	168
629.647	138
631.202	134
632.756	120
634.31	124
635.864	106
637.417	100
638.969	90
640.521	92
642.074	78
643.625	88
645.176	80
646.726	80
648.276	82
649.827	86
651.376	82
652.925	80
654.473	76
656.021	74
657.569	80
659.117	74
660.664	70
662.21	90
663.757	72
665.302	78
666.847	80
668.392	82
669.937	76
671.481	70
673.025	70
674.568	76
676.111	76
677.653	72
679.195	74
680.737	78
682.279	72
683.82	80
685.36	76
686.9	72
688.44	76
689.979	70
691.517	76
693.056	82
694.594	78
696.132	84
697.669	78
699.206	84
700.742	88
702.278	94
703.814	96
705.35	86
706.884	98
708.419	100
709.953	88
711.487	102
713.019	98
714.552	94
716.085	96
717.617	100
719.148	106
720.68	116
722.21	142
723.741	148
725.271	142
726.8	136
728.33	126
729.858	120
731.387	116
732.915	120
734.443	140
735.97	148
737.497	166
739.023	168
740.549	186
742.075	166
743.6	180
745.125	184
746.65	180
748.173	186
749.697	180
751.22	200
752.743	198
754.266	206
755.788	226
757.309	234
758.831	232
760.351	224
761.871	230
763.392	218
764.912	218
766.431	224
767.95	194
769.468	198
770.986	196
772.504	192
774.022	194
775.538	198
777.055	182
778.571	192
780.086	222
781.602	208
783.117	234
784.632	260
786.146	256
787.659	294
789.173	312
790.685	316
792.198	302
793.71	352
795.222	352
796.733	342
798.244	328
799.755	306
801.265	290
802.775	250
804.284	228
805.793	222
807.302	190
808.81	182
810.318	184
811.826	174
813.333	172
814.84	146
816.346	144
817.851	138
819.357	126
820.862	118
822.367	112
823.871	108
825.376	104
826.878	112
828.382	104
829.885	102
831.387	122
832.889	128
834.391	124
835.892	130
837.392	146
838.893	152
840.393	154
841.893	158
843.392	168
844.891	164
846.389	144
847.888	140
849.386	130
850.882	132
852.38	124
853.876	106
855.372	122
856.868	122
858.363	118
859.858	114
861.353	118
862.847	118
864.341	122
865.834	120
867.328	122
868.82	114
870.313	120
871.805	114
873.296	120
874.787	126
876.278	122
877.769	126
879.258	114
880.748	120
882.237	106
883.726	106
885.214	120
886.702	106
888.19	118
889.677	102
891.164	120
892.651	108
894.137	114
895.623	102
897.108	124
898.593	136
900.077	130
901.562	122
903.046	142
904.529	152
906.012	144
907.495	148
908.977	148
910.459	144
911.941	124
913.422	134
914.903	112
916.383	104
917.863	110
919.343	106
920.822	100
922.301	100
923.779	98
925.257	92
926.735	98
928.213	92
929.69	86
931.166	90
932.643	98
934.119	94
935.594	98
937.069	102
938.543	96
940.018	92
941.492	100
942.966	94
944.439	102
945.911	104
947.384	92
948.856	106
950.328	100
951.799	114
953.27	102
954.741	112
956.21	104
957.68	92
959.15	104
960.619	118
962.088	120
963.556	122
965.023	124
966.491	116
967.958	132
969.425	130
970.891	122
972.357	130
973.824	132
975.288	144
976.754	150
978.218	172
979.682	186
981.146	194
982.609	242
984.072	248
985.534	272
986.997	328
988.459	396
989.92	588
991.382	766
992.842	830
994.302	758
995.763	874
997.222	1216
998.681	1988
1000.14	2842
1001.6	3322
1003.06	2912
1004.52	1944
1005.97	1156
1007.43	712
1008.89	444
1010.34	324
1011.8	244
1013.25	212
1014.71	188
1016.16	184
1017.62	178
1019.07	204
1020.53	220
1021.98	266
1023.43	306
1024.89	372
1026.34	496
1027.79	632
1029.24	760
1030.69	870
1032.14	876
1033.59	826
1035.04	664
1036.49	562
1037.94	400
1039.39	320
1040.84	260
1042.29	214
1043.73	204
1045.18	208
1046.63	180
1048.08	174
1049.52	158
1050.97	150
1052.41	158
1053.86	152
1055.3	158
1056.75	158
1058.19	166
1059.64	154
1061.08	162
1062.52	164
1063.96	164
1065.41	164
1066.85	168
1068.29	168
1069.73	178
1071.17	174
1072.61	174
1074.05	174
1075.49	178
1076.93	156
1078.37	162
1079.81	172
1081.25	172
1082.68	162
1084.12	158
1085.56	168
1087	162
1088.43	156
1089.87	174
1091.3	176
1092.74	170
1094.17	178
1095.61	170
1097.04	162
1098.48	168
1099.91	160
1101.34	154
1102.78	176
1104.21	154
1105.64	146
1107.07	130
1108.5	134
1109.93	142
1111.36	134
1112.8	126
1114.22	134
1115.65	126
1117.08	120
1118.51	118
1119.94	102
1121.37	110
1122.8	104
1124.22	96
1125.65	110
1127.08	100
1128.5	108
1129.93	112
1131.35	108
1132.78	104
1134.2	106
1135.63	104
1137.05	120
1138.48	118
1139.9	128
1141.32	124
1142.75	132
1144.17	156
1145.59	162
1147.01	166
1148.43	196
1149.85	230
1151.27	284
1152.69	344
1154.11	396
1155.53	438
1156.95	398
1158.37	348
1159.79	296
1161.21	266
1162.62	222
1164.04	206
1165.46	206
1166.87	190
1168.29	202
1169.71	222
1171.12	212
1172.54	240
1173.95	258
1175.37	304
1176.78	362
1178.19	412
1179.61	494
1181.02	518
1182.43	504
1183.84	486
1185.26	476
1186.67	440
1188.08	436
1189.49	442
1190.9	438
1192.31	478
1193.72	488
1195.13	500
1196.54	488
1197.95	494
1199.36	518
1200.76	482
1202.17	458
1203.58	434
1204.99	422
1206.39	358
1207.8	348
1209.2	310
1210.61	304
1212.01	270
1213.42	250
1214.82	236
1216.23	226
1217.63	202
1219.03	206
1220.44	196
1221.84	214
1223.24	202
1224.64	212
1226.05	198
1227.45	180
1228.85	192
1230.25	184
1231.65	188
1233.05	164
1234.45	168
1235.85	172
1237.25	168
1238.64	170
1240.04	176
1241.44	168
1242.84	156
1244.23	174
1245.63	174
1247.03	166
1248.42	166
1249.82	178
1251.21	178
1252.61	168
1254	170
1255.4	166
1256.79	174
1258.19	164
1259.58	176
1260.97	178
1262.36	176
1263.76	156
1265.15	182
1266.54	164
1267.93	184
1269.32	162
1270.71	160
1272.1	168
1273.49	172
1274.88	168
1276.27	172
1277.66	158
1279.05	170
1280.43	168
1281.82	178
1283.21	176
1284.6	182
1285.98	182
1287.37	178
1288.75	198
1290.14	186
1291.53	184
1292.91	188
1294.29	196
1295.68	204
1297.06	192
1298.45	208
1299.83	204
1301.21	212
1302.59	214
1303.98	222
1305.36	212
1306.74	224
1308.12	220
1309.5	226
1310.88	220
1312.26	234
1313.64	266
1315.02	248
1316.4	238
1317.78	256
1319.16	254
1320.53	268
1321.91	288
1323.29	290
1324.67	296
1326.04	284
1327.42	294
1328.79	290
1330.17	290
1331.54	314
1332.92	292
1334.29	284
1335.67	306
1337.04	280
1338.42	278
1339.79	278
1341.16	284
1342.53	284
1343.91	278
1345.28	276
1346.65	260
1348.02	274
1349.39	268
1350.76	266
1352.13	248
1353.5	278
1354.87	260
1356.24	252
1357.61	264
1358.98	254
1360.34	264
1361.71	276
1363.08	292
1364.45	278
1365.81	270
1367.18	278
1368.54	288
1369.91	270
1371.28	278
1372.64	286
1374.01	266
1375.37	272
1376.73	276
1378.1	276
1379.46	278
1380.82	266
1382.19	278
1383.55	256
1384.91	252
1386.27	258
1387.63	260
1388.99	244
1390.35	252
1391.71	240
1393.07	258
1394.43	238
1395.79	262
1397.15	242
1398.51	232
1399.87	242
1401.23	246
1402.58	228
1403.94	234
1405.3	234
1406.65	222
1408.01	214
1409.37	222
1410.72	236
1412.08	242
1413.43	232
1414.79	218
1416.14	222
1417.49	232
1418.85	226
1420.2	222
1421.55	224
1422.91	208
1424.26	210
1425.61	218
1426.96	212
1428.31	220
1429.66	224
1431.01	212
1432.36	246
1433.71	240
1435.06	238
1436.41	252
1437.76	288
1439.11	274
1440.46	260
1441.81	288
1443.15	322
1444.5	300
1445.85	324
1447.19	316
1448.54	342
1449.89	328
1451.23	324
1452.58	320
1453.92	310
1455.27	286
1456.61	260
1457.95	256
1459.3	230
1460.64	220
1461.98	218
1463.33	202
1464.67	208
1466.01	194
1467.35	198
1468.69	184
1470.03	192
1471.37	186
1472.71	186
1474.05	176
1475.39	188
1476.73	178
1478.07	186
1479.41	190
1480.75	190
1482.09	180
1483.42	186
1484.76	190
1486.1	198
1487.43	170
1488.77	180
1490.11	184
1491.44	192
1492.78	192
1494.11	196
1495.45	184
1496.78	176
1498.12	176
1499.45	172
1500.78	180
1502.11	176
1503.45	174
1504.78	174
1506.11	170
1507.44	178
1508.77	162
1510.11	172
1511.44	182
1512.77	162
1514.1	158
1515.43	166
1516.76	166
1518.08	168
1519.41	180
1520.74	166
1522.07	164
1523.4	162
1524.72	164
1526.05	168
1527.38	172
1528.7	162
1530.03	160
1531.36	174
1532.68	168
1534.01	170
1535.33	164
1536.66	166
1537.98	160
1539.3	162
1540.63	166
1541.95	158
1543.27	160
1544.6	156
1545.92	174
1547.24	156
1548.56	182
1549.88	162
1551.2	166
1552.52	164
1553.84	156
1555.17	160
1556.48	164
1557.8	168
1559.12	154
1560.44	158
1561.76	168
1563.08	168
1564.4	170
1565.71	170
1567.03	162
1568.35	172
1569.66	184
1570.98	186
1572.29	182
1573.61	188
1574.93	204
1576.24	244
1577.55	240
1578.87	264
1580.18	320
1581.5	394
1582.81	402
1584.12	402
1585.43	358
1586.75	298
1588.06	256
1589.37	252
1590.68	254
1591.99	252
1593.3	260
1594.61	318
1595.92	372
1597.23	430
1598.54	508
1599.85	610
1601.16	668
1602.47	698
1603.78	642
1605.08	534
1606.39	466
1607.7	380
1609	318
1610.31	264
1611.62	244
1612.92	238
1614.23	202
1615.53	200
1616.84	188
1618.14	196
1619.45	178
1620.75	178
1622.06	178
1623.36	170
1624.66	164
1625.96	174
1627.27	168
1628.57	154
1629.87	164
1631.17	158
1632.47	154
1633.77	132
1635.07	152
1636.37	146
1637.67	146
1638.97	140
1640.27	168
1641.57	156
1642.87	142
1644.17	150
1645.47	148
1646.76	150
1648.06	160
1649.36	156
1650.66	144
1651.95	142
1653.25	130
1654.54	138
1655.84	154
1657.13	132
1658.43	140
1659.72	124
1661.02	140
1662.31	132
1663.6	140
1664.9	136
1666.19	128
1667.48	130
1668.78	120
1670.07	134
1671.36	128
1672.65	124
1673.94	130
1675.23	130
1676.52	124
1677.81	122
1679.1	134
1680.39	120
1681.68	132
1682.97	122
1684.26	128
1685.55	122
1686.83	118
1688.12	124
1689.41	110
1690.7	130
1691.98	130
1693.27	118
1694.55	128
1695.84	124
1697.13	132
1698.41	118
1699.69	124
1700.98	108
1702.26	122