File: Jesse_Dataset_v2/Pure Raman/Polystyrene/785nm/ps-ppo-6jan25-1,0000-map3_Y07_X05.txt
204.377	808
206.045	870
207.713	860
209.38	892
211.048	880
212.715	888
214.381	940
216.047	902
217.712	920
219.377	932
221.042	912
222.706	914
224.369	912
226.032	890
227.695	828
229.357	778
231.019	740
232.68	682
234.341	628
236.001	620
237.661	544
239.321	506
240.98	458
242.639	432
244.297	422
245.955	370
247.612	356
249.268	338
250.924	334
252.58	320
254.236	302
255.891	294
257.546	288
259.2	278
260.854	272
262.507	278
264.16	264
265.812	284
267.463	276
269.115	248
270.766	260
272.417	274
274.067	262
275.717	242
277.365	248
279.014	236
280.663	224
282.311	230
283.958	234
285.605	224
287.252	230
288.898	206
290.543	212
292.188	196
293.833	202
295.477	190
297.121	182
298.765	188
300.407	168
302.05	184
303.693	188
305.334	166
306.975	186
308.615	184
310.256	172
311.896	180
313.535	176
315.175	188
316.813	174
318.451	184
320.089	176
321.726	192
323.362	188
324.999	184
326.635	182
328.271	184
329.905	192
331.54	192
333.174	180
334.807	168
336.441	172
338.074	172
339.707	180
341.338	180
342.969	182
344.601	168
346.231	180
347.861	168
349.491	172
351.12	158
352.749	166
354.378	162
356.006	160
357.633	182
359.261	150
360.887	164
362.513	158
364.139	160
365.764	172
367.39	154
369.014	170
370.638	166
372.261	162
373.884	172
375.508	184
377.13	188
378.752	174
380.373	186
381.994	166
383.615	190
385.235	206
386.854	202
388.473	196
390.092	196
391.711	200
393.328	214
394.947	202
396.564	198
398.181	212
399.797	200
401.412	234
403.027	224
404.642	248
406.257	248
407.871	232
409.484	226
411.098	216
412.711	212
414.323	204
415.935	190
417.547	214
419.158	192
420.768	184
422.378	180
423.988	174
425.597	170
427.206	150
428.814	164
430.422	160
432.03	160
433.637	154
435.243	156
436.85	152
438.456	138
440.062	150
441.666	146
443.271	148
444.876	152
446.479	136
448.082	150
449.685	132
451.287	140
452.89	130
454.492	118
456.092	128
457.693	120
459.293	126
460.893	114
462.492	112
464.092	114
465.691	112
467.288	122
468.887	112
470.483	116
472.081	114
473.677	120
475.273	118
476.869	112
478.463	120
480.059	110
481.653	114
483.247	116
484.84	104
486.433	102
488.026	100
489.618	110
491.21	110
492.801	108
494.392	102
495.983	116
497.573	116
499.162	112
500.752	106
502.341	118
503.929	116
505.517	128
507.105	108
508.692	116
510.279	114
511.865	118
513.45	122
515.037	110
516.621	118
518.206	136
519.79	116
521.374	122
522.957	124
524.54	120
526.123	138
527.705	128
529.287	130
530.868	130
532.448	144
534.029	148
535.609	152
537.188	156
538.768	160
540.346	152
541.925	166
543.502	150
545.08	158
546.657	156
548.234	144
549.81	156
551.386	148
552.961	146
554.536	152
556.11	146
557.684	142
559.258	146
560.832	134
562.405	146
563.977	140
565.55	126
567.12	138
568.692	140
570.263	148
571.833	148
573.403	146
574.973	150
576.542	138
578.111	142
579.679	134
581.247	128
582.815	126
584.382	104
585.948	120
587.514	118
589.081	108
590.645	116
592.211	110
593.775	112
595.339	118
596.904	114
598.466	122
600.03	126
601.592	114
603.154	132
604.715	140
606.277	148
607.838	158
609.398	164
610.958	162
612.518	162
614.077	188
615.636	252
617.194	332
618.753	532
620.31	726
621.867	698
623.424	460
624.98	272
626.537	216
628.092	180
629.647	158
631.202	142
632.756	138
634.31	120
635.864	110
637.417	102
638.969	96
640.521	104
642.074	96
643.625	92
645.176	94
646.726	90
648.276	88
649.827	88
651.376	78
652.925	88
654.473	78
656.021	86
657.569	98
659.117	84
660.664	86
662.21	82
663.757	82
665.302	84
666.847	82
668.392	78
669.937	80
671.481	80
673.025	80
674.568	86
676.111	82
677.653	90
679.195	88
680.737	82
682.279	82
683.82	78
685.36	86
686.9	74
688.44	76
689.979	82
691.517	74
693.056	90
694.594	90
696.132	98
697.669	94
699.206	94
700.742	102
702.278	102
703.814	108
705.35	102
706.884	106
708.419	112
709.953	98
711.487	102
713.019	106
714.552	102
716.085	94
717.617	102
719.148	110
720.68	118
722.21	140
723.741	166
725.271	146
726.8	142
728.33	140
729.858	134
731.387	132
732.915	144
734.443	142
735.97	158
737.497	166
739.023	180
740.549	180
742.075	186
743.6	190
745.125	194
746.65	188
748.173	196
749.697	192
751.22	202
752.743	214
754.266	236
755.788	234
757.309	252
758.831	252
760.351	228
761.871	232
763.392	244
764.912	244
766.431	226
767.95	212
769.468	214
770.986	216
772.504	210
774.022	208
775.538	206
777.055	214
778.571	214
780.086	236
781.602	226
783.117	244
784.632	266
786.146	268
787.659	302
789.173	308
790.685	326
792.198	340
793.71	348
795.222	366
796.733	342
798.244	334
799.755	312
801.265	288
802.775	268
804.284	224
805.793	224
807.302	192
808.81	184
810.318	188
811.826	168
813.333	164
814.84	148
816.346	156
817.851	136
819.357	128
820.862	116
822.367	116
823.871	116
825.376	108
826.878	118
828.382	116
829.885	130
831.387	120
832.889	130
834.391	140
835.892	144
837.392	160
838.893	150
840.393	164
841.893	168
843.392	166
844.891	150
846.389	150
847.888	148
849.386	144
850.882	144
852.38	138
853.876	128
855.372	150
856.868	126
858.363	138
859.858	126
861.353	114
862.847	132
864.341	116
865.834	136
867.328	128
868.82	126
870.313	122
871.805	118
873.296	126
874.787	128
876.278	112
877.769	120
879.258	112
880.748	124
882.237	118
883.726	120
885.214	114
886.702	118
888.19	116
889.677	120
891.164	112
892.651	116
894.137	114
895.623	122
897.108	124
898.593	132
900.077	128
901.562	142
903.046	142
904.529	154
906.012	144
907.495	154
908.977	136
910.459	140
911.941	134
913.422	122
914.903	120
916.383	114
917.863	100
919.343	104
920.822	106
922.301	108
923.779	102
925.257	104
926.735	106
928.213	104
929.69	104
931.166	86
932.643	98
934.119	100
935.594	92
937.069	96
938.543	94
940.018	100
941.492	112
942.966	98
944.439	108
945.911	108
947.384	98
948.856	94
950.328	114
951.799	110
953.27	100
954.741	104
956.21	110
957.68	112
959.15	110
960.619	116
962.088	120
963.556	122
965.023	128
966.491	130
967.958	132
969.425	134
970.891	130
972.357	140
973.824	142
975.288	158
976.754	166
978.218	174
979.682	184
981.146	202
982.609	250
984.072	268
985.534	280
986.997	314
988.459	418
989.92	618
991.382	766
992.842	842
994.302	772
995.763	854
997.222	1230
998.681	2010
1000.14	2896
1001.6	3288
1003.06	2828
1004.52	1972
1005.97	1154
1007.43	662
1008.89	416
1010.34	330
1011.8	256
1013.25	222
1014.71	186
1016.16	196
1017.62	194
1019.07	210
1020.53	196
1021.98	258
1023.43	308
1024.89	384
1026.34	462
1027.79	638
1029.24	782
1030.69	894
1032.14	892
1033.59	818
1035.04	706
1036.49	556
1037.94	396
1039.39	324
1040.84	242
1042.29	216
1043.73	194
1045.18	196
1046.63	182
1048.08	190
1049.52	174
1050.97	156
1052.41	152
1053.86	156
1055.3	160
1056.75	160
1058.19	148
1059.64	178
1061.08	156
1062.52	162
1063.96	164
1065.41	176
1066.85	166
1068.29	172
1069.73	182
1071.17	168
1072.61	182
1074.05	180
1075.49	182
1076.93	176
1078.37	182
1079.81	166
1081.25	168
1082.68	170
1084.12	164
1085.56	184
1087	160
1088.43	156
1089.87	158
1091.3	168
1092.74	170
1094.17	162
1095.61	172
1097.04	184
1098.48	168
1099.91	174
1101.34	156
1102.78	168
1104.21	156
1105.64	152
1107.07	146
1108.5	146
1109.93	126
1111.36	138
1112.8	132
1114.22	134
1115.65	118
1117.08	122
1118.51	120
1119.94	102
1121.37	122
1122.8	104
1124.22	112
1125.65	116
1127.08	106
1128.5	118
1129.93	108
1131.35	104
1132.78	114
1134.2	116
1135.63	122
1137.05	116
1138.48	122
1139.9	128
1141.32	132
1142.75	156
1144.17	142
1145.59	160
1147.01	176
1148.43	186
1149.85	224
1151.27	296
1152.69	372
1154.11	388
1155.53	426
1156.95	378
1158.37	342
1159.79	298
1161.21	256
1162.62	202
1164.04	208
1165.46	204
1166.87	200
1168.29	206
1169.71	206
1171.12	232
1172.54	236
1173.95	276
1175.37	292
1176.78	360
1178.19	418
1179.61	476
1181.02	536
1182.43	526
1183.84	506
1185.26	470
1186.67	444
1188.08	414
1189.49	454
1190.9	464
1192.31	482
1193.72	488
1195.13	490
1196.54	522
1197.95	482
1199.36	500
1200.76	500
1202.17	472
1203.58	426
1204.99	414
1206.39	360
1207.8	356
1209.2	304
1210.61	304
1212.01	270
1213.42	252
1214.82	240
1216.23	230
1217.63	218
1219.03	214
1220.44	214
1221.84	210
1223.24	204
1224.64	200
1226.05	192
1227.45	202
1228.85	200
1230.25	182
1231.65	180
1233.05	178
1234.45	182
1235.85	178
1237.25	180
1238.64	172
1240.04	172
1241.44	180
1242.84	186
1244.23	184
1245.63	168
1247.03	174
1248.42	172
1249.82	170
1251.21	168
1252.61	164
1254	180
1255.4	172
1256.79	180
1258.19	168
1259.58	168
1260.97	186
1262.36	176
1263.76	178
1265.15	170
1266.54	174
1267.93	164
1269.32	180
1270.71	178
1272.1	158
1273.49	174
1274.88	182
1276.27	174
1277.66	168
1279.05	176
1280.43	182
1281.82	174
1283.21	180
1284.6	180
1285.98	184
1287.37	194
1288.75	188
1290.14	178
1291.53	190
1292.91	188
1294.29	196
1295.68	200
1297.06	210
1298.45	214
1299.83	210
1301.21	206
1302.59	218
1303.98	234
1305.36	226
1306.74	228
1308.12	232
1309.5	212
1310.88	230
1312.26	240
1313.64	244
1315.02	250
1316.4	250
1317.78	264
1319.16	264
1320.53	274
1321.91	286
1323.29	272
1324.67	278
1326.04	286
1327.42	294
1328.79	294
1330.17	308
1331.54	286
1332.92	312
1334.29	310
1335.67	288
1337.04	288
1338.42	280
1339.79	282
1341.16	288
1342.53	284
1343.91	270
1345.28	262
1346.65	272
1348.02	278
1349.39	268
1350.76	268
1352.13	266
1353.5	266
1354.87	258
1356.24	266
1357.61	256
1358.98	276
1360.34	284
1361.71	294
1363.08	278
1364.45	280
1365.81	290
1367.18	282
1368.54	270
1369.91	296
1371.28	280
1372.64	278
1374.01	296
1375.37	300
1376.73	280
1378.1	258
1379.46	262
1380.82	276
1382.19	262
1383.55	264
1384.91	256
1386.27	250
1387.63	240
1388.99	246
1390.35	240
1391.71	240
1393.07	226
1394.43	244
1395.79	234
1397.15	240
1398.51	242
1399.87	238
1401.23	242
1402.58	224
1403.94	230
1405.3	228
1406.65	228
1408.01	226
1409.37	236
1410.72	220
1412.08	220
1413.43	228
1414.79	234
1416.14	218
1417.49	232
1418.85	226
1420.2	210
1421.55	224
1422.91	218
1424.26	220
1425.61	226
1426.96	228
1428.31	222
1429.66	222
1431.01	226
1432.36	234
1433.71	252
1435.06	248
1436.41	266
1437.76	266
1439.11	280
1440.46	262
1441.81	282
1443.15	300
1444.5	318
1445.85	340
1447.19	322
1448.54	364
1449.89	346
1451.23	334
1452.58	326
1453.92	304
1455.27	290
1456.61	270
1457.95	248
1459.3	228
1460.64	224
1461.98	226
1463.33	212
1464.67	208
1466.01	208
1467.35	196
1468.69	192
1470.03	196
1471.37	176
1472.71	194
1474.05	194
1475.39	202
1476.73	184
1478.07	196
1479.41	196
1480.75	198
1482.09	188
1483.42	190
1484.76	178
1486.1	178
1487.43	180
1488.77	194
1490.11	178
1491.44	188
1492.78	190
1494.11	184
1495.45	196
1496.78	184
1498.12	176
1499.45	188
1500.78	178
1502.11	182
1503.45	186
1504.78	176
1506.11	164
1507.44	176
1508.77	176
1510.11	174
1511.44	176
1512.77	180
1514.1	170
1515.43	170
1516.76	182
1518.08	174
1519.41	160
1520.74	168
1522.07	180
1523.4	158
1524.72	174
1526.05	166
1527.38	174
1528.7	160
1530.03	170
1531.36	154
1532.68	160
1534.01	170
1535.33	166
1536.66	172
1537.98	170
1539.3	162
1540.63	168
1541.95	166
1543.27	166
1544.6	170
1545.92	168
1547.24	178
1548.56	170
1549.88	160
1551.2	160
1552.52	168
1553.84	164
1555.17	174
1556.48	166
1557.8	162
1559.12	174
1560.44	176
1561.76	168
1563.08	174
1564.4	172
1565.71	184
1567.03	172
1568.35	182
1569.66	188
1570.98	180
1572.29	200
1573.61	206
1574.93	202
1576.24	222
1577.55	252
1578.87	284
1580.18	336
1581.5	374
1582.81	422
1584.12	420
1585.43	372
1586.75	304
1588.06	252
1589.37	258
1590.68	262
1591.99	268
1593.3	274
1594.61	310
1595.92	362
1597.23	440
1598.54	508
1599.85	648
1601.16	662
1602.47	688
1603.78	642
1605.08	568
1606.39	492
1607.7	376
1609	310
1610.31	288
1611.62	248
1612.92	224
1614.23	200
1615.53	198
1616.84	196
1618.14	188
1619.45	190
1620.75	180
1622.06	184
1623.36	166
1624.66	154
1625.96	150
1627.27	164
1628.57	150
1629.87	148
1631.17	164
1632.47	162
1633.77	156
1635.07	166
1636.37	152
1637.67	154
1638.97	148
1640.27	150
1641.57	150
1642.87	146
1644.17	160
1645.47	158
1646.76	166
1648.06	150
1649.36	152
1650.66	150
1651.95	136
1653.25	142
1654.54	146
1655.84	136
1657.13	126
1658.43	136
1659.72	128
1661.02	142
1662.31	132
1663.6	138
1664.9	140
1666.19	122
1667.48	132
1668.78	132
1670.07	132
1671.36	128
1672.65	130
1673.94	136
1675.23	136
1676.52	130
1677.81	138
1679.1	130
1680.39	138
1681.68	132
1682.97	134
1684.26	138
1685.55	130
1686.83	138
1688.12	134
1689.41	124
1690.7	128
1691.98	134
1693.27	120
1694.55	120
1695.84	122
1697.13	126
1698.41	120
1699.69	124
1700.98	128
1702.26	130