File: Jesse_Dataset_v2/Pure Raman/Polystyrene/785nm/ps-ppo-6jan25-1,0000-map3_Y10_X00.txt
204.377	808
206.045	830
207.713	856
209.38	902
211.048	858
212.715	900
214.381	886
216.047	890
217.712	914
219.377	914
221.042	878
222.706	904
224.369	878
226.032	840
227.695	818
229.357	776
231.019	698
232.68	676
234.341	624
236.001	586
237.661	558
239.321	508
240.98	436
242.639	418
244.297	372
245.955	366
247.612	350
249.268	320
250.924	320
252.58	288
254.236	302
255.891	280
257.546	264
259.2	266
260.854	274
262.507	262
264.16	272
265.812	256
267.463	268
269.115	248
270.766	252
272.417	228
274.067	254
275.717	236
277.365	230
279.014	222
280.663	222
282.311	216
283.958	212
285.605	210
287.252	208
288.898	194
290.543	182
292.188	184
293.833	188
295.477	176
297.121	170
298.765	168
300.407	164
302.05	170
303.693	170
305.334	158
306.975	174
308.615	152
310.256	176
311.896	174
313.535	162
315.175	168
316.813	174
318.451	166
320.089	176
321.726	172
323.362	180
324.999	178
326.635	176
328.271	172
329.905	172
331.54	168
333.174	174
334.807	172
336.441	158
338.074	152
339.707	168
341.338	166
342.969	164
344.601	166
346.231	144
347.861	154
349.491	158
351.12	158
352.749	150
354.378	158
356.006	140
357.633	144
359.261	136
360.887	166
362.513	156
364.139	154
365.764	152
367.39	152
369.014	162
370.638	146
372.261	162
373.884	170
375.508	158
377.13	170
378.752	166
380.373	174
381.994	166
383.615	176
385.235	182
386.854	192
388.473	178
390.092	200
391.711	194
393.328	192
394.947	198
396.564	200
398.181	206
399.797	200
401.412	218
403.027	224
404.642	232
406.257	246
407.871	224
409.484	212
411.098	210
412.711	206
414.323	194
415.935	184
417.547	176
419.158	170
420.768	166
422.378	162
423.988	164
425.597	164
427.206	162
428.814	156
430.422	152
432.03	156
433.637	150
435.243	142
436.85	136
438.456	138
440.062	140
441.666	136
443.271	140
444.876	132
446.479	140
448.082	128
449.685	130
451.287	124
452.89	114
454.492	114
456.092	114
457.693	110
459.293	106
460.893	106
462.492	104
464.092	108
465.691	106
467.288	104
468.887	108
470.483	114
472.081	108
473.677	88
475.273	104
476.869	104
478.463	108
480.059	102
481.653	104
483.247	102
484.84	98
486.433	98
488.026	104
489.618	84
491.21	94
492.801	96
494.392	110
495.983	108
497.573	106
499.162	104
500.752	104
502.341	110
503.929	116
505.517	112
507.105	102
508.692	112
510.279	106
511.865	112
513.45	106
515.037	108
516.621	104
518.206	110
519.79	102
521.374	116
522.957	112
524.54	122
526.123	124
527.705	116
529.287	136
530.868	128
532.448	130
534.029	128
535.609	140
537.188	140
538.768	150
540.346	150
541.925	142
543.502	158
545.08	158
546.657	132
548.234	138
549.81	148
551.386	142
552.961	146
554.536	132
556.11	142
557.684	134
559.258	130
560.832	138
562.405	142
563.977	140
565.55	132
567.12	124
568.692	142
570.263	140
571.833	122
573.403	136
574.973	136
576.542	146
578.111	134
579.679	120
581.247	112
582.815	118
584.382	120
585.948	108
587.514	104
589.081	110
590.645	94
592.211	106
593.775	102
595.339	120
596.904	112
598.466	118
600.03	114
601.592	114
603.154	120
604.715	130
606.277	148
607.838	152
609.398	142
610.958	144
612.518	166
614.077	186
615.636	238
617.194	318
618.753	520
620.31	750
621.867	678
623.424	464
624.98	276
626.537	200
628.092	172
629.647	148
631.202	130
632.756	134
634.31	116
635.864	102
637.417	98
638.969	98
640.521	100
642.074	96
643.625	82
645.176	88
646.726	88
648.276	78
649.827	88
651.376	78
652.925	82
654.473	82
656.021	78
657.569	76
659.117	78
660.664	74
662.21	78
663.757	78
665.302	86
666.847	74
668.392	76
669.937	82
671.481	76
673.025	80
674.568	78
676.111	82
677.653	76
679.195	86
680.737	72
682.279	84
683.82	82
685.36	70
686.9	84
688.44	74
689.979	74
691.517	80
693.056	82
694.594	86
696.132	86
697.669	88
699.206	88
700.742	104
702.278	102
703.814	94
705.35	92
706.884	102
708.419	96
709.953	98
711.487	90
713.019	96
714.552	90
716.085	96
717.617	92
719.148	112
720.68	120
722.21	136
723.741	156
725.271	156
726.8	154
728.33	128
729.858	126
731.387	126
732.915	134
734.443	140
735.97	154
737.497	156
739.023	170
740.549	176
742.075	182
743.6	188
745.125	184
746.65	180
748.173	188
749.697	178
751.22	194
752.743	210
754.266	214
755.788	216
757.309	236
758.831	250
760.351	238
761.871	234
763.392	226
764.912	226
766.431	218
767.95	206
769.468	212
770.986	202
772.504	194
774.022	188
775.538	200
777.055	194
778.571	206
780.086	222
781.602	232
783.117	246
784.632	270
786.146	280
787.659	306
789.173	330
790.685	324
792.198	332
793.71	334
795.222	338
796.733	336
798.244	328
799.755	290
801.265	288
802.775	250
804.284	238
805.793	214
807.302	202
808.81	178
810.318	170
811.826	154
813.333	162
814.84	160
816.346	148
817.851	148
819.357	146
820.862	112
822.367	116
823.871	114
825.376	124
826.878	112
828.382	118
829.885	116
831.387	120
832.889	130
834.391	124
835.892	136
837.392	136
838.893	162
840.393	152
841.893	158
843.392	154
844.891	162
846.389	142
847.888	134
849.386	130
850.882	130
852.38	124
853.876	124
855.372	136
856.868	132
858.363	128
859.858	128
861.353	118
862.847	112
864.341	118
865.834	130
867.328	118
868.82	126
870.313	134
871.805	128
873.296	124
874.787	110
876.278	128
877.769	122
879.258	114
880.748	108
882.237	114
883.726	118
885.214	116
886.702	116
888.19	114
889.677	110
891.164	128
892.651	112
894.137	116
895.623	120
897.108	120
898.593	128
900.077	136
901.562	142
903.046	148
904.529	156
906.012	154
907.495	150
908.977	124
910.459	134
911.941	116
913.422	128
914.903	120
916.383	108
917.863	116
919.343	106
920.822	104
922.301	100
923.779	98
925.257	98
926.735	102
928.213	98
929.69	92
931.166	98
932.643	108
934.119	96
935.594	96
937.069	100
938.543	94
940.018	94
941.492	102
942.966	98
944.439	116
945.911	98
947.384	92
948.856	102
950.328	100
951.799	110
953.27	98
954.741	98
956.21	104
957.68	112
959.15	108
960.619	118
962.088	110
963.556	120
965.023	124
966.491	128
967.958	140
969.425	130
970.891	138
972.357	146
973.824	124
975.288	144
976.754	158
978.218	180
979.682	190
981.146	208
982.609	218
984.072	242
985.534	284
986.997	330
988.459	428
989.92	572
991.382	766
992.842	816
994.302	778
995.763	874
997.222	1236
998.681	2026
1000.14	2890
1001.6	3278
1003.06	2818
1004.52	1966
1005.97	1170
1007.43	698
1008.89	438
1010.34	316
1011.8	252
1013.25	214
1014.71	186
1016.16	176
1017.62	194
1019.07	198
1020.53	222
1021.98	260
1023.43	298
1024.89	404
1026.34	508
1027.79	652
1029.24	754
1030.69	878
1032.14	888
1033.59	834
1035.04	676
1036.49	536
1037.94	402
1039.39	318
1040.84	270
1042.29	222
1043.73	220
1045.18	206
1046.63	182
1048.08	176
1049.52	168
1050.97	160
1052.41	164
1053.86	150
1055.3	150
1056.75	150
1058.19	154
1059.64	162
1061.08	160
1062.52	164
1063.96	162
1065.41	166
1066.85	168
1068.29	176
1069.73	178
1071.17	180
1072.61	176
1074.05	174
1075.49	178
1076.93	164
1078.37	172
1079.81	156
1081.25	176
1082.68	170
1084.12	174
1085.56	172
1087	162
1088.43	172
1089.87	168
1091.3	164
1092.74	164
1094.17	176
1095.61	166
1097.04	170
1098.48	182
1099.91	168
1101.34	168
1102.78	166
1104.21	160
1105.64	144
1107.07	144
1108.5	144
1109.93	146
1111.36	122
1112.8	136
1114.22	124
1115.65	124
1117.08	126
1118.51	110
1119.94	114
1121.37	126
1122.8	110
1124.22	112
1125.65	98
1127.08	100
1128.5	114
1129.93	108
1131.35	106
1132.78	112
1134.2	114
1135.63	114
1137.05	116
1138.48	118
1139.9	126
1141.32	136
1142.75	142
1144.17	150
1145.59	160
1147.01	178
1148.43	184
1149.85	246
1151.27	292
1152.69	366
1154.11	418
1155.53	424
1156.95	388
1158.37	348
1159.79	260
1161.21	252
1162.62	230
1164.04	206
1165.46	208
1166.87	206
1168.29	198
1169.71	212
1171.12	222
1172.54	242
1173.95	256
1175.37	292
1176.78	342
1178.19	412
1179.61	500
1181.02	530
1182.43	500
1183.84	512
1185.26	476
1186.67	436
1188.08	444
1189.49	448
1190.9	460
1192.31	474
1193.72	482
1195.13	500
1196.54	496
1197.95	508
1199.36	472
1200.76	470
1202.17	470
1203.58	446
1204.99	414
1206.39	364
1207.8	336
1209.2	334
1210.61	310
1212.01	264
1213.42	246
1214.82	226
1216.23	212
1217.63	206
1219.03	204
1220.44	202
1221.84	202
1223.24	206
1224.64	198
1226.05	170
1227.45	192
1228.85	198
1230.25	190
1231.65	188
1233.05	176
1234.45	172
1235.85	170
1237.25	176
1238.64	172
1240.04	170
1241.44	178
1242.84	170
1244.23	174
1245.63	162
1247.03	166
1248.42	164
1249.82	166
1251.21	164
1252.61	150
1254	166
1255.4	176
1256.79	170
1258.19	166
1259.58	158
1260.97	168
1262.36	172
1263.76	160
1265.15	162
1266.54	166
1267.93	168
1269.32	168
1270.71	162
1272.1	176
1273.49	158
1274.88	168
1276.27	170
1277.66	176
1279.05	164
1280.43	172
1281.82	168
1283.21	174
1284.6	170
1285.98	162
1287.37	180
1288.75	182
1290.14	184
1291.53	188
1292.91	194
1294.29	214
1295.68	192
1297.06	214
1298.45	210
1299.83	198
1301.21	214
1302.59	222
1303.98	212
1305.36	216
1306.74	240
1308.12	222
1309.5	228
1310.88	232
1312.26	224
1313.64	216
1315.02	248
1316.4	236
1317.78	252
1319.16	260
1320.53	258
1321.91	276
1323.29	276
1324.67	286
1326.04	282
1327.42	286
1328.79	298
1330.17	292
1331.54	316
1332.92	296
1334.29	286
1335.67	298
1337.04	274
1338.42	294
1339.79	272
1341.16	296
1342.53	254
1343.91	266
1345.28	262
1346.65	272
1348.02	254
1349.39	256
1350.76	278
1352.13	258
1353.5	278
1354.87	272
1356.24	262
1357.61	274
1358.98	260
1360.34	276
1361.71	270
1363.08	266
1364.45	266
1365.81	282
1367.18	264
1368.54	274
1369.91	264
1371.28	266
1372.64	278
1374.01	270
1375.37	270
1376.73	256
1378.1	264
1379.46	260
1380.82	274
1382.19	256
1383.55	260
1384.91	250
1386.27	252
1387.63	230
1388.99	226
1390.35	226
1391.71	224
1393.07	240
1394.43	228
1395.79	236
1397.15	240
1398.51	236
1399.87	234
1401.23	236
1402.58	242
1403.94	228
1405.3	240
1406.65	224
1408.01	218
1409.37	230
1410.72	214
1412.08	228
1413.43	228
1414.79	224
1416.14	202
1417.49	214
1418.85	222
1420.2	222
1421.55	222
1422.91	218
1424.26	224
1425.61	214
1426.96	210
1428.31	220
1429.66	224
1431.01	228
1432.36	230
1433.71	242
1435.06	240
1436.41	256
1437.76	260
1439.11	268
1440.46	288
1441.81	268
1443.15	292
1444.5	298
1445.85	334
1447.19	322
1448.54	348
1449.89	322
1451.23	310
1452.58	326
1453.92	286
1455.27	274
1456.61	276
1457.95	238
1459.3	248
1460.64	220
1461.98	190
1463.33	200
1464.67	200
1466.01	200
1467.35	196
1468.69	188
1470.03	188
1471.37	190
1472.71	186
1474.05	176
1475.39	172
1476.73	178
1478.07	170
1479.41	180
1480.75	170
1482.09	168
1483.42	176
1484.76	182
1486.1	172
1487.43	172
1488.77	176
1490.11	170
1491.44	178
1492.78	188
1494.11	192
1495.45	166
1496.78	174
1498.12	164
1499.45	172
1500.78	154
1502.11	172
1503.45	178
1504.78	172
1506.11	160
1507.44	172
1508.77	166
1510.11	162
1511.44	166
1512.77	158
1514.1	150
1515.43	166
1516.76	148
1518.08	158
1519.41	162
1520.74	168
1522.07	166
1523.4	172
1524.72	156
1526.05	158
1527.38	166
1528.7	150
1530.03	154
1531.36	150
1532.68	166
1534.01	164
1535.33	168
1536.66	150
1537.98	160
1539.3	164
1540.63	154
1541.95	154
1543.27	156
1544.6	156
1545.92	162
1547.24	166
1548.56	156
1549.88	152
1551.2	156
1552.52	164
1553.84	140
1555.17	154
1556.48	146
1557.8	146
1559.12	168
1560.44	164
1561.76	154
1563.08	158
1564.4	178
1565.71	160
1567.03	176
1568.35	184
1569.66	176
1570.98	190
1572.29	190
1573.61	182
1574.93	200
1576.24	226
1577.55	234
1578.87	270
1580.18	314
1581.5	392
1582.81	414
1584.12	398
1585.43	356
1586.75	294
1588.06	256
1589.37	270
1590.68	246
1591.99	260
1593.3	256
1594.61	308
1595.92	348
1597.23	426
1598.54	526
1599.85	606
1601.16	684
1602.47	664
1603.78	658
1605.08	528
1606.39	466
1607.7	366
1609	310
1610.31	286
1611.62	224
1612.92	218
1614.23	208
1615.53	194
1616.84	178
1618.14	180
1619.45	174
1620.75	170
1622.06	170
1623.36	166
1624.66	154
1625.96	170
1627.27	150
1628.57	156
1629.87	154
1631.17	160
1632.47	150
1633.77	138
1635.07	154
1636.37	150
1637.67	152
1638.97	144
1640.27	144
1641.57	152
1642.87	148
1644.17	162
1645.47	148
1646.76	134
1648.06	154
1649.36	158
1650.66	154
1651.95	148
1653.25	144
1654.54	132
1655.84	126
1657.13	146
1658.43	120
1659.72	126
1661.02	126
1662.31	134
1663.6	134
1664.9	134
1666.19	122
1667.48	130
1668.78	130
1670.07	136
1671.36	126
1672.65	126
1673.94	126
1675.23	132
1676.52	120
1677.81	130
1679.1	120
1680.39	128
1681.68	122
1682.97	122
1684.26	122
1685.55	134
1686.83	126
1688.12	124
1689.41	124
1690.7	118
1691.98	128
1693.27	120
1694.55	130
1695.84	118
1697.13	114
1698.41	118
1699.69	118
1700.98	120
1702.26	122