File: Jesse_Dataset_v2/Pure Raman/Polystyrene/785nm/ps-ppo-6jan25-1,0000-map3_Y05_X03.txt
204.377	860
206.045	872
207.713	854
209.38	902
211.048	898
212.715	908
214.381	898
216.047	930
217.712	938
219.377	920
221.042	932
222.706	890
224.369	860
226.032	902
227.695	812
229.357	788
231.019	720
232.68	708
234.341	644
236.001	614
237.661	566
239.321	518
240.98	488
242.639	444
244.297	356
245.955	368
247.612	360
249.268	342
250.924	330
252.58	310
254.236	310
255.891	292
257.546	294
259.2	290
260.854	286
262.507	284
264.16	292
265.812	260
267.463	278
269.115	268
270.766	250
272.417	254
274.067	236
275.717	236
277.365	242
279.014	250
280.663	244
282.311	232
283.958	224
285.605	210
287.252	214
288.898	200
290.543	204
292.188	194
293.833	190
295.477	190
297.121	184
298.765	186
300.407	190
302.05	176
303.693	172
305.334	172
306.975	174
308.615	184
310.256	174
311.896	188
313.535	172
315.175	180
316.813	186
318.451	188
320.089	188
321.726	182
323.362	196
324.999	180
326.635	186
328.271	170
329.905	176
331.54	180
333.174	164
334.807	178
336.441	188
338.074	162
339.707	162
341.338	180
342.969	178
344.601	168
346.231	176
347.861	176
349.491	170
351.12	148
352.749	158
354.378	164
356.006	158
357.633	172
359.261	158
360.887	166
362.513	150
364.139	170
365.764	162
367.39	162
369.014	164
370.638	172
372.261	172
373.884	164
375.508	172
377.13	176
378.752	184
380.373	184
381.994	182
383.615	188
385.235	202
386.854	202
388.473	172
390.092	204
391.711	220
393.328	194
394.947	196
396.564	196
398.181	220
399.797	208
401.412	230
403.027	236
404.642	240
406.257	242
407.871	248
409.484	232
411.098	222
412.711	212
414.323	208
415.935	192
417.547	188
419.158	188
420.768	180
422.378	180
423.988	174
425.597	166
427.206	158
428.814	170
430.422	172
432.03	160
433.637	162
435.243	136
436.85	156
438.456	142
440.062	148
441.666	146
443.271	156
444.876	136
446.479	130
448.082	134
449.685	140
451.287	130
452.89	138
454.492	120
456.092	138
457.693	128
459.293	122
460.893	120
462.492	108
464.092	112
465.691	110
467.288	116
468.887	116
470.483	118
472.081	114
473.677	110
475.273	110
476.869	118
478.463	118
480.059	114
481.653	110
483.247	116
484.84	114
486.433	110
488.026	116
489.618	114
491.21	112
492.801	110
494.392	122
495.983	116
497.573	112
499.162	132
500.752	126
502.341	130
503.929	112
505.517	126
507.105	108
508.692	114
510.279	120
511.865	110
513.45	124
515.037	114
516.621	124
518.206	106
519.79	120
521.374	126
522.957	124
524.54	128
526.123	128
527.705	138
529.287	142
530.868	140
532.448	134
534.029	142
535.609	152
537.188	154
538.768	150
540.346	166
541.925	164
543.502	164
545.08	154
546.657	148
548.234	156
549.81	152
551.386	154
552.961	146
554.536	148
556.11	146
557.684	146
559.258	146
560.832	148
562.405	146
563.977	158
565.55	144
567.12	136
568.692	144
570.263	152
571.833	150
573.403	150
574.973	156
576.542	144
578.111	144
579.679	130
581.247	130
582.815	122
584.382	118
585.948	118
587.514	124
589.081	116
590.645	108
592.211	122
593.775	122
595.339	112
596.904	122
598.466	126
600.03	128
601.592	128
603.154	132
604.715	140
606.277	156
607.838	166
609.398	146
610.958	158
612.518	152
614.077	184
615.636	240
617.194	320
618.753	522
620.31	720
621.867	696
623.424	462
624.98	282
626.537	208
628.092	164
629.647	170
631.202	146
632.756	134
634.31	132
635.864	102
637.417	96
638.969	98
640.521	98
642.074	98
643.625	86
645.176	96
646.726	86
648.276	94
649.827	80
651.376	98
652.925	84
654.473	78
656.021	76
657.569	82
659.117	80
660.664	84
662.21	84
663.757	84
665.302	82
666.847	90
668.392	84
669.937	80
671.481	88
673.025	88
674.568	90
676.111	84
677.653	80
679.195	74
680.737	82
682.279	84
683.82	82
685.36	84
686.9	82
688.44	78
689.979	88
691.517	84
693.056	86
694.594	88
696.132	82
697.669	92
699.206	98
700.742	94
702.278	98
703.814	110
705.35	98
706.884	104
708.419	98
709.953	94
711.487	104
713.019	104
714.552	102
716.085	106
717.617	90
719.148	108
720.68	128
722.21	142
723.741	142
725.271	168
726.8	146
728.33	142
729.858	138
731.387	116
732.915	132
734.443	142
735.97	154
737.497	162
739.023	180
740.549	190
742.075	192
743.6	178
745.125	192
746.65	196
748.173	196
749.697	198
751.22	204
752.743	218
754.266	204
755.788	224
757.309	238
758.831	230
760.351	228
761.871	230
763.392	236
764.912	226
766.431	222
767.95	216
769.468	218
770.986	198
772.504	214
774.022	200
775.538	194
777.055	208
778.571	204
780.086	222
781.602	226
783.117	238
784.632	244
786.146	272
787.659	290
789.173	328
790.685	336
792.198	338
793.71	358
795.222	350
796.733	340
798.244	336
799.755	320
801.265	268
802.775	268
804.284	222
805.793	212
807.302	210
808.81	192
810.318	176
811.826	186
813.333	164
814.84	154
816.346	150
817.851	142
819.357	140
820.862	126
822.367	118
823.871	114
825.376	122
826.878	108
828.382	124
829.885	118
831.387	120
832.889	132
834.391	136
835.892	136
837.392	154
838.893	152
840.393	162
841.893	166
843.392	162
844.891	146
846.389	152
847.888	148
849.386	136
850.882	144
852.38	132
853.876	128
855.372	126
856.868	122
858.363	126
859.858	122
861.353	132
862.847	132
864.341	126
865.834	144
867.328	140
868.82	124
870.313	134
871.805	126
873.296	132
874.787	122
876.278	132
877.769	124
879.258	126
880.748	114
882.237	120
883.726	128
885.214	106
886.702	118
888.19	122
889.677	120
891.164	128
892.651	112
894.137	106
895.623	126
897.108	116
898.593	124
900.077	136
901.562	142
903.046	148
904.529	164
906.012	146
907.495	150
908.977	146
910.459	140
911.941	140
913.422	122
914.903	126
916.383	120
917.863	108
919.343	104
920.822	102
922.301	92
923.779	102
925.257	102
926.735	100
928.213	100
929.69	96
931.166	106
932.643	102
934.119	104
935.594	104
937.069	100
938.543	94
940.018	106
941.492	104
942.966	102
944.439	108
945.911	102
947.384	112
948.856	100
950.328	104
951.799	104
953.27	100
954.741	112
956.21	110
957.68	114
959.15	118
960.619	118
962.088	122
963.556	124
965.023	140
966.491	128
967.958	134
969.425	136
970.891	136
972.357	136
973.824	124
975.288	164
976.754	152
978.218	162
979.682	182
981.146	208
982.609	218
984.072	256
985.534	274
986.997	310
988.459	420
989.92	566
991.382	774
992.842	812
994.302	792
995.763	838
997.222	1190
998.681	1936
1000.14	2848
1001.6	3318
1003.06	2870
1004.52	1958
1005.97	1172
1007.43	682
1008.89	420
1010.34	322
1011.8	254
1013.25	212
1014.71	188
1016.16	194
1017.62	192
1019.07	202
1020.53	230
1021.98	262
1023.43	312
1024.89	374
1026.34	518
1027.79	632
1029.24	772
1030.69	872
1032.14	928
1033.59	800
1035.04	682
1036.49	542
1037.94	402
1039.39	322
1040.84	288
1042.29	234
1043.73	224
1045.18	188
1046.63	192
1048.08	164
1049.52	174
1050.97	160
1052.41	166
1053.86	156
1055.3	154
1056.75	170
1058.19	150
1059.64	158
1061.08	160
1062.52	154
1063.96	164
1065.41	174
1066.85	170
1068.29	174
1069.73	174
1071.17	180
1072.61	180
1074.05	168
1075.49	172
1076.93	178
1078.37	178
1079.81	166
1081.25	174
1082.68	172
1084.12	170
1085.56	162
1087	164
1088.43	170
1089.87	162
1091.3	158
1092.74	170
1094.17	166
1095.61	176
1097.04	182
1098.48	178
1099.91	162
1101.34	174
1102.78	152
1104.21	156
1105.64	138
1107.07	142
1108.5	136
1109.93	132
1111.36	134
1112.8	136
1114.22	118
1115.65	130
1117.08	132
1118.51	120
1119.94	128
1121.37	112
1122.8	104
1124.22	122
1125.65	108
1127.08	112
1128.5	110
1129.93	108
1131.35	110
1132.78	108
1134.2	108
1135.63	106
1137.05	118
1138.48	132
1139.9	118
1141.32	132
1142.75	142
1144.17	144
1145.59	164
1147.01	166
1148.43	208
1149.85	238
1151.27	298
1152.69	366
1154.11	414
1155.53	414
1156.95	402
1158.37	348
1159.79	308
1161.21	254
1162.62	218
1164.04	220
1165.46	210
1166.87	202
1168.29	196
1169.71	220
1171.12	222
1172.54	228
1173.95	272
1175.37	294
1176.78	350
1178.19	418
1179.61	478
1181.02	532
1182.43	506
1183.84	504
1185.26	474
1186.67	438
1188.08	430
1189.49	444
1190.9	462
1192.31	496
1193.72	498
1195.13	490
1196.54	500
1197.95	508
1199.36	524
1200.76	482
1202.17	476
1203.58	450
1204.99	416
1206.39	374
1207.8	356
1209.2	328
1210.61	272
1212.01	272
1213.42	242
1214.82	236
1216.23	240
1217.63	220
1219.03	212
1220.44	210
1221.84	196
1223.24	202
1224.64	186
1226.05	188
1227.45	190
1228.85	182
1230.25	178
1231.65	182
1233.05	182
1234.45	178
1235.85	166
1237.25	174
1238.64	160
1240.04	176
1241.44	184
1242.84	178
1244.23	166
1245.63	162
1247.03	178
1248.42	170
1249.82	168
1251.21	164
1252.61	166
1254	156
1255.4	160
1256.79	174
1258.19	168
1259.58	174
1260.97	192
1262.36	180
1263.76	168
1265.15	166
1266.54	164
1267.93	164
1269.32	170
1270.71	162
1272.1	174
1273.49	164
1274.88	158
1276.27	184
1277.66	170
1279.05	170
1280.43	160
1281.82	174
1283.21	180
1284.6	164
1285.98	180
1287.37	182
1288.75	184
1290.14	196
1291.53	200
1292.91	206
1294.29	200
1295.68	200
1297.06	216
1298.45	208
1299.83	194
1301.21	206
1302.59	220
1303.98	216
1305.36	220
1306.74	216
1308.12	234
1309.5	230
1310.88	224
1312.26	230
1313.64	232
1315.02	230
1316.4	246
1317.78	256
1319.16	268
1320.53	282
1321.91	274
1323.29	286
1324.67	290
1326.04	304
1327.42	292
1328.79	304
1330.17	290
1331.54	306
1332.92	288
1334.29	290
1335.67	294
1337.04	302
1338.42	282
1339.79	276
1341.16	274
1342.53	260
1343.91	250
1345.28	254
1346.65	246
1348.02	256
1349.39	272
1350.76	256
1352.13	258
1353.5	260
1354.87	272
1356.24	278
1357.61	252
1358.98	262
1360.34	268
1361.71	268
1363.08	272
1364.45	266
1365.81	254
1367.18	274
1368.54	282
1369.91	284
1371.28	268
1372.64	284
1374.01	274
1375.37	270
1376.73	284
1378.1	274
1379.46	274
1380.82	262
1382.19	270
1383.55	260
1384.91	244
1386.27	244
1387.63	258
1388.99	232
1390.35	240
1391.71	230
1393.07	216
1394.43	232
1395.79	230
1397.15	226
1398.51	216
1399.87	238
1401.23	230
1402.58	244
1403.94	228
1405.3	226
1406.65	240
1408.01	224
1409.37	224
1410.72	230
1412.08	230
1413.43	232
1414.79	218
1416.14	228
1417.49	212
1418.85	218
1420.2	212
1421.55	210
1422.91	194
1424.26	196
1425.61	204
1426.96	236
1428.31	206
1429.66	230
1431.01	226
1432.36	236
1433.71	234
1435.06	252
1436.41	258
1437.76	266
1439.11	278
1440.46	276
1441.81	272
1443.15	312
1444.5	300
1445.85	318
1447.19	320
1448.54	318
1449.89	322
1451.23	326
1452.58	328
1453.92	312
1455.27	300
1456.61	272
1457.95	244
1459.3	234
1460.64	214
1461.98	210
1463.33	188
1464.67	200
1466.01	188
1467.35	190
1468.69	176
1470.03	184
1471.37	192
1472.71	196
1474.05	176
1475.39	184
1476.73	174
1478.07	190
1479.41	186
1480.75	196
1482.09	172
1483.42	172
1484.76	176
1486.1	182
1487.43	192
1488.77	178
1490.11	186
1491.44	180
1492.78	184
1494.11	188
1495.45	172
1496.78	182
1498.12	174
1499.45	182
1500.78	174
1502.11	182
1503.45	164
1504.78	176
1506.11	164
1507.44	172
1508.77	170
1510.11	178
1511.44	164
1512.77	158
1514.1	160
1515.43	158
1516.76	162
1518.08	142
1519.41	170
1520.74	172
1522.07	162
1523.4	168
1524.72	164
1526.05	160
1527.38	166
1528.7	162
1530.03	162
1531.36	164
1532.68	162
1534.01	172
1535.33	154
1536.66	164
1537.98	160
1539.3	154
1540.63	146
1541.95	170
1543.27	166
1544.6	162
1545.92	168
1547.24	160
1548.56	166
1549.88	164
1551.2	160
1552.52	154
1553.84	154
1555.17	156
1556.48	144
1557.8	166
1559.12	166
1560.44	158
1561.76	174
1563.08	170
1564.4	166
1565.71	158
1567.03	192
1568.35	174
1569.66	180
1570.98	190
1572.29	200
1573.61	182
1574.93	208
1576.24	196
1577.55	238
1578.87	266
1580.18	310
1581.5	390
1582.81	406
1584.12	406
1585.43	336
1586.75	272
1588.06	260
1589.37	240
1590.68	242
1591.99	270
1593.3	276
1594.61	294
1595.92	362
1597.23	404
1598.54	526
1599.85	622
1601.16	688
1602.47	686
1603.78	654
1605.08	584
1606.39	472
1607.7	376
1609	310
1610.31	278
1611.62	244
1612.92	218
1614.23	196
1615.53	202
1616.84	192
1618.14	182
1619.45	174
1620.75	170
1622.06	166
1623.36	166
1624.66	166
1625.96	158
1627.27	156
1628.57	154
1629.87	156
1631.17	148
1632.47	146
1633.77	146
1635.07	148
1636.37	154
1637.67	150
1638.97	144
1640.27	148
1641.57	150
1642.87	166
1644.17	138
1645.47	156
1646.76	144
1648.06	148
1649.36	154
1650.66	148
1651.95	134
1653.25	152
1654.54	138
1655.84	136
1657.13	140
1658.43	138
1659.72	126
1661.02	146
1662.31	128
1663.6	138
1664.9	136
1666.19	122
1667.48	120
1668.78	134
1670.07	134
1671.36	128
1672.65	126
1673.94	134
1675.23	136
1676.52	128
1677.81	130
1679.1	126
1680.39	136
1681.68	116
1682.97	122
1684.26	134
1685.55	128
1686.83	120
1688.12	122
1689.41	114
1690.7	136
1691.98	122
1693.27	124
1694.55	128
1695.84	118
1697.13	118
1698.41	108
1699.69	128
1700.98	122
1702.26	108