File: Jesse_Dataset_v2/Pure Raman/Polystyrene/785nm/ps-ppo-6jan25-1,0000-map3_Y02_X05.txt
204.377	848
206.045	856
207.713	852
209.38	880
211.048	838
212.715	896
214.381	904
216.047	914
217.712	892
219.377	914
221.042	948
222.706	886
224.369	896
226.032	840
227.695	816
229.357	780
231.019	720
232.68	672
234.341	652
236.001	588
237.661	532
239.321	472
240.98	432
242.639	408
244.297	380
245.955	362
247.612	330
249.268	322
250.924	296
252.58	314
254.236	290
255.891	286
257.546	270
259.2	280
260.854	276
262.507	280
264.16	262
265.812	268
267.463	254
269.115	244
270.766	248
272.417	246
274.067	240
275.717	236
277.365	242
279.014	226
280.663	228
282.311	218
283.958	216
285.605	222
287.252	204
288.898	190
290.543	184
292.188	176
293.833	178
295.477	160
297.121	174
298.765	158
300.407	170
302.05	152
303.693	178
305.334	164
306.975	156
308.615	174
310.256	162
311.896	160
313.535	168
315.175	166
316.813	174
318.451	166
320.089	170
321.726	174
323.362	168
324.999	154
326.635	164
328.271	166
329.905	164
331.54	174
333.174	156
334.807	174
336.441	162
338.074	174
339.707	150
341.338	146
342.969	150
344.601	160
346.231	150
347.861	146
349.491	142
351.12	156
352.749	150
354.378	146
356.006	144
357.633	142
359.261	146
360.887	146
362.513	142
364.139	136
365.764	148
367.39	146
369.014	152
370.638	138
372.261	158
373.884	164
375.508	158
377.13	154
378.752	166
380.373	172
381.994	152
383.615	174
385.235	180
386.854	184
388.473	184
390.092	184
391.711	188
393.328	184
394.947	196
396.564	188
398.181	194
399.797	190
401.412	222
403.027	214
404.642	230
406.257	224
407.871	236
409.484	222
411.098	210
412.711	192
414.323	202
415.935	180
417.547	178
419.158	170
420.768	164
422.378	158
423.988	156
425.597	146
427.206	150
428.814	144
430.422	142
432.03	140
433.637	124
435.243	132
436.85	130
438.456	128
440.062	140
441.666	132
443.271	126
444.876	128
446.479	124
448.082	116
449.685	118
451.287	112
452.89	112
454.492	112
456.092	116
457.693	100
459.293	110
460.893	108
462.492	94
464.092	108
465.691	114
467.288	100
468.887	98
470.483	112
472.081	112
473.677	104
475.273	100
476.869	102
478.463	100
480.059	104
481.653	98
483.247	90
484.84	94
486.433	96
488.026	94
489.618	94
491.21	98
492.801	100
494.392	90
495.983	100
497.573	106
499.162	106
500.752	108
502.341	100
503.929	106
505.517	108
507.105	108
508.692	106
510.279	102
511.865	100
513.45	104
515.037	100
516.621	104
518.206	106
519.79	104
521.374	118
522.957	108
524.54	122
526.123	114
527.705	116
529.287	116
530.868	112
532.448	130
534.029	132
535.609	146
537.188	142
538.768	146
540.346	154
541.925	146
543.502	152
545.08	136
546.657	148
548.234	138
549.81	134
551.386	138
552.961	136
554.536	122
556.11	144
557.684	132
559.258	138
560.832	134
562.405	138
563.977	136
565.55	144
567.12	136
568.692	132
570.263	138
571.833	132
573.403	144
574.973	138
576.542	126
578.111	120
579.679	118
581.247	122
582.815	110
584.382	106
585.948	108
587.514	110
589.081	108
590.645	108
592.211	114
593.775	106
595.339	122
596.904	110
598.466	112
600.03	112
601.592	108
603.154	120
604.715	138
606.277	140
607.838	156
609.398	136
610.958	142
612.518	158
614.077	182
615.636	232
617.194	304
618.753	508
620.31	712
621.867	686
623.424	480
624.98	288
626.537	194
628.092	168
629.647	148
631.202	126
632.756	98
634.31	116
635.864	96
637.417	98
638.969	86
640.521	90
642.074	82
643.625	82
645.176	80
646.726	74
648.276	70
649.827	86
651.376	70
652.925	80
654.473	76
656.021	80
657.569	72
659.117	78
660.664	80
662.21	76
663.757	78
665.302	76
666.847	76
668.392	76
669.937	68
671.481	78
673.025	76
674.568	74
676.111	78
677.653	82
679.195	74
680.737	72
682.279	74
683.82	70
685.36	72
686.9	66
688.44	78
689.979	76
691.517	76
693.056	74
694.594	78
696.132	80
697.669	86
699.206	90
700.742	98
702.278	94
703.814	96
705.35	98
706.884	96
708.419	98
709.953	88
711.487	88
713.019	94
714.552	92
716.085	96
717.617	100
719.148	110
720.68	110
722.21	130
723.741	144
725.271	148
726.8	146
728.33	124
729.858	124
731.387	108
732.915	124
734.443	122
735.97	148
737.497	166
739.023	182
740.549	174
742.075	194
743.6	188
745.125	188
746.65	188
748.173	178
749.697	194
751.22	186
752.743	202
754.266	216
755.788	214
757.309	228
758.831	228
760.351	244
761.871	228
763.392	220
764.912	230
766.431	204
767.95	210
769.468	204
770.986	200
772.504	202
774.022	212
775.538	194
777.055	180
778.571	212
780.086	200
781.602	218
783.117	238
784.632	252
786.146	274
787.659	280
789.173	304
790.685	294
792.198	310
793.71	350
795.222	354
796.733	338
798.244	316
799.755	306
801.265	274
802.775	242
804.284	230
805.793	204
807.302	202
808.81	190
810.318	192
811.826	168
813.333	168
814.84	148
816.346	146
817.851	128
819.357	122
820.862	118
822.367	108
823.871	110
825.376	106
826.878	112
828.382	108
829.885	98
831.387	122
832.889	130
834.391	128
835.892	138
837.392	134
838.893	132
840.393	152
841.893	164
843.392	154
844.891	160
846.389	144
847.888	132
849.386	142
850.882	132
852.38	122
853.876	124
855.372	118
856.868	118
858.363	114
859.858	112
861.353	122
862.847	124
864.341	120
865.834	130
867.328	126
868.82	128
870.313	118
871.805	118
873.296	108
874.787	118
876.278	116
877.769	114
879.258	120
880.748	114
882.237	116
883.726	114
885.214	110
886.702	104
888.19	98
889.677	108
891.164	112
892.651	106
894.137	116
895.623	120
897.108	112
898.593	114
900.077	122
901.562	132
903.046	138
904.529	148
906.012	144
907.495	142
908.977	148
910.459	132
911.941	134
913.422	114
914.903	112
916.383	112
917.863	112
919.343	108
920.822	102
922.301	94
923.779	92
925.257	92
926.735	86
928.213	94
929.69	94
931.166	102
932.643	86
934.119	98
935.594	108
937.069	92
938.543	98
940.018	96
941.492	90
942.966	102
944.439	98
945.911	96
947.384	102
948.856	100
950.328	96
951.799	88
953.27	104
954.741	108
956.21	108
957.68	104
959.15	114
960.619	102
962.088	118
963.556	126
965.023	114
966.491	134
967.958	120
969.425	122
970.891	124
972.357	126
973.824	130
975.288	146
976.754	160
978.218	152
979.682	162
981.146	188
982.609	216
984.072	224
985.534	278
986.997	312
988.459	404
989.92	578
991.382	760
992.842	838
994.302	768
995.763	874
997.222	1236
998.681	1958
1000.14	2880
1001.6	3352
1003.06	2888
1004.52	2008
1005.97	1188
1007.43	696
1008.89	470
1010.34	318
1011.8	248
1013.25	208
1014.71	190
1016.16	178
1017.62	184
1019.07	174
1020.53	234
1021.98	258
1023.43	310
1024.89	382
1026.34	486
1027.79	650
1029.24	750
1030.69	844
1032.14	872
1033.59	830
1035.04	656
1036.49	520
1037.94	400
1039.39	314
1040.84	270
1042.29	224
1043.73	212
1045.18	194
1046.63	162
1048.08	178
1049.52	172
1050.97	154
1052.41	148
1053.86	158
1055.3	158
1056.75	158
1058.19	142
1059.64	154
1061.08	154
1062.52	150
1063.96	162
1065.41	162
1066.85	168
1068.29	164
1069.73	180
1071.17	170
1072.61	172
1074.05	190
1075.49	176
1076.93	170
1078.37	174
1079.81	160
1081.25	168
1082.68	166
1084.12	166
1085.56	158
1087	164
1088.43	152
1089.87	154
1091.3	170
1092.74	158
1094.17	172
1095.61	180
1097.04	182
1098.48	174
1099.91	154
1101.34	174
1102.78	162
1104.21	156
1105.64	148
1107.07	140
1108.5	128
1109.93	108
1111.36	132
1112.8	128
1114.22	118
1115.65	128
1117.08	118
1118.51	116
1119.94	116
1121.37	108
1122.8	104
1124.22	108
1125.65	110
1127.08	110
1128.5	98
1129.93	100
1131.35	110
1132.78	104
1134.2	108
1135.63	110
1137.05	116
1138.48	114
1139.9	124
1141.32	128
1142.75	130
1144.17	138
1145.59	152
1147.01	184
1148.43	192
1149.85	222
1151.27	290
1152.69	346
1154.11	422
1155.53	408
1156.95	372
1158.37	334
1159.79	298
1161.21	260
1162.62	224
1164.04	220
1165.46	202
1166.87	214
1168.29	206
1169.71	210
1171.12	212
1172.54	232
1173.95	274
1175.37	294
1176.78	350
1178.19	406
1179.61	480
1181.02	526
1182.43	504
1183.84	478
1185.26	444
1186.67	416
1188.08	418
1189.49	424
1190.9	460
1192.31	490
1193.72	492
1195.13	498
1196.54	492
1197.95	510
1199.36	494
1200.76	460
1202.17	448
1203.58	448
1204.99	414
1206.39	370
1207.8	364
1209.2	334
1210.61	306
1212.01	274
1213.42	234
1214.82	228
1216.23	222
1217.63	214
1219.03	206
1220.44	206
1221.84	210
1223.24	198
1224.64	190
1226.05	194
1227.45	196
1228.85	186
1230.25	178
1231.65	166
1233.05	168
1234.45	176
1235.85	168
1237.25	166
1238.64	170
1240.04	170
1241.44	162
1242.84	166
1244.23	168
1245.63	162
1247.03	152
1248.42	164
1249.82	168
1251.21	160
1252.61	172
1254	168
1255.4	156
1256.79	162
1258.19	158
1259.58	166
1260.97	172
1262.36	168
1263.76	168
1265.15	162
1266.54	182
1267.93	156
1269.32	154
1270.71	164
1272.1	158
1273.49	168
1274.88	176
1276.27	168
1277.66	160
1279.05	170
1280.43	168
1281.82	182
1283.21	170
1284.6	172
1285.98	172
1287.37	186
1288.75	172
1290.14	174
1291.53	184
1292.91	194
1294.29	192
1295.68	194
1297.06	204
1298.45	198
1299.83	210
1301.21	204
1302.59	216
1303.98	210
1305.36	224
1306.74	222
1308.12	240
1309.5	220
1310.88	224
1312.26	228
1313.64	232
1315.02	230
1316.4	252
1317.78	258
1319.16	258
1320.53	272
1321.91	258
1323.29	282
1324.67	280
1326.04	284
1327.42	286
1328.79	288
1330.17	284
1331.54	292
1332.92	298
1334.29	290
1335.67	280
1337.04	282
1338.42	290
1339.79	264
1341.16	260
1342.53	268
1343.91	240
1345.28	250
1346.65	262
1348.02	244
1349.39	244
1350.76	280
1352.13	270
1353.5	266
1354.87	250
1356.24	252
1357.61	264
1358.98	270
1360.34	268
1361.71	248
1363.08	256
1364.45	280
1365.81	278
1367.18	280
1368.54	290
1369.91	260
1371.28	260
1372.64	280
1374.01	268
1375.37	276
1376.73	286
1378.1	270
1379.46	266
1380.82	264
1382.19	246
1383.55	242
1384.91	252
1386.27	254
1387.63	236
1388.99	226
1390.35	238
1391.71	228
1393.07	244
1394.43	242
1395.79	244
1397.15	212
1398.51	214
1399.87	240
1401.23	242
1402.58	224
1403.94	230
1405.3	212
1406.65	222
1408.01	220
1409.37	230
1410.72	208
1412.08	216
1413.43	222
1414.79	226
1416.14	208
1417.49	232
1418.85	212
1420.2	218
1421.55	222
1422.91	210
1424.26	206
1425.61	220
1426.96	218
1428.31	224
1429.66	214
1431.01	222
1432.36	224
1433.71	242
1435.06	240
1436.41	254
1437.76	262
1439.11	276
1440.46	300
1441.81	288
1443.15	286
1444.5	304
1445.85	314
1447.19	334
1448.54	326
1449.89	326
1451.23	316
1452.58	318
1453.92	316
1455.27	278
1456.61	266
1457.95	256
1459.3	222
1460.64	214
1461.98	212
1463.33	204
1464.67	196
1466.01	196
1467.35	194
1468.69	192
1470.03	202
1471.37	188
1472.71	172
1474.05	196
1475.39	182
1476.73	176
1478.07	174
1479.41	178
1480.75	180
1482.09	164
1483.42	176
1484.76	164
1486.1	170
1487.43	160
1488.77	178
1490.11	182
1491.44	172
1492.78	192
1494.11	194
1495.45	174
1496.78	180
1498.12	170
1499.45	176
1500.78	158
1502.11	172
1503.45	168
1504.78	154
1506.11	168
1507.44	172
1508.77	156
1510.11	158
1511.44	168
1512.77	160
1514.1	160
1515.43	168
1516.76	164
1518.08	168
1519.41	164
1520.74	164
1522.07	160
1523.4	162
1524.72	162
1526.05	148
1527.38	154
1528.7	164
1530.03	166
1531.36	162
1532.68	164
1534.01	162
1535.33	166
1536.66	158
1537.98	156
1539.3	166
1540.63	158
1541.95	152
1543.27	156
1544.6	156
1545.92	142
1547.24	156
1548.56	168
1549.88	158
1551.2	166
1552.52	158
1553.84	148
1555.17	160
1556.48	166
1557.8	160
1559.12	162
1560.44	156
1561.76	170
1563.08	168
1564.4	166
1565.71	162
1567.03	172
1568.35	192
1569.66	178
1570.98	168
1572.29	186
1573.61	190
1574.93	200
1576.24	224
1577.55	222
1578.87	252
1580.18	324
1581.5	390
1582.81	412
1584.12	398
1585.43	350
1586.75	294
1588.06	266
1589.37	244
1590.68	252
1591.99	250
1593.3	264
1594.61	310
1595.92	344
1597.23	434
1598.54	514
1599.85	596
1601.16	674
1602.47	670
1603.78	630
1605.08	562
1606.39	448
1607.7	382
1609	314
1610.31	272
1611.62	248
1612.92	226
1614.23	204
1615.53	188
1616.84	200
1618.14	184
1619.45	184
1620.75	168
1622.06	170
1623.36	164
1624.66	158
1625.96	158
1627.27	162
1628.57	148
1629.87	148
1631.17	152
1632.47	148
1633.77	150
1635.07	148
1636.37	150
1637.67	152
1638.97	146
1640.27	142
1641.57	156
1642.87	146
1644.17	158
1645.47	154
1646.76	150
1648.06	166
1649.36	148
1650.66	152
1651.95	142
1653.25	144
1654.54	130
1655.84	132
1657.13	144
1658.43	136
1659.72	142
1661.02	136
1662.31	126
1663.6	128
1664.9	124
1666.19	122
1667.48	126
1668.78	128
1670.07	134
1671.36	124
1672.65	136
1673.94	128
1675.23	124
1676.52	128
1677.81	120
1679.1	122
1680.39	130
1681.68	132
1682.97	130
1684.26	116
1685.55	120
1686.83	120
1688.12	122
1689.41	120
1690.7	130
1691.98	122
1693.27	122
1694.55	122
1695.84	124
1697.13	112
1698.41	122
1699.69	116
1700.98	112
1702.26	112