File: Jesse_Dataset_v2/Pure Raman/Polystyrene/785nm/ps-ppo-6jan25-1,0000-map3_Y09_X07.txt
204.377	860
206.045	852
207.713	860
209.38	882
211.048	906
212.715	892
214.381	914
216.047	916
217.712	928
219.377	934
221.042	912
222.706	908
224.369	888
226.032	844
227.695	802
229.357	778
231.019	724
232.68	724
234.341	624
236.001	578
237.661	550
239.321	528
240.98	464
242.639	426
244.297	378
245.955	366
247.612	356
249.268	320
250.924	310
252.58	316
254.236	298
255.891	286
257.546	288
259.2	274
260.854	256
262.507	274
264.16	264
265.812	260
267.463	284
269.115	260
270.766	268
272.417	270
274.067	252
275.717	234
277.365	244
279.014	250
280.663	232
282.311	216
283.958	218
285.605	200
287.252	210
288.898	208
290.543	188
292.188	200
293.833	190
295.477	178
297.121	174
298.765	186
300.407	168
302.05	174
303.693	182
305.334	166
306.975	180
308.615	164
310.256	168
311.896	164
313.535	174
315.175	164
316.813	170
318.451	180
320.089	170
321.726	166
323.362	180
324.999	182
326.635	180
328.271	178
329.905	176
331.54	178
333.174	172
334.807	186
336.441	184
338.074	170
339.707	172
341.338	172
342.969	166
344.601	168
346.231	184
347.861	162
349.491	158
351.12	160
352.749	152
354.378	148
356.006	164
357.633	150
359.261	154
360.887	148
362.513	166
364.139	158
365.764	154
367.39	166
369.014	156
370.638	162
372.261	174
373.884	160
375.508	160
377.13	180
378.752	166
380.373	180
381.994	178
383.615	176
385.235	182
386.854	190
388.473	194
390.092	196
391.711	198
393.328	210
394.947	192
396.564	202
398.181	204
399.797	228
401.412	212
403.027	240
404.642	234
406.257	244
407.871	252
409.484	220
411.098	218
412.711	202
414.323	200
415.935	204
417.547	176
419.158	184
420.768	176
422.378	182
423.988	174
425.597	162
427.206	154
428.814	162
430.422	148
432.03	146
433.637	152
435.243	152
436.85	148
438.456	144
440.062	148
441.666	126
443.271	144
444.876	142
446.479	146
448.082	134
449.685	126
451.287	130
452.89	120
454.492	112
456.092	114
457.693	116
459.293	122
460.893	114
462.492	118
464.092	108
465.691	108
467.288	112
468.887	100
470.483	120
472.081	114
473.677	108
475.273	118
476.869	106
478.463	108
480.059	104
481.653	104
483.247	106
484.84	104
486.433	100
488.026	102
489.618	100
491.21	110
492.801	106
494.392	106
495.983	100
497.573	108
499.162	124
500.752	118
502.341	108
503.929	116
505.517	114
507.105	114
508.692	108
510.279	114
511.865	110
513.45	114
515.037	114
516.621	104
518.206	128
519.79	126
521.374	110
522.957	116
524.54	116
526.123	118
527.705	134
529.287	140
530.868	128
532.448	134
534.029	144
535.609	146
537.188	154
538.768	152
540.346	150
541.925	152
543.502	154
545.08	152
546.657	152
548.234	140
549.81	134
551.386	146
552.961	144
554.536	160
556.11	134
557.684	142
559.258	144
560.832	156
562.405	148
563.977	132
565.55	140
567.12	144
568.692	130
570.263	144
571.833	124
573.403	140
574.973	150
576.542	140
578.111	136
579.679	132
581.247	128
582.815	112
584.382	102
585.948	120
587.514	126
589.081	114
590.645	116
592.211	114
593.775	116
595.339	110
596.904	128
598.466	114
600.03	112
601.592	124
603.154	126
604.715	140
606.277	152
607.838	162
609.398	150
610.958	152
612.518	182
614.077	194
615.636	246
617.194	326
618.753	530
620.31	712
621.867	698
623.424	478
624.98	296
626.537	202
628.092	162
629.647	142
631.202	130
632.756	122
634.31	112
635.864	112
637.417	108
638.969	106
640.521	94
642.074	92
643.625	82
645.176	94
646.726	90
648.276	90
649.827	80
651.376	80
652.925	80
654.473	88
656.021	84
657.569	90
659.117	84
660.664	82
662.21	82
663.757	80
665.302	82
666.847	80
668.392	82
669.937	84
671.481	80
673.025	80
674.568	76
676.111	84
677.653	90
679.195	84
680.737	76
682.279	80
683.82	74
685.36	84
686.9	82
688.44	86
689.979	70
691.517	90
693.056	80
694.594	82
696.132	88
697.669	86
699.206	104
700.742	100
702.278	102
703.814	106
705.35	94
706.884	98
708.419	102
709.953	106
711.487	104
713.019	104
714.552	102
716.085	96
717.617	106
719.148	108
720.68	122
722.21	128
723.741	158
725.271	152
726.8	142
728.33	138
729.858	130
731.387	120
732.915	132
734.443	136
735.97	152
737.497	176
739.023	176
740.549	186
742.075	178
743.6	188
745.125	184
746.65	184
748.173	200
749.697	190
751.22	192
752.743	204
754.266	212
755.788	234
757.309	232
758.831	230
760.351	236
761.871	230
763.392	236
764.912	204
766.431	212
767.95	192
769.468	200
770.986	212
772.504	206
774.022	204
775.538	194
777.055	198
778.571	216
780.086	226
781.602	218
783.117	234
784.632	252
786.146	276
787.659	290
789.173	302
790.685	336
792.198	352
793.71	356
795.222	346
796.733	338
798.244	324
799.755	304
801.265	284
802.775	254
804.284	218
805.793	228
807.302	200
808.81	186
810.318	188
811.826	178
813.333	170
814.84	162
816.346	138
817.851	138
819.357	132
820.862	130
822.367	118
823.871	114
825.376	112
826.878	108
828.382	116
829.885	112
831.387	116
832.889	124
834.391	140
835.892	142
837.392	144
838.893	158
840.393	152
841.893	152
843.392	162
844.891	172
846.389	152
847.888	138
849.386	134
850.882	128
852.38	124
853.876	128
855.372	132
856.868	122
858.363	128
859.858	122
861.353	130
862.847	128
864.341	130
865.834	132
867.328	124
868.82	126
870.313	134
871.805	118
873.296	118
874.787	128
876.278	116
877.769	130
879.258	118
880.748	112
882.237	120
883.726	112
885.214	118
886.702	102
888.19	114
889.677	106
891.164	122
892.651	108
894.137	112
895.623	126
897.108	118
898.593	120
900.077	134
901.562	132
903.046	138
904.529	148
906.012	154
907.495	152
908.977	140
910.459	138
911.941	128
913.422	122
914.903	114
916.383	114
917.863	106
919.343	114
920.822	104
922.301	106
923.779	96
925.257	100
926.735	98
928.213	98
929.69	98
931.166	98
932.643	100
934.119	100
935.594	94
937.069	102
938.543	96
940.018	94
941.492	104
942.966	108
944.439	112
945.911	108
947.384	110
948.856	106
950.328	98
951.799	110
953.27	98
954.741	102
956.21	114
957.68	108
959.15	118
960.619	118
962.088	116
963.556	128
965.023	124
966.491	124
967.958	126
969.425	120
970.891	130
972.357	138
973.824	140
975.288	140
976.754	150
978.218	166
979.682	196
981.146	222
982.609	226
984.072	260
985.534	264
986.997	326
988.459	414
989.92	606
991.382	784
992.842	828
994.302	796
995.763	886
997.222	1254
998.681	1934
1000.14	2862
1001.6	3354
1003.06	2846
1004.52	1926
1005.97	1138
1007.43	670
1008.89	442
1010.34	318
1011.8	240
1013.25	226
1014.71	186
1016.16	196
1017.62	184
1019.07	208
1020.53	222
1021.98	262
1023.43	298
1024.89	404
1026.34	494
1027.79	656
1029.24	790
1030.69	890
1032.14	900
1033.59	796
1035.04	664
1036.49	546
1037.94	404
1039.39	348
1040.84	256
1042.29	240
1043.73	206
1045.18	192
1046.63	180
1048.08	170
1049.52	160
1050.97	148
1052.41	142
1053.86	154
1055.3	148
1056.75	158
1058.19	162
1059.64	160
1061.08	168
1062.52	164
1063.96	164
1065.41	172
1066.85	184
1068.29	186
1069.73	180
1071.17	184
1072.61	164
1074.05	160
1075.49	170
1076.93	166
1078.37	166
1079.81	172
1081.25	162
1082.68	166
1084.12	174
1085.56	184
1087	150
1088.43	174
1089.87	168
1091.3	156
1092.74	176
1094.17	170
1095.61	166
1097.04	178
1098.48	168
1099.91	174
1101.34	180
1102.78	162
1104.21	146
1105.64	156
1107.07	144
1108.5	140
1109.93	140
1111.36	126
1112.8	128
1114.22	140
1115.65	130
1117.08	124
1118.51	112
1119.94	130
1121.37	116
1122.8	118
1124.22	106
1125.65	106
1127.08	98
1128.5	112
1129.93	108
1131.35	108
1132.78	116
1134.2	114
1135.63	114
1137.05	110
1138.48	126
1139.9	126
1141.32	136
1142.75	138
1144.17	160
1145.59	148
1147.01	182
1148.43	198
1149.85	242
1151.27	304
1152.69	360
1154.11	388
1155.53	428
1156.95	360
1158.37	342
1159.79	286
1161.21	246
1162.62	234
1164.04	218
1165.46	212
1166.87	210
1168.29	210
1169.71	200
1171.12	234
1172.54	254
1173.95	264
1175.37	306
1176.78	360
1178.19	444
1179.61	496
1181.02	528
1182.43	550
1183.84	492
1185.26	458
1186.67	442
1188.08	418
1189.49	430
1190.9	464
1192.31	482
1193.72	488
1195.13	520
1196.54	522
1197.95	504
1199.36	504
1200.76	474
1202.17	454
1203.58	414
1204.99	410
1206.39	386
1207.8	358
1209.2	324
1210.61	280
1212.01	284
1213.42	242
1214.82	240
1216.23	226
1217.63	218
1219.03	200
1220.44	218
1221.84	218
1223.24	200
1224.64	212
1226.05	184
1227.45	186
1228.85	188
1230.25	188
1231.65	164
1233.05	194
1234.45	170
1235.85	168
1237.25	176
1238.64	166
1240.04	170
1241.44	168
1242.84	186
1244.23	166
1245.63	178
1247.03	174
1248.42	164
1249.82	180
1251.21	168
1252.61	178
1254	174
1255.4	166
1256.79	164
1258.19	168
1259.58	174
1260.97	184
1262.36	176
1263.76	160
1265.15	188
1266.54	174
1267.93	170
1269.32	180
1270.71	172
1272.1	182
1273.49	168
1274.88	182
1276.27	172
1277.66	174
1279.05	184
1280.43	182
1281.82	164
1283.21	174
1284.6	178
1285.98	184
1287.37	184
1288.75	186
1290.14	196
1291.53	186
1292.91	210
1294.29	204
1295.68	206
1297.06	202
1298.45	214
1299.83	216
1301.21	204
1302.59	224
1303.98	218
1305.36	232
1306.74	218
1308.12	220
1309.5	236
1310.88	242
1312.26	236
1313.64	236
1315.02	244
1316.4	270
1317.78	268
1319.16	268
1320.53	276
1321.91	284
1323.29	300
1324.67	296
1326.04	310
1327.42	310
1328.79	300
1330.17	286
1331.54	304
1332.92	302
1334.29	302
1335.67	314
1337.04	288
1338.42	284
1339.79	288
1341.16	292
1342.53	272
1343.91	270
1345.28	260
1346.65	274
1348.02	280
1349.39	282
1350.76	266
1352.13	274
1353.5	276
1354.87	278
1356.24	264
1357.61	282
1358.98	274
1360.34	284
1361.71	286
1363.08	272
1364.45	280
1365.81	268
1367.18	270
1368.54	278
1369.91	268
1371.28	294
1372.64	282
1374.01	294
1375.37	296
1376.73	266
1378.1	288
1379.46	266
1380.82	278
1382.19	274
1383.55	262
1384.91	266
1386.27	262
1387.63	264
1388.99	250
1390.35	244
1391.71	252
1393.07	234
1394.43	240
1395.79	232
1397.15	244
1398.51	232
1399.87	242
1401.23	240
1402.58	244
1403.94	244
1405.3	238
1406.65	246
1408.01	242
1409.37	244
1410.72	236
1412.08	234
1413.43	216
1414.79	230
1416.14	246
1417.49	222
1418.85	230
1420.2	230
1421.55	224
1422.91	218
1424.26	222
1425.61	238
1426.96	240
1428.31	230
1429.66	236
1431.01	242
1432.36	248
1433.71	260
1435.06	266
1436.41	248
1437.76	290
1439.11	280
1440.46	298
1441.81	294
1443.15	304
1444.5	324
1445.85	328
1447.19	338
1448.54	320
1449.89	342
1451.23	324
1452.58	324
1453.92	294
1455.27	300
1456.61	270
1457.95	268
1459.3	230
1460.64	240
1461.98	238
1463.33	216
1464.67	208
1466.01	196
1467.35	184
1468.69	204
1470.03	198
1471.37	204
1472.71	200
1474.05	188
1475.39	188
1476.73	196
1478.07	194
1479.41	202
1480.75	188
1482.09	202
1483.42	192
1484.76	182
1486.1	192
1487.43	190
1488.77	184
1490.11	172
1491.44	180
1492.78	200
1494.11	190
1495.45	190
1496.78	190
1498.12	192
1499.45	186
1500.78	176
1502.11	178
1503.45	178
1504.78	174
1506.11	190
1507.44	180
1508.77	168
1510.11	170
1511.44	180
1512.77	172
1514.1	176
1515.43	168
1516.76	162
1518.08	170
1519.41	174
1520.74	172
1522.07	174
1523.4	184
1524.72	156
1526.05	170
1527.38	172
1528.7	162
1530.03	174
1531.36	164
1532.68	154
1534.01	152
1535.33	178
1536.66	170
1537.98	174
1539.3	166
1540.63	170
1541.95	154
1543.27	166
1544.6	172
1545.92	154
1547.24	160
1548.56	150
1549.88	164
1551.2	164
1552.52	160
1553.84	160
1555.17	162
1556.48	164
1557.8	172
1559.12	176
1560.44	172
1561.76	172
1563.08	164
1564.4	180
1565.71	182
1567.03	180
1568.35	178
1569.66	198
1570.98	188
1572.29	194
1573.61	188
1574.93	210
1576.24	218
1577.55	242
1578.87	288
1580.18	348
1581.5	404
1582.81	422
1584.12	404
1585.43	344
1586.75	300
1588.06	276
1589.37	252
1590.68	258
1591.99	260
1593.3	288
1594.61	304
1595.92	366
1597.23	428
1598.54	524
1599.85	632
1601.16	690
1602.47	710
1603.78	638
1605.08	562
1606.39	472
1607.7	384
1609	328
1610.31	288
1611.62	256
1612.92	232
1614.23	202
1615.53	214
1616.84	206
1618.14	186
1619.45	186
1620.75	184
1622.06	176
1623.36	176
1624.66	178
1625.96	174
1627.27	154
1628.57	150
1629.87	160
1631.17	156
1632.47	148
1633.77	160
1635.07	152
1636.37	148
1637.67	154
1638.97	156
1640.27	152
1641.57	148
1642.87	152
1644.17	152
1645.47	158
1646.76	162
1648.06	160
1649.36	162
1650.66	150
1651.95	148
1653.25	146
1654.54	142
1655.84	144
1657.13	134
1658.43	142
1659.72	142
1661.02	140
1662.31	130
1663.6	132
1664.9	140
1666.19	116
1667.48	136
1668.78	134
1670.07	140
1671.36	142
1672.65	130
1673.94	140
1675.23	140
1676.52	142
1677.81	124
1679.1	120
1680.39	138
1681.68	132
1682.97	132
1684.26	138
1685.55	126
1686.83	140
1688.12	132
1689.41	126
1690.7	136
1691.98	134
1693.27	134
1694.55	128
1695.84	110
1697.13	136
1698.41	116
1699.69	126
1700.98	132
1702.26	130