File: Jesse_Dataset_v2/Pure Raman/Polystyrene/785nm/ps-ppo-6jan25-1,0000-map3_Y03_X00.txt
204.377	834
206.045	824
207.713	854
209.38	844
211.048	888
212.715	872
214.381	896
216.047	900
217.712	932
219.377	884
221.042	872
222.706	908
224.369	854
226.032	844
227.695	802
229.357	770
231.019	712
232.68	698
234.341	630
236.001	558
237.661	534
239.321	488
240.98	438
242.639	418
244.297	378
245.955	346
247.612	320
249.268	334
250.924	302
252.58	290
254.236	286
255.891	284
257.546	272
259.2	274
260.854	254
262.507	276
264.16	266
265.812	260
267.463	258
269.115	260
270.766	236
272.417	248
274.067	232
275.717	236
277.365	226
279.014	222
280.663	208
282.311	216
283.958	218
285.605	200
287.252	208
288.898	206
290.543	202
292.188	188
293.833	166
295.477	176
297.121	178
298.765	172
300.407	154
302.05	166
303.693	176
305.334	160
306.975	160
308.615	154
310.256	176
311.896	164
313.535	176
315.175	166
316.813	158
318.451	166
320.089	168
321.726	154
323.362	160
324.999	176
326.635	166
328.271	146
329.905	166
331.54	168
333.174	168
334.807	164
336.441	154
338.074	160
339.707	164
341.338	164
342.969	154
344.601	148
346.231	158
347.861	156
349.491	160
351.12	156
352.749	152
354.378	144
356.006	148
357.633	144
359.261	138
360.887	144
362.513	150
364.139	144
365.764	150
367.39	140
369.014	146
370.638	148
372.261	150
373.884	154
375.508	158
377.13	164
378.752	152
380.373	164
381.994	164
383.615	182
385.235	176
386.854	184
388.473	172
390.092	194
391.711	176
393.328	184
394.947	184
396.564	186
398.181	208
399.797	220
401.412	210
403.027	214
404.642	228
406.257	220
407.871	228
409.484	200
411.098	218
412.711	218
414.323	182
415.935	176
417.547	172
419.158	164
420.768	166
422.378	154
423.988	164
425.597	156
427.206	144
428.814	138
430.422	142
432.03	146
433.637	142
435.243	144
436.85	140
438.456	142
440.062	132
441.666	132
443.271	116
444.876	136
446.479	128
448.082	108
449.685	110
451.287	118
452.89	116
454.492	118
456.092	114
457.693	102
459.293	120
460.893	112
462.492	94
464.092	96
465.691	112
467.288	114
468.887	102
470.483	108
472.081	98
473.677	102
475.273	98
476.869	98
478.463	92
480.059	100
481.653	94
483.247	98
484.84	102
486.433	98
488.026	92
489.618	88
491.21	100
492.801	100
494.392	102
495.983	94
497.573	102
499.162	104
500.752	106
502.341	108
503.929	106
505.517	112
507.105	106
508.692	96
510.279	90
511.865	102
513.45	104
515.037	108
516.621	106
518.206	108
519.79	106
521.374	108
522.957	108
524.54	114
526.123	120
527.705	116
529.287	124
530.868	126
532.448	124
534.029	134
535.609	136
537.188	136
538.768	142
540.346	140
541.925	146
543.502	132
545.08	156
546.657	146
548.234	140
549.81	136
551.386	140
552.961	132
554.536	128
556.11	140
557.684	140
559.258	136
560.832	140
562.405	124
563.977	136
565.55	124
567.12	136
568.692	132
570.263	128
571.833	142
573.403	130
574.973	144
576.542	138
578.111	114
579.679	116
581.247	124
582.815	100
584.382	106
585.948	114
587.514	108
589.081	104
590.645	114
592.211	104
593.775	112
595.339	106
596.904	108
598.466	118
600.03	104
601.592	108
603.154	122
604.715	130
606.277	138
607.838	158
609.398	152
610.958	136
612.518	144
614.077	188
615.636	220
617.194	312
618.753	506
620.31	728
621.867	686
623.424	478
624.98	268
626.537	206
628.092	168
629.647	142
631.202	132
632.756	124
634.31	108
635.864	100
637.417	104
638.969	92
640.521	90
642.074	94
643.625	84
645.176	82
646.726	82
648.276	78
649.827	80
651.376	72
652.925	76
654.473	76
656.021	80
657.569	68
659.117	82
660.664	74
662.21	78
663.757	72
665.302	82
666.847	78
668.392	80
669.937	80
671.481	74
673.025	78
674.568	68
676.111	66
677.653	72
679.195	74
680.737	66
682.279	74
683.82	70
685.36	76
686.9	66
688.44	68
689.979	68
691.517	80
693.056	76
694.594	76
696.132	84
697.669	92
699.206	88
700.742	90
702.278	100
703.814	94
705.35	88
706.884	84
708.419	86
709.953	94
711.487	88
713.019	94
714.552	94
716.085	92
717.617	88
719.148	104
720.68	114
722.21	114
723.741	152
725.271	144
726.8	136
728.33	126
729.858	118
731.387	126
732.915	132
734.443	138
735.97	154
737.497	160
739.023	172
740.549	186
742.075	184
743.6	184
745.125	174
746.65	188
748.173	192
749.697	180
751.22	198
752.743	206
754.266	198
755.788	212
757.309	228
758.831	236
760.351	236
761.871	230
763.392	228
764.912	218
766.431	190
767.95	210
769.468	204
770.986	198
772.504	200
774.022	194
775.538	202
777.055	184
778.571	204
780.086	192
781.602	216
783.117	244
784.632	246
786.146	280
787.659	280
789.173	312
790.685	316
792.198	336
793.71	336
795.222	330
796.733	328
798.244	328
799.755	304
801.265	264
802.775	254
804.284	244
805.793	204
807.302	182
808.81	180
810.318	174
811.826	166
813.333	160
814.84	152
816.346	136
817.851	126
819.357	122
820.862	122
822.367	116
823.871	116
825.376	108
826.878	108
828.382	104
829.885	102
831.387	114
832.889	114
834.391	128
835.892	140
837.392	138
838.893	148
840.393	150
841.893	158
843.392	158
844.891	152
846.389	140
847.888	146
849.386	130
850.882	136
852.38	128
853.876	130
855.372	122
856.868	116
858.363	128
859.858	118
861.353	126
862.847	116
864.341	130
865.834	126
867.328	124
868.82	118
870.313	122
871.805	122
873.296	116
874.787	108
876.278	120
877.769	116
879.258	118
880.748	118
882.237	108
883.726	114
885.214	106
886.702	104
888.19	108
889.677	114
891.164	108
892.651	106
894.137	104
895.623	110
897.108	120
898.593	122
900.077	116
901.562	134
903.046	138
904.529	144
906.012	152
907.495	150
908.977	138
910.459	132
911.941	128
913.422	116
914.903	112
916.383	106
917.863	108
919.343	102
920.822	104
922.301	98
923.779	92
925.257	94
926.735	94
928.213	96
929.69	98
931.166	94
932.643	94
934.119	92
935.594	90
937.069	94
938.543	96
940.018	92
941.492	100
942.966	106
944.439	102
945.911	100
947.384	110
948.856	100
950.328	96
951.799	88
953.27	102
954.741	98
956.21	96
957.68	102
959.15	102
960.619	118
962.088	118
963.556	124
965.023	130
966.491	132
967.958	122
969.425	132
970.891	128
972.357	116
973.824	134
975.288	132
976.754	138
978.218	152
979.682	178
981.146	190
982.609	222
984.072	238
985.534	270
986.997	310
988.459	420
989.92	558
991.382	738
992.842	788
994.302	780
995.763	832
997.222	1192
998.681	1962
1000.14	2828
1001.6	3318
1003.06	2876
1004.52	1954
1005.97	1166
1007.43	714
1008.89	432
1010.34	314
1011.8	256
1013.25	206
1014.71	194
1016.16	176
1017.62	174
1019.07	196
1020.53	212
1021.98	262
1023.43	298
1024.89	374
1026.34	466
1027.79	630
1029.24	762
1030.69	882
1032.14	878
1033.59	808
1035.04	680
1036.49	508
1037.94	406
1039.39	312
1040.84	252
1042.29	222
1043.73	202
1045.18	186
1046.63	180
1048.08	160
1049.52	154
1050.97	164
1052.41	150
1053.86	146
1055.3	156
1056.75	144
1058.19	154
1059.64	156
1061.08	160
1062.52	172
1063.96	152
1065.41	172
1066.85	158
1068.29	172
1069.73	170
1071.17	184
1072.61	168
1074.05	164
1075.49	156
1076.93	168
1078.37	174
1079.81	154
1081.25	156
1082.68	166
1084.12	170
1085.56	164
1087	170
1088.43	152
1089.87	160
1091.3	160
1092.74	168
1094.17	154
1095.61	164
1097.04	166
1098.48	162
1099.91	174
1101.34	166
1102.78	150
1104.21	144
1105.64	146
1107.07	144
1108.5	136
1109.93	136
1111.36	128
1112.8	114
1114.22	136
1115.65	120
1117.08	118
1118.51	114
1119.94	112
1121.37	108
1122.8	100
1124.22	116
1125.65	106
1127.08	106
1128.5	98
1129.93	98
1131.35	106
1132.78	100
1134.2	110
1135.63	114
1137.05	114
1138.48	112
1139.9	116
1141.32	130
1142.75	136
1144.17	142
1145.59	148
1147.01	152
1148.43	186
1149.85	228
1151.27	280
1152.69	354
1154.11	378
1155.53	408
1156.95	390
1158.37	320
1159.79	292
1161.21	246
1162.62	222
1164.04	212
1165.46	206
1166.87	178
1168.29	208
1169.71	196
1171.12	218
1172.54	236
1173.95	246
1175.37	274
1176.78	346
1178.19	410
1179.61	472
1181.02	532
1182.43	532
1183.84	480
1185.26	446
1186.67	440
1188.08	434
1189.49	432
1190.9	462
1192.31	452
1193.72	474
1195.13	500
1196.54	494
1197.95	492
1199.36	500
1200.76	486
1202.17	458
1203.58	450
1204.99	382
1206.39	370
1207.8	346
1209.2	318
1210.61	268
1212.01	264
1213.42	244
1214.82	230
1216.23	210
1217.63	212
1219.03	210
1220.44	194
1221.84	206
1223.24	202
1224.64	190
1226.05	198
1227.45	184
1228.85	182
1230.25	182
1231.65	180
1233.05	166
1234.45	168
1235.85	176
1237.25	176
1238.64	160
1240.04	162
1241.44	164
1242.84	162
1244.23	166
1245.63	170
1247.03	154
1248.42	162
1249.82	158
1251.21	166
1252.61	170
1254	174
1255.4	160
1256.79	166
1258.19	176
1259.58	166
1260.97	166
1262.36	166
1263.76	176
1265.15	166
1266.54	176
1267.93	156
1269.32	168
1270.71	174
1272.1	150
1273.49	160
1274.88	168
1276.27	168
1277.66	166
1279.05	170
1280.43	176
1281.82	170
1283.21	170
1284.6	186
1285.98	178
1287.37	166
1288.75	180
1290.14	182
1291.53	190
1292.91	192
1294.29	178
1295.68	196
1297.06	196
1298.45	192
1299.83	208
1301.21	210
1302.59	216
1303.98	210
1305.36	210
1306.74	222
1308.12	208
1309.5	228
1310.88	224
1312.26	226
1313.64	232
1315.02	224
1316.4	224
1317.78	250
1319.16	258
1320.53	258
1321.91	264
1323.29	284
1324.67	272
1326.04	280
1327.42	290
1328.79	288
1330.17	306
1331.54	290
1332.92	288
1334.29	290
1335.67	280
1337.04	284
1338.42	262
1339.79	276
1341.16	276
1342.53	260
1343.91	276
1345.28	258
1346.65	252
1348.02	248
1349.39	256
1350.76	254
1352.13	242
1353.5	258
1354.87	232
1356.24	250
1357.61	256
1358.98	248
1360.34	262
1361.71	242
1363.08	266
1364.45	274
1365.81	264
1367.18	274
1368.54	268
1369.91	260
1371.28	268
1372.64	250
1374.01	264
1375.37	260
1376.73	266
1378.1	252
1379.46	242
1380.82	262
1382.19	264
1383.55	244
1384.91	228
1386.27	234
1387.63	218
1388.99	232
1390.35	232
1391.71	222
1393.07	230
1394.43	212
1395.79	220
1397.15	218
1398.51	226
1399.87	208
1401.23	220
1402.58	214
1403.94	220
1405.3	228
1406.65	210
1408.01	216
1409.37	194
1410.72	212
1412.08	224
1413.43	222
1414.79	212
1416.14	216
1417.49	216
1418.85	212
1420.2	212
1421.55	202
1422.91	206
1424.26	206
1425.61	208
1426.96	214
1428.31	192
1429.66	210
1431.01	224
1432.36	226
1433.71	224
1435.06	232
1436.41	244
1437.76	250
1439.11	262
1440.46	278
1441.81	274
1443.15	280
1444.5	300
1445.85	310
1447.19	320
1448.54	332
1449.89	320
1451.23	296
1452.58	296
1453.92	298
1455.27	284
1456.61	270
1457.95	242
1459.3	224
1460.64	198
1461.98	198
1463.33	204
1464.67	192
1466.01	190
1467.35	200
1468.69	174
1470.03	182
1471.37	174
1472.71	178
1474.05	172
1475.39	186
1476.73	178
1478.07	186
1479.41	174
1480.75	174
1482.09	164
1483.42	164
1484.76	178
1486.1	162
1487.43	178
1488.77	168
1490.11	162
1491.44	180
1492.78	180
1494.11	188
1495.45	168
1496.78	168
1498.12	176
1499.45	160
1500.78	170
1502.11	160
1503.45	166
1504.78	160
1506.11	150
1507.44	156
1508.77	158
1510.11	150
1511.44	160
1512.77	154
1514.1	162
1515.43	154
1516.76	166
1518.08	164
1519.41	154
1520.74	162
1522.07	148
1523.4	142
1524.72	162
1526.05	158
1527.38	164
1528.7	164
1530.03	156
1531.36	150
1532.68	146
1534.01	158
1535.33	160
1536.66	148
1537.98	150
1539.3	152
1540.63	150
1541.95	164
1543.27	146
1544.6	156
1545.92	158
1547.24	160
1548.56	154
1549.88	148
1551.2	154
1552.52	154
1553.84	154
1555.17	150
1556.48	164
1557.8	158
1559.12	150
1560.44	156
1561.76	162
1563.08	156
1564.4	158
1565.71	154
1567.03	176
1568.35	172
1569.66	160
1570.98	172
1572.29	178
1573.61	198
1574.93	192
1576.24	206
1577.55	232
1578.87	252
1580.18	336
1581.5	370
1582.81	386
1584.12	392
1585.43	346
1586.75	294
1588.06	248
1589.37	236
1590.68	250
1591.99	262
1593.3	276
1594.61	290
1595.92	344
1597.23	408
1598.54	498
1599.85	610
1601.16	676
1602.47	672
1603.78	650
1605.08	532
1606.39	448
1607.7	362
1609	324
1610.31	282
1611.62	250
1612.92	212
1614.23	208
1615.53	194
1616.84	188
1618.14	164
1619.45	174
1620.75	162
1622.06	160
1623.36	168
1624.66	154
1625.96	160
1627.27	148
1628.57	148
1629.87	154
1631.17	160
1632.47	132
1633.77	146
1635.07	142
1636.37	144
1637.67	146
1638.97	138
1640.27	130
1641.57	144
1642.87	138
1644.17	142
1645.47	140
1646.76	138
1648.06	144
1649.36	142
1650.66	140
1651.95	138
1653.25	130
1654.54	134
1655.84	148
1657.13	132
1658.43	136
1659.72	126
1661.02	128
1662.31	124
1663.6	126
1664.9	120
1666.19	132
1667.48	134
1668.78	126
1670.07	130
1671.36	126
1672.65	118
1673.94	120
1675.23	126
1676.52	124
1677.81	128
1679.1	126
1680.39	132
1681.68	122
1682.97	116
1684.26	120
1685.55	116
1686.83	120
1688.12	112
1689.41	122
1690.7	128
1691.98	114
1693.27	124
1694.55	126
1695.84	116
1697.13	114
1698.41	114
1699.69	114
1700.98	112
1702.26	110