File: Jesse_Dataset_v2/Pure Raman/Polystyrene/785nm/ps-ppo-6jan25-1,0000-map3_Y09_X00.txt
204.377	816
206.045	824
207.713	852
209.38	868
211.048	878
212.715	864
214.381	900
216.047	908
217.712	890
219.377	928
221.042	918
222.706	906
224.369	880
226.032	818
227.695	816
229.357	782
231.019	710
232.68	682
234.341	642
236.001	590
237.661	544
239.321	488
240.98	448
242.639	414
244.297	396
245.955	366
247.612	340
249.268	312
250.924	312
252.58	302
254.236	284
255.891	294
257.546	266
259.2	268
260.854	274
262.507	236
264.16	266
265.812	246
267.463	266
269.115	250
270.766	248
272.417	230
274.067	234
275.717	232
277.365	236
279.014	222
280.663	226
282.311	232
283.958	222
285.605	204
287.252	198
288.898	192
290.543	186
292.188	182
293.833	184
295.477	184
297.121	168
298.765	148
300.407	160
302.05	162
303.693	158
305.334	166
306.975	164
308.615	174
310.256	152
311.896	166
313.535	176
315.175	166
316.813	166
318.451	170
320.089	160
321.726	160
323.362	176
324.999	164
326.635	168
328.271	168
329.905	170
331.54	172
333.174	172
334.807	172
336.441	174
338.074	162
339.707	154
341.338	170
342.969	156
344.601	138
346.231	158
347.861	150
349.491	138
351.12	152
352.749	156
354.378	148
356.006	158
357.633	148
359.261	154
360.887	152
362.513	150
364.139	150
365.764	146
367.39	150
369.014	144
370.638	162
372.261	148
373.884	148
375.508	166
377.13	160
378.752	164
380.373	170
381.994	178
383.615	172
385.235	172
386.854	184
388.473	184
390.092	188
391.711	194
393.328	186
394.947	192
396.564	214
398.181	192
399.797	198
401.412	214
403.027	208
404.642	240
406.257	224
407.871	222
409.484	218
411.098	204
412.711	212
414.323	194
415.935	186
417.547	180
419.158	168
420.768	166
422.378	158
423.988	152
425.597	164
427.206	152
428.814	148
430.422	140
432.03	146
433.637	152
435.243	136
436.85	134
438.456	132
440.062	130
441.666	142
443.271	124
444.876	136
446.479	128
448.082	128
449.685	126
451.287	120
452.89	114
454.492	110
456.092	110
457.693	116
459.293	110
460.893	96
462.492	98
464.092	100
465.691	100
467.288	98
468.887	108
470.483	108
472.081	106
473.677	98
475.273	118
476.869	104
478.463	108
480.059	94
481.653	106
483.247	102
484.84	98
486.433	102
488.026	90
489.618	98
491.21	96
492.801	92
494.392	92
495.983	100
497.573	102
499.162	110
500.752	108
502.341	108
503.929	104
505.517	114
507.105	106
508.692	102
510.279	108
511.865	108
513.45	116
515.037	104
516.621	114
518.206	124
519.79	112
521.374	118
522.957	116
524.54	116
526.123	124
527.705	118
529.287	130
530.868	130
532.448	126
534.029	130
535.609	146
537.188	138
538.768	146
540.346	154
541.925	150
543.502	146
545.08	150
546.657	140
548.234	148
549.81	140
551.386	136
552.961	154
554.536	146
556.11	132
557.684	146
559.258	136
560.832	142
562.405	142
563.977	144
565.55	144
567.12	128
568.692	132
570.263	120
571.833	146
573.403	138
574.973	136
576.542	126
578.111	136
579.679	118
581.247	116
582.815	112
584.382	106
585.948	120
587.514	104
589.081	114
590.645	96
592.211	108
593.775	114
595.339	114
596.904	108
598.466	128
600.03	100
601.592	122
603.154	126
604.715	138
606.277	142
607.838	150
609.398	152
610.958	136
612.518	164
614.077	180
615.636	226
617.194	294
618.753	550
620.31	716
621.867	680
623.424	470
624.98	280
626.537	188
628.092	178
629.647	142
631.202	130
632.756	124
634.31	114
635.864	102
637.417	96
638.969	98
640.521	86
642.074	90
643.625	86
645.176	84
646.726	76
648.276	82
649.827	82
651.376	80
652.925	82
654.473	78
656.021	76
657.569	88
659.117	80
660.664	74
662.21	80
663.757	80
665.302	78
666.847	76
668.392	80
669.937	72
671.481	72
673.025	74
674.568	80
676.111	64
677.653	78
679.195	72
680.737	76
682.279	80
683.82	86
685.36	74
686.9	74
688.44	78
689.979	80
691.517	74
693.056	84
694.594	78
696.132	86
697.669	82
699.206	106
700.742	98
702.278	98
703.814	104
705.35	92
706.884	98
708.419	102
709.953	104
711.487	108
713.019	88
714.552	86
716.085	94
717.617	98
719.148	100
720.68	114
722.21	128
723.741	148
725.271	154
726.8	134
728.33	132
729.858	122
731.387	128
732.915	122
734.443	140
735.97	144
737.497	166
739.023	162
740.549	190
742.075	176
743.6	174
745.125	186
746.65	194
748.173	188
749.697	202
751.22	186
752.743	212
754.266	220
755.788	224
757.309	224
758.831	218
760.351	226
761.871	222
763.392	230
764.912	206
766.431	196
767.95	210
769.468	198
770.986	190
772.504	194
774.022	204
775.538	202
777.055	204
778.571	212
780.086	224
781.602	196
783.117	234
784.632	252
786.146	268
787.659	302
789.173	326
790.685	316
792.198	320
793.71	330
795.222	328
796.733	330
798.244	342
799.755	302
801.265	268
802.775	254
804.284	224
805.793	202
807.302	194
808.81	180
810.318	174
811.826	174
813.333	162
814.84	148
816.346	120
817.851	134
819.357	118
820.862	126
822.367	106
823.871	116
825.376	116
826.878	112
828.382	106
829.885	112
831.387	110
832.889	124
834.391	126
835.892	126
837.392	140
838.893	156
840.393	158
841.893	158
843.392	152
844.891	154
846.389	154
847.888	138
849.386	126
850.882	128
852.38	110
853.876	126
855.372	122
856.868	132
858.363	130
859.858	132
861.353	122
862.847	124
864.341	124
865.834	132
867.328	112
868.82	122
870.313	118
871.805	120
873.296	122
874.787	122
876.278	108
877.769	114
879.258	122
880.748	114
882.237	108
883.726	116
885.214	106
886.702	112
888.19	126
889.677	118
891.164	124
892.651	114
894.137	116
895.623	120
897.108	108
898.593	120
900.077	130
901.562	138
903.046	126
904.529	134
906.012	142
907.495	154
908.977	150
910.459	138
911.941	130
913.422	122
914.903	124
916.383	104
917.863	118
919.343	98
920.822	106
922.301	96
923.779	100
925.257	92
926.735	102
928.213	100
929.69	98
931.166	96
932.643	94
934.119	92
935.594	102
937.069	96
938.543	104
940.018	100
941.492	100
942.966	100
944.439	108
945.911	98
947.384	100
948.856	96
950.328	108
951.799	106
953.27	98
954.741	100
956.21	106
957.68	106
959.15	102
960.619	112
962.088	110
963.556	124
965.023	120
966.491	134
967.958	128
969.425	126
970.891	114
972.357	130
973.824	132
975.288	144
976.754	154
978.218	170
979.682	184
981.146	204
982.609	212
984.072	248
985.534	264
986.997	314
988.459	404
989.92	584
991.382	764
992.842	782
994.302	746
995.763	864
997.222	1270
998.681	1954
1000.14	2932
1001.6	3358
1003.06	2882
1004.52	1930
1005.97	1160
1007.43	698
1008.89	446
1010.34	314
1011.8	242
1013.25	212
1014.71	192
1016.16	174
1017.62	182
1019.07	194
1020.53	234
1021.98	262
1023.43	294
1024.89	378
1026.34	494
1027.79	632
1029.24	774
1030.69	892
1032.14	902
1033.59	798
1035.04	694
1036.49	520
1037.94	408
1039.39	310
1040.84	268
1042.29	208
1043.73	210
1045.18	186
1046.63	178
1048.08	174
1049.52	164
1050.97	154
1052.41	162
1053.86	142
1055.3	156
1056.75	154
1058.19	148
1059.64	168
1061.08	172
1062.52	166
1063.96	160
1065.41	174
1066.85	172
1068.29	172
1069.73	174
1071.17	176
1072.61	176
1074.05	176
1075.49	178
1076.93	164
1078.37	172
1079.81	172
1081.25	160
1082.68	166
1084.12	162
1085.56	168
1087	168
1088.43	162
1089.87	168
1091.3	174
1092.74	162
1094.17	172
1095.61	168
1097.04	168
1098.48	170
1099.91	162
1101.34	164
1102.78	162
1104.21	148
1105.64	154
1107.07	130
1108.5	134
1109.93	134
1111.36	134
1112.8	128
1114.22	118
1115.65	128
1117.08	122
1118.51	122
1119.94	112
1121.37	110
1122.8	112
1124.22	108
1125.65	108
1127.08	102
1128.5	110
1129.93	98
1131.35	108
1132.78	104
1134.2	116
1135.63	110
1137.05	124
1138.48	122
1139.9	126
1141.32	130
1142.75	134
1144.17	156
1145.59	168
1147.01	160
1148.43	194
1149.85	228
1151.27	278
1152.69	342
1154.11	408
1155.53	412
1156.95	398
1158.37	336
1159.79	286
1161.21	254
1162.62	234
1164.04	200
1165.46	202
1166.87	214
1168.29	202
1169.71	216
1171.12	222
1172.54	230
1173.95	262
1175.37	300
1176.78	362
1178.19	420
1179.61	486
1181.02	540
1182.43	532
1183.84	506
1185.26	456
1186.67	436
1188.08	434
1189.49	444
1190.9	452
1192.31	478
1193.72	468
1195.13	504
1196.54	506
1197.95	514
1199.36	500
1200.76	458
1202.17	452
1203.58	464
1204.99	416
1206.39	390
1207.8	316
1209.2	314
1210.61	286
1212.01	270
1213.42	252
1214.82	232
1216.23	218
1217.63	212
1219.03	212
1220.44	184
1221.84	188
1223.24	202
1224.64	214
1226.05	196
1227.45	200
1228.85	196
1230.25	174
1231.65	186
1233.05	176
1234.45	172
1235.85	174
1237.25	168
1238.64	172
1240.04	166
1241.44	166
1242.84	174
1244.23	158
1245.63	168
1247.03	154
1248.42	170
1249.82	170
1251.21	148
1252.61	170
1254	148
1255.4	152
1256.79	156
1258.19	172
1259.58	160
1260.97	158
1262.36	168
1263.76	160
1265.15	170
1266.54	160
1267.93	170
1269.32	164
1270.71	164
1272.1	168
1273.49	168
1274.88	168
1276.27	164
1277.66	176
1279.05	170
1280.43	162
1281.82	170
1283.21	168
1284.6	170
1285.98	168
1287.37	178
1288.75	176
1290.14	186
1291.53	186
1292.91	192
1294.29	188
1295.68	202
1297.06	202
1298.45	204
1299.83	204
1301.21	206
1302.59	204
1303.98	212
1305.36	210
1306.74	224
1308.12	222
1309.5	212
1310.88	226
1312.26	220
1313.64	232
1315.02	252
1316.4	254
1317.78	264
1319.16	252
1320.53	264
1321.91	266
1323.29	268
1324.67	286
1326.04	302
1327.42	286
1328.79	284
1330.17	292
1331.54	286
1332.92	306
1334.29	302
1335.67	296
1337.04	272
1338.42	270
1339.79	286
1341.16	258
1342.53	254
1343.91	260
1345.28	258
1346.65	260
1348.02	268
1349.39	270
1350.76	256
1352.13	264
1353.5	240
1354.87	256
1356.24	276
1357.61	266
1358.98	268
1360.34	266
1361.71	270
1363.08	272
1364.45	284
1365.81	288
1367.18	264
1368.54	286
1369.91	274
1371.28	272
1372.64	256
1374.01	284
1375.37	280
1376.73	280
1378.1	296
1379.46	260
1380.82	270
1382.19	238
1383.55	248
1384.91	246
1386.27	242
1387.63	240
1388.99	234
1390.35	228
1391.71	214
1393.07	228
1394.43	228
1395.79	238
1397.15	220
1398.51	234
1399.87	210
1401.23	236
1402.58	228
1403.94	228
1405.3	224
1406.65	234
1408.01	212
1409.37	218
1410.72	226
1412.08	214
1413.43	212
1414.79	216
1416.14	222
1417.49	214
1418.85	222
1420.2	188
1421.55	200
1422.91	210
1424.26	212
1425.61	218
1426.96	206
1428.31	206
1429.66	218
1431.01	222
1432.36	220
1433.71	234
1435.06	236
1436.41	250
1437.76	252
1439.11	264
1440.46	286
1441.81	294
1443.15	296
1444.5	322
1445.85	334
1447.19	306
1448.54	334
1449.89	324
1451.23	338
1452.58	314
1453.92	328
1455.27	286
1456.61	272
1457.95	238
1459.3	230
1460.64	208
1461.98	202
1463.33	212
1464.67	194
1466.01	206
1467.35	194
1468.69	198
1470.03	176
1471.37	192
1472.71	176
1474.05	190
1475.39	184
1476.73	174
1478.07	172
1479.41	182
1480.75	180
1482.09	184
1483.42	176
1484.76	164
1486.1	178
1487.43	172
1488.77	178
1490.11	176
1491.44	186
1492.78	196
1494.11	174
1495.45	172
1496.78	174
1498.12	162
1499.45	176
1500.78	158
1502.11	160
1503.45	162
1504.78	168
1506.11	160
1507.44	156
1508.77	160
1510.11	160
1511.44	156
1512.77	166
1514.1	156
1515.43	152
1516.76	152
1518.08	166
1519.41	170
1520.74	162
1522.07	162
1523.4	152
1524.72	154
1526.05	160
1527.38	158
1528.7	158
1530.03	162
1531.36	162
1532.68	162
1534.01	156
1535.33	154
1536.66	158
1537.98	156
1539.3	162
1540.63	156
1541.95	166
1543.27	162
1544.6	170
1545.92	164
1547.24	150
1548.56	150
1549.88	152
1551.2	160
1552.52	164
1553.84	152
1555.17	158
1556.48	154
1557.8	154
1559.12	146
1560.44	176
1561.76	150
1563.08	166
1564.4	162
1565.71	166
1567.03	172
1568.35	166
1569.66	176
1570.98	176
1572.29	172
1573.61	186
1574.93	210
1576.24	202
1577.55	236
1578.87	282
1580.18	310
1581.5	382
1582.81	406
1584.12	394
1585.43	334
1586.75	278
1588.06	258
1589.37	246
1590.68	254
1591.99	272
1593.3	280
1594.61	316
1595.92	342
1597.23	424
1598.54	512
1599.85	610
1601.16	670
1602.47	694
1603.78	620
1605.08	554
1606.39	454
1607.7	374
1609	316
1610.31	268
1611.62	262
1612.92	226
1614.23	220
1615.53	198
1616.84	194
1618.14	194
1619.45	190
1620.75	178
1622.06	142
1623.36	166
1624.66	158
1625.96	154
1627.27	148
1628.57	152
1629.87	144
1631.17	154
1632.47	148
1633.77	136
1635.07	156
1636.37	148
1637.67	138
1638.97	142
1640.27	146
1641.57	150
1642.87	148
1644.17	152
1645.47	156
1646.76	148
1648.06	162
1649.36	160
1650.66	148
1651.95	142
1653.25	138
1654.54	146
1655.84	132
1657.13	134
1658.43	140
1659.72	128
1661.02	128
1662.31	128
1663.6	126
1664.9	132
1666.19	134
1667.48	132
1668.78	132
1670.07	128
1671.36	134
1672.65	132
1673.94	126
1675.23	126
1676.52	120
1677.81	136
1679.1	118
1680.39	120
1681.68	128
1682.97	124
1684.26	128
1685.55	116
1686.83	116
1688.12	114
1689.41	124
1690.7	122
1691.98	130
1693.27	126
1694.55	118
1695.84	134
1697.13	114
1698.41	118
1699.69	120
1700.98	128
1702.26	108