File: Jesse_Dataset_v2/Pure Raman/Polystyrene/785nm/ps-ppo-6jan25-1,0000-map3_Y00_X02.txt
204.377	800
206.045	826
207.713	862
209.38	874
211.048	880
212.715	878
214.381	886
216.047	900
217.712	934
219.377	902
221.042	902
222.706	882
224.369	862
226.032	840
227.695	812
229.357	756
231.019	710
232.68	660
234.341	610
236.001	578
237.661	546
239.321	490
240.98	450
242.639	402
244.297	376
245.955	326
247.612	328
249.268	304
250.924	310
252.58	300
254.236	282
255.891	296
257.546	256
259.2	266
260.854	260
262.507	260
264.16	278
265.812	242
267.463	242
269.115	236
270.766	252
272.417	242
274.067	230
275.717	216
277.365	222
279.014	214
280.663	220
282.311	204
283.958	206
285.605	208
287.252	202
288.898	196
290.543	188
292.188	188
293.833	174
295.477	176
297.121	164
298.765	168
300.407	160
302.05	164
303.693	162
305.334	164
306.975	164
308.615	146
310.256	172
311.896	168
313.535	182
315.175	164
316.813	174
318.451	170
320.089	164
321.726	162
323.362	164
324.999	180
326.635	160
328.271	162
329.905	170
331.54	168
333.174	156
334.807	162
336.441	164
338.074	166
339.707	162
341.338	158
342.969	152
344.601	158
346.231	158
347.861	144
349.491	142
351.12	152
352.749	146
354.378	150
356.006	150
357.633	134
359.261	138
360.887	142
362.513	140
364.139	144
365.764	138
367.39	146
369.014	158
370.638	142
372.261	146
373.884	158
375.508	164
377.13	158
378.752	162
380.373	164
381.994	166
383.615	170
385.235	168
386.854	166
388.473	166
390.092	176
391.711	192
393.328	190
394.947	184
396.564	198
398.181	206
399.797	202
401.412	198
403.027	220
404.642	238
406.257	236
407.871	224
409.484	222
411.098	198
412.711	212
414.323	196
415.935	170
417.547	172
419.158	170
420.768	160
422.378	152
423.988	154
425.597	154
427.206	152
428.814	144
430.422	150
432.03	148
433.637	136
435.243	140
436.85	136
438.456	124
440.062	132
441.666	134
443.271	134
444.876	136
446.479	112
448.082	126
449.685	126
451.287	114
452.89	114
454.492	114
456.092	104
457.693	102
459.293	96
460.893	94
462.492	108
464.092	102
465.691	100
467.288	96
468.887	106
470.483	100
472.081	100
473.677	102
475.273	94
476.869	98
478.463	104
480.059	90
481.653	100
483.247	100
484.84	96
486.433	96
488.026	96
489.618	106
491.21	98
492.801	96
494.392	98
495.983	102
497.573	96
499.162	102
500.752	104
502.341	106
503.929	108
505.517	100
507.105	106
508.692	104
510.279	98
511.865	106
513.45	108
515.037	102
516.621	96
518.206	98
519.79	110
521.374	108
522.957	116
524.54	100
526.123	110
527.705	110
529.287	124
530.868	130
532.448	124
534.029	126
535.609	140
537.188	134
538.768	142
540.346	140
541.925	140
543.502	146
545.08	138
546.657	132
548.234	146
549.81	136
551.386	142
552.961	136
554.536	132
556.11	140
557.684	134
559.258	142
560.832	130
562.405	134
563.977	128
565.55	132
567.12	128
568.692	124
570.263	136
571.833	136
573.403	116
574.973	130
576.542	116
578.111	114
579.679	108
581.247	110
582.815	106
584.382	102
585.948	106
587.514	108
589.081	98
590.645	102
592.211	104
593.775	96
595.339	110
596.904	106
598.466	108
600.03	106
601.592	120
603.154	112
604.715	136
606.277	128
607.838	146
609.398	152
610.958	142
612.518	146
614.077	188
615.636	216
617.194	310
618.753	494
620.31	686
621.867	696
623.424	454
624.98	274
626.537	198
628.092	158
629.647	136
631.202	130
632.756	122
634.31	112
635.864	110
637.417	98
638.969	94
640.521	96
642.074	82
643.625	78
645.176	74
646.726	78
648.276	78
649.827	68
651.376	76
652.925	74
654.473	72
656.021	74
657.569	76
659.117	72
660.664	76
662.21	66
663.757	78
665.302	82
666.847	68
668.392	66
669.937	74
671.481	74
673.025	76
674.568	62
676.111	68
677.653	74
679.195	78
680.737	76
682.279	74
683.82	76
685.36	64
686.9	66
688.44	68
689.979	72
691.517	78
693.056	74
694.594	74
696.132	76
697.669	86
699.206	88
700.742	90
702.278	96
703.814	92
705.35	98
706.884	80
708.419	92
709.953	96
711.487	98
713.019	90
714.552	90
716.085	96
717.617	96
719.148	104
720.68	118
722.21	122
723.741	136
725.271	140
726.8	134
728.33	126
729.858	124
731.387	112
732.915	120
734.443	136
735.97	140
737.497	156
739.023	158
740.549	184
742.075	190
743.6	184
745.125	190
746.65	178
748.173	194
749.697	184
751.22	198
752.743	198
754.266	194
755.788	240
757.309	234
758.831	232
760.351	228
761.871	220
763.392	212
764.912	222
766.431	212
767.95	222
769.468	200
770.986	208
772.504	192
774.022	196
775.538	198
777.055	192
778.571	192
780.086	198
781.602	210
783.117	238
784.632	260
786.146	254
787.659	286
789.173	320
790.685	334
792.198	318
793.71	334
795.222	336
796.733	324
798.244	318
799.755	320
801.265	284
802.775	228
804.284	220
805.793	204
807.302	186
808.81	186
810.318	174
811.826	170
813.333	158
814.84	160
816.346	130
817.851	138
819.357	112
820.862	110
822.367	108
823.871	120
825.376	114
826.878	102
828.382	102
829.885	118
831.387	112
832.889	122
834.391	126
835.892	134
837.392	146
838.893	150
840.393	152
841.893	158
843.392	146
844.891	156
846.389	136
847.888	136
849.386	122
850.882	126
852.38	130
853.876	120
855.372	122
856.868	128
858.363	118
859.858	124
861.353	126
862.847	114
864.341	120
865.834	120
867.328	124
868.82	116
870.313	122
871.805	122
873.296	124
874.787	112
876.278	120
877.769	112
879.258	118
880.748	122
882.237	108
883.726	104
885.214	118
886.702	108
888.19	104
889.677	114
891.164	112
892.651	104
894.137	114
895.623	104
897.108	108
898.593	120
900.077	130
901.562	134
903.046	150
904.529	138
906.012	144
907.495	136
908.977	134
910.459	134
911.941	128
913.422	124
914.903	114
916.383	116
917.863	106
919.343	100
920.822	104
922.301	108
923.779	106
925.257	88
926.735	100
928.213	96
929.69	98
931.166	84
932.643	98
934.119	86
935.594	96
937.069	88
938.543	98
940.018	100
941.492	86
942.966	98
944.439	94
945.911	100
947.384	104
948.856	98
950.328	106
951.799	102
953.27	102
954.741	104
956.21	106
957.68	104
959.15	104
960.619	126
962.088	122
963.556	118
965.023	122
966.491	118
967.958	138
969.425	124
970.891	130
972.357	126
973.824	134
975.288	134
976.754	154
978.218	162
979.682	188
981.146	196
982.609	208
984.072	256
985.534	268
986.997	306
988.459	400
989.92	546
991.382	748
992.842	786
994.302	722
995.763	828
997.222	1202
998.681	1912
1000.14	2886
1001.6	3342
1003.06	2896
1004.52	2020
1005.97	1186
1007.43	692
1008.89	426
1010.34	316
1011.8	238
1013.25	220
1014.71	186
1016.16	182
1017.62	180
1019.07	200
1020.53	210
1021.98	256
1023.43	312
1024.89	406
1026.34	480
1027.79	624
1029.24	782
1030.69	876
1032.14	874
1033.59	832
1035.04	676
1036.49	530
1037.94	422
1039.39	330
1040.84	268
1042.29	226
1043.73	202
1045.18	184
1046.63	172
1048.08	168
1049.52	160
1050.97	164
1052.41	152
1053.86	168
1055.3	162
1056.75	152
1058.19	148
1059.64	148
1061.08	160
1062.52	156
1063.96	164
1065.41	172
1066.85	182
1068.29	162
1069.73	186
1071.17	190
1072.61	180
1074.05	176
1075.49	154
1076.93	166
1078.37	164
1079.81	168
1081.25	172
1082.68	180
1084.12	170
1085.56	158
1087	164
1088.43	162
1089.87	174
1091.3	160
1092.74	158
1094.17	162
1095.61	172
1097.04	174
1098.48	154
1099.91	162
1101.34	164
1102.78	160
1104.21	154
1105.64	152
1107.07	144
1108.5	140
1109.93	134
1111.36	128
1112.8	126
1114.22	126
1115.65	114
1117.08	136
1118.51	110
1119.94	112
1121.37	112
1122.8	108
1124.22	108
1125.65	100
1127.08	106
1128.5	100
1129.93	116
1131.35	114
1132.78	100
1134.2	116
1135.63	108
1137.05	120
1138.48	118
1139.9	136
1141.32	124
1142.75	146
1144.17	140
1145.59	166
1147.01	164
1148.43	186
1149.85	224
1151.27	282
1152.69	358
1154.11	396
1155.53	406
1156.95	386
1158.37	338
1159.79	298
1161.21	254
1162.62	226
1164.04	216
1165.46	214
1166.87	198
1168.29	200
1169.71	216
1171.12	220
1172.54	248
1173.95	254
1175.37	304
1176.78	340
1178.19	422
1179.61	482
1181.02	534
1182.43	534
1183.84	502
1185.26	458
1186.67	438
1188.08	414
1189.49	438
1190.9	464
1192.31	476
1193.72	488
1195.13	506
1196.54	514
1197.95	474
1199.36	480
1200.76	480
1202.17	466
1203.58	430
1204.99	404
1206.39	394
1207.8	344
1209.2	324
1210.61	292
1212.01	250
1213.42	238
1214.82	222
1216.23	224
1217.63	208
1219.03	204
1220.44	196
1221.84	198
1223.24	204
1224.64	196
1226.05	204
1227.45	204
1228.85	180
1230.25	186
1231.65	168
1233.05	176
1234.45	178
1235.85	166
1237.25	150
1238.64	162
1240.04	174
1241.44	164
1242.84	164
1244.23	156
1245.63	162
1247.03	174
1248.42	176
1249.82	150
1251.21	158
1252.61	160
1254	164
1255.4	170
1256.79	166
1258.19	172
1259.58	158
1260.97	168
1262.36	162
1263.76	158
1265.15	176
1266.54	176
1267.93	164
1269.32	174
1270.71	160
1272.1	162
1273.49	162
1274.88	176
1276.27	172
1277.66	166
1279.05	168
1280.43	178
1281.82	166
1283.21	178
1284.6	162
1285.98	176
1287.37	172
1288.75	188
1290.14	182
1291.53	196
1292.91	190
1294.29	192
1295.68	210
1297.06	202
1298.45	216
1299.83	208
1301.21	208
1302.59	214
1303.98	206
1305.36	222
1306.74	208
1308.12	216
1309.5	216
1310.88	216
1312.26	228
1313.64	220
1315.02	244
1316.4	238
1317.78	246
1319.16	258
1320.53	256
1321.91	270
1323.29	272
1324.67	266
1326.04	270
1327.42	282
1328.79	284
1330.17	298
1331.54	286
1332.92	280
1334.29	290
1335.67	282
1337.04	276
1338.42	294
1339.79	258
1341.16	262
1342.53	250
1343.91	270
1345.28	262
1346.65	252
1348.02	256
1349.39	244
1350.76	264
1352.13	242
1353.5	256
1354.87	254
1356.24	252
1357.61	262
1358.98	256
1360.34	258
1361.71	268
1363.08	270
1364.45	270
1365.81	262
1367.18	262
1368.54	262
1369.91	270
1371.28	270
1372.64	234
1374.01	276
1375.37	264
1376.73	270
1378.1	272
1379.46	258
1380.82	260
1382.19	258
1383.55	244
1384.91	256
1386.27	252
1387.63	224
1388.99	234
1390.35	234
1391.71	238
1393.07	228
1394.43	218
1395.79	228
1397.15	224
1398.51	226
1399.87	222
1401.23	222
1402.58	222
1403.94	230
1405.3	224
1406.65	234
1408.01	202
1409.37	226
1410.72	230
1412.08	206
1413.43	218
1414.79	220
1416.14	204
1417.49	206
1418.85	200
1420.2	220
1421.55	212
1422.91	208
1424.26	216
1425.61	218
1426.96	204
1428.31	218
1429.66	220
1431.01	224
1432.36	226
1433.71	232
1435.06	242
1436.41	250
1437.76	264
1439.11	280
1440.46	266
1441.81	302
1443.15	282
1444.5	296
1445.85	306
1447.19	326
1448.54	316
1449.89	334
1451.23	324
1452.58	320
1453.92	304
1455.27	280
1456.61	268
1457.95	250
1459.3	214
1460.64	212
1461.98	204
1463.33	198
1464.67	196
1466.01	186
1467.35	192
1468.69	202
1470.03	174
1471.37	182
1472.71	180
1474.05	192
1475.39	178
1476.73	176
1478.07	190
1479.41	182
1480.75	174
1482.09	170
1483.42	180
1484.76	178
1486.1	168
1487.43	160
1488.77	184
1490.11	168
1491.44	180
1492.78	172
1494.11	188
1495.45	182
1496.78	180
1498.12	158
1499.45	158
1500.78	174
1502.11	156
1503.45	154
1504.78	160
1506.11	160
1507.44	164
1508.77	170
1510.11	158
1511.44	156
1512.77	162
1514.1	146
1515.43	162
1516.76	152
1518.08	160
1519.41	162
1520.74	162
1522.07	162
1523.4	152
1524.72	160
1526.05	154
1527.38	168
1528.7	150
1530.03	148
1531.36	164
1532.68	154
1534.01	156
1535.33	166
1536.66	160
1537.98	158
1539.3	148
1540.63	148
1541.95	162
1543.27	154
1544.6	156
1545.92	162
1547.24	160
1548.56	162
1549.88	152
1551.2	170
1552.52	158
1553.84	162
1555.17	160
1556.48	146
1557.8	164
1559.12	158
1560.44	156
1561.76	152
1563.08	156
1564.4	160
1565.71	170
1567.03	168
1568.35	164
1569.66	182
1570.98	184
1572.29	194
1573.61	198
1574.93	200
1576.24	214
1577.55	226
1578.87	270
1580.18	324
1581.5	390
1582.81	384
1584.12	400
1585.43	342
1586.75	306
1588.06	260
1589.37	254
1590.68	240
1591.99	240
1593.3	272
1594.61	300
1595.92	344
1597.23	410
1598.54	516
1599.85	624
1601.16	676
1602.47	680
1603.78	646
1605.08	542
1606.39	438
1607.7	360
1609	320
1610.31	276
1611.62	250
1612.92	238
1614.23	202
1615.53	204
1616.84	184
1618.14	178
1619.45	182
1620.75	168
1622.06	160
1623.36	176
1624.66	158
1625.96	158
1627.27	164
1628.57	162
1629.87	146
1631.17	156
1632.47	144
1633.77	144
1635.07	150
1636.37	136
1637.67	142
1638.97	134
1640.27	152
1641.57	148
1642.87	150
1644.17	154
1645.47	150
1646.76	152
1648.06	148
1649.36	152
1650.66	146
1651.95	134
1653.25	138
1654.54	144
1655.84	136
1657.13	128
1658.43	138
1659.72	132
1661.02	132
1662.31	130
1663.6	130
1664.9	122
1666.19	128
1667.48	130
1668.78	126
1670.07	126
1671.36	128
1672.65	128
1673.94	128
1675.23	136
1676.52	122
1677.81	126
1679.1	126
1680.39	128
1681.68	132
1682.97	130
1684.26	118
1685.55	114
1686.83	120
1688.12	112
1689.41	120
1690.7	124
1691.98	122
1693.27	116
1694.55	124
1695.84	120
1697.13	106
1698.41	112
1699.69	114
1700.98	116
1702.26	116