File: Jesse_Dataset_v2/Pure Raman/Polystyrene/785nm/ps-ppo-6jan25-1,0000-map3_Y08_X07.txt
204.377	856
206.045	832
207.713	876
209.38	848
211.048	870
212.715	904
214.381	890
216.047	912
217.712	922
219.377	926
221.042	908
222.706	892
224.369	896
226.032	832
227.695	814
229.357	790
231.019	712
232.68	710
234.341	598
236.001	600
237.661	552
239.321	506
240.98	476
242.639	410
244.297	382
245.955	344
247.612	342
249.268	330
250.924	320
252.58	308
254.236	284
255.891	268
257.546	292
259.2	284
260.854	254
262.507	278
264.16	276
265.812	276
267.463	268
269.115	260
270.766	238
272.417	250
274.067	246
275.717	236
277.365	242
279.014	236
280.663	226
282.311	236
283.958	204
285.605	202
287.252	216
288.898	206
290.543	184
292.188	188
293.833	188
295.477	168
297.121	176
298.765	176
300.407	180
302.05	166
303.693	160
305.334	178
306.975	182
308.615	172
310.256	176
311.896	170
313.535	184
315.175	178
316.813	168
318.451	184
320.089	174
321.726	180
323.362	170
324.999	174
326.635	186
328.271	174
329.905	176
331.54	176
333.174	166
334.807	166
336.441	174
338.074	172
339.707	174
341.338	166
342.969	168
344.601	168
346.231	170
347.861	162
349.491	154
351.12	156
352.749	156
354.378	154
356.006	156
357.633	156
359.261	162
360.887	146
362.513	150
364.139	160
365.764	138
367.39	156
369.014	146
370.638	156
372.261	162
373.884	168
375.508	160
377.13	174
378.752	176
380.373	176
381.994	166
383.615	176
385.235	178
386.854	188
388.473	184
390.092	186
391.711	192
393.328	194
394.947	200
396.564	198
398.181	198
399.797	218
401.412	216
403.027	220
404.642	236
406.257	246
407.871	240
409.484	234
411.098	224
412.711	212
414.323	202
415.935	190
417.547	180
419.158	194
420.768	178
422.378	170
423.988	164
425.597	150
427.206	154
428.814	156
430.422	148
432.03	144
433.637	148
435.243	154
436.85	138
438.456	146
440.062	134
441.666	144
443.271	140
444.876	140
446.479	130
448.082	122
449.685	134
451.287	126
452.89	116
454.492	120
456.092	128
457.693	118
459.293	126
460.893	110
462.492	112
464.092	114
465.691	110
467.288	98
468.887	116
470.483	116
472.081	118
473.677	108
475.273	108
476.869	108
478.463	106
480.059	102
481.653	108
483.247	108
484.84	102
486.433	106
488.026	94
489.618	98
491.21	104
492.801	102
494.392	104
495.983	106
497.573	112
499.162	112
500.752	120
502.341	110
503.929	118
505.517	114
507.105	118
508.692	110
510.279	100
511.865	104
513.45	118
515.037	106
516.621	108
518.206	128
519.79	110
521.374	118
522.957	120
524.54	116
526.123	142
527.705	124
529.287	130
530.868	132
532.448	134
534.029	148
535.609	150
537.188	150
538.768	150
540.346	154
541.925	156
543.502	164
545.08	148
546.657	148
548.234	150
549.81	144
551.386	142
552.961	152
554.536	142
556.11	136
557.684	146
559.258	150
560.832	130
562.405	138
563.977	120
565.55	144
567.12	136
568.692	144
570.263	132
571.833	142
573.403	144
574.973	146
576.542	128
578.111	126
579.679	128
581.247	120
582.815	116
584.382	114
585.948	122
587.514	118
589.081	114
590.645	110
592.211	116
593.775	118
595.339	126
596.904	114
598.466	122
600.03	122
601.592	126
603.154	122
604.715	148
606.277	154
607.838	166
609.398	164
610.958	150
612.518	164
614.077	188
615.636	232
617.194	322
618.753	542
620.31	730
621.867	706
623.424	456
624.98	280
626.537	196
628.092	166
629.647	150
631.202	136
632.756	132
634.31	122
635.864	114
637.417	104
638.969	106
640.521	86
642.074	86
643.625	82
645.176	88
646.726	86
648.276	86
649.827	78
651.376	90
652.925	84
654.473	90
656.021	82
657.569	84
659.117	82
660.664	86
662.21	92
663.757	82
665.302	78
666.847	88
668.392	82
669.937	78
671.481	82
673.025	86
674.568	78
676.111	78
677.653	84
679.195	78
680.737	80
682.279	78
683.82	84
685.36	84
686.9	76
688.44	86
689.979	70
691.517	88
693.056	76
694.594	86
696.132	90
697.669	94
699.206	100
700.742	100
702.278	102
703.814	104
705.35	104
706.884	106
708.419	100
709.953	102
711.487	94
713.019	102
714.552	98
716.085	100
717.617	102
719.148	112
720.68	124
722.21	144
723.741	152
725.271	142
726.8	142
728.33	130
729.858	122
731.387	122
732.915	126
734.443	140
735.97	158
737.497	162
739.023	184
740.549	178
742.075	194
743.6	194
745.125	184
746.65	186
748.173	186
749.697	204
751.22	218
752.743	214
754.266	222
755.788	228
757.309	244
758.831	238
760.351	236
761.871	228
763.392	220
764.912	214
766.431	230
767.95	206
769.468	210
770.986	220
772.504	192
774.022	198
775.538	196
777.055	204
778.571	216
780.086	220
781.602	242
783.117	234
784.632	284
786.146	272
787.659	272
789.173	322
790.685	340
792.198	348
793.71	356
795.222	354
796.733	334
798.244	330
799.755	292
801.265	294
802.775	250
804.284	246
805.793	198
807.302	198
808.81	182
810.318	180
811.826	182
813.333	172
814.84	154
816.346	152
817.851	128
819.357	134
820.862	132
822.367	122
823.871	120
825.376	116
826.878	116
828.382	116
829.885	114
831.387	112
832.889	130
834.391	138
835.892	136
837.392	150
838.893	150
840.393	144
841.893	168
843.392	158
844.891	142
846.389	142
847.888	146
849.386	132
850.882	146
852.38	130
853.876	132
855.372	124
856.868	120
858.363	136
859.858	126
861.353	126
862.847	126
864.341	116
865.834	120
867.328	126
868.82	124
870.313	128
871.805	128
873.296	128
874.787	116
876.278	124
877.769	112
879.258	128
880.748	114
882.237	114
883.726	114
885.214	108
886.702	110
888.19	104
889.677	120
891.164	110
892.651	114
894.137	116
895.623	128
897.108	124
898.593	128
900.077	132
901.562	128
903.046	142
904.529	144
906.012	154
907.495	156
908.977	142
910.459	134
911.941	128
913.422	122
914.903	126
916.383	104
917.863	104
919.343	108
920.822	106
922.301	108
923.779	102
925.257	98
926.735	92
928.213	96
929.69	106
931.166	102
932.643	106
934.119	102
935.594	88
937.069	96
938.543	106
940.018	104
941.492	102
942.966	108
944.439	100
945.911	110
947.384	112
948.856	106
950.328	102
951.799	106
953.27	108
954.741	108
956.21	112
957.68	110
959.15	114
960.619	114
962.088	124
963.556	124
965.023	136
966.491	134
967.958	140
969.425	126
970.891	136
972.357	130
973.824	122
975.288	144
976.754	166
978.218	166
979.682	172
981.146	206
982.609	228
984.072	250
985.534	296
986.997	338
988.459	442
989.92	610
991.382	812
992.842	844
994.302	786
995.763	870
997.222	1240
998.681	2006
1000.14	2936
1001.6	3366
1003.06	2814
1004.52	1924
1005.97	1156
1007.43	692
1008.89	438
1010.34	308
1011.8	246
1013.25	212
1014.71	196
1016.16	198
1017.62	204
1019.07	182
1020.53	212
1021.98	270
1023.43	296
1024.89	394
1026.34	486
1027.79	622
1029.24	776
1030.69	850
1032.14	886
1033.59	842
1035.04	660
1036.49	522
1037.94	418
1039.39	308
1040.84	274
1042.29	242
1043.73	192
1045.18	198
1046.63	166
1048.08	182
1049.52	168
1050.97	164
1052.41	172
1053.86	154
1055.3	152
1056.75	158
1058.19	158
1059.64	158
1061.08	136
1062.52	174
1063.96	170
1065.41	176
1066.85	178
1068.29	178
1069.73	176
1071.17	162
1072.61	180
1074.05	178
1075.49	168
1076.93	172
1078.37	174
1079.81	174
1081.25	158
1082.68	178
1084.12	168
1085.56	178
1087	182
1088.43	168
1089.87	160
1091.3	176
1092.74	174
1094.17	182
1095.61	170
1097.04	176
1098.48	176
1099.91	180
1101.34	172
1102.78	162
1104.21	138
1105.64	148
1107.07	148
1108.5	128
1109.93	140
1111.36	138
1112.8	144
1114.22	122
1115.65	122
1117.08	124
1118.51	112
1119.94	124
1121.37	120
1122.8	108
1124.22	96
1125.65	122
1127.08	112
1128.5	110
1129.93	114
1131.35	104
1132.78	120
1134.2	118
1135.63	120
1137.05	118
1138.48	122
1139.9	128
1141.32	130
1142.75	150
1144.17	160
1145.59	168
1147.01	198
1148.43	206
1149.85	230
1151.27	306
1152.69	362
1154.11	402
1155.53	408
1156.95	398
1158.37	362
1159.79	298
1161.21	262
1162.62	216
1164.04	194
1165.46	222
1166.87	210
1168.29	228
1169.71	206
1171.12	230
1172.54	244
1173.95	282
1175.37	316
1176.78	362
1178.19	436
1179.61	480
1181.02	544
1182.43	534
1183.84	498
1185.26	446
1186.67	426
1188.08	444
1189.49	452
1190.9	470
1192.31	484
1193.72	494
1195.13	482
1196.54	510
1197.95	518
1199.36	486
1200.76	488
1202.17	454
1203.58	448
1204.99	416
1206.39	382
1207.8	332
1209.2	328
1210.61	318
1212.01	282
1213.42	244
1214.82	236
1216.23	222
1217.63	212
1219.03	210
1220.44	204
1221.84	208
1223.24	212
1224.64	196
1226.05	204
1227.45	204
1228.85	200
1230.25	184
1231.65	192
1233.05	168
1234.45	186
1235.85	188
1237.25	170
1238.64	172
1240.04	176
1241.44	180
1242.84	178
1244.23	186
1245.63	170
1247.03	188
1248.42	170
1249.82	180
1251.21	168
1252.61	162
1254	168
1255.4	174
1256.79	170
1258.19	188
1259.58	174
1260.97	172
1262.36	174
1263.76	176
1265.15	172
1266.54	186
1267.93	162
1269.32	188
1270.71	162
1272.1	172
1273.49	182
1274.88	170
1276.27	188
1277.66	172
1279.05	184
1280.43	180
1281.82	180
1283.21	192
1284.6	180
1285.98	176
1287.37	192
1288.75	188
1290.14	194
1291.53	192
1292.91	198
1294.29	220
1295.68	202
1297.06	206
1298.45	224
1299.83	228
1301.21	224
1302.59	216
1303.98	226
1305.36	232
1306.74	224
1308.12	220
1309.5	238
1310.88	238
1312.26	240
1313.64	236
1315.02	240
1316.4	254
1317.78	264
1319.16	260
1320.53	276
1321.91	278
1323.29	304
1324.67	298
1326.04	300
1327.42	284
1328.79	314
1330.17	298
1331.54	296
1332.92	310
1334.29	298
1335.67	296
1337.04	288
1338.42	282
1339.79	300
1341.16	270
1342.53	270
1343.91	272
1345.28	254
1346.65	268
1348.02	270
1349.39	280
1350.76	278
1352.13	274
1353.5	278
1354.87	266
1356.24	268
1357.61	278
1358.98	274
1360.34	292
1361.71	292
1363.08	290
1364.45	264
1365.81	288
1367.18	296
1368.54	288
1369.91	288
1371.28	290
1372.64	280
1374.01	278
1375.37	272
1376.73	276
1378.1	294
1379.46	270
1380.82	284
1382.19	248
1383.55	260
1384.91	270
1386.27	256
1387.63	244
1388.99	250
1390.35	238
1391.71	252
1393.07	264
1394.43	256
1395.79	228
1397.15	256
1398.51	254
1399.87	250
1401.23	232
1402.58	256
1403.94	236
1405.3	242
1406.65	234
1408.01	232
1409.37	228
1410.72	222
1412.08	234
1413.43	238
1414.79	226
1416.14	248
1417.49	226
1418.85	252
1420.2	222
1421.55	230
1422.91	240
1424.26	224
1425.61	242
1426.96	226
1428.31	218
1429.66	222
1431.01	226
1432.36	252
1433.71	240
1435.06	254
1436.41	280
1437.76	268
1439.11	264
1440.46	286
1441.81	310
1443.15	312
1444.5	314
1445.85	324
1447.19	342
1448.54	334
1449.89	334
1451.23	346
1452.58	320
1453.92	320
1455.27	302
1456.61	282
1457.95	258
1459.3	240
1460.64	222
1461.98	216
1463.33	216
1464.67	208
1466.01	196
1467.35	204
1468.69	200
1470.03	200
1471.37	194
1472.71	200
1474.05	206
1475.39	196
1476.73	188
1478.07	190
1479.41	210
1480.75	176
1482.09	182
1483.42	188
1484.76	182
1486.1	186
1487.43	190
1488.77	196
1490.11	184
1491.44	196
1492.78	192
1494.11	192
1495.45	178
1496.78	182
1498.12	186
1499.45	190
1500.78	172
1502.11	184
1503.45	170
1504.78	176
1506.11	186
1507.44	174
1508.77	174
1510.11	166
1511.44	158
1512.77	168
1514.1	172
1515.43	172
1516.76	158
1518.08	180
1519.41	172
1520.74	180
1522.07	168
1523.4	180
1524.72	160
1526.05	174
1527.38	168
1528.7	166
1530.03	182
1531.36	162
1532.68	174
1534.01	186
1535.33	166
1536.66	168
1537.98	152
1539.3	160
1540.63	174
1541.95	154
1543.27	178
1544.6	160
1545.92	162
1547.24	162
1548.56	168
1549.88	168
1551.2	162
1552.52	170
1553.84	166
1555.17	172
1556.48	150
1557.8	168
1559.12	176
1560.44	166
1561.76	174
1563.08	172
1564.4	174
1565.71	174
1567.03	178
1568.35	184
1569.66	172
1570.98	190
1572.29	198
1573.61	206
1574.93	210
1576.24	208
1577.55	244
1578.87	276
1580.18	314
1581.5	408
1582.81	414
1584.12	412
1585.43	376
1586.75	298
1588.06	274
1589.37	254
1590.68	238
1591.99	270
1593.3	294
1594.61	324
1595.92	346
1597.23	430
1598.54	518
1599.85	632
1601.16	678
1602.47	674
1603.78	658
1605.08	550
1606.39	462
1607.7	366
1609	322
1610.31	282
1611.62	244
1612.92	222
1614.23	208
1615.53	202
1616.84	194
1618.14	198
1619.45	190
1620.75	186
1622.06	166
1623.36	174
1624.66	172
1625.96	158
1627.27	168
1628.57	156
1629.87	168
1631.17	148
1632.47	160
1633.77	154
1635.07	158
1636.37	156
1637.67	152
1638.97	144
1640.27	154
1641.57	162
1642.87	150
1644.17	162
1645.47	152
1646.76	160
1648.06	158
1649.36	156
1650.66	158
1651.95	144
1653.25	152
1654.54	150
1655.84	148
1657.13	140
1658.43	142
1659.72	134
1661.02	132
1662.31	138
1663.6	122
1664.9	130
1666.19	128
1667.48	130
1668.78	132
1670.07	126
1671.36	132
1672.65	140
1673.94	134
1675.23	144
1676.52	122
1677.81	138
1679.1	128
1680.39	126
1681.68	134
1682.97	134
1684.26	124
1685.55	126
1686.83	136
1688.12	132
1689.41	132
1690.7	122
1691.98	112
1693.27	116
1694.55	136
1695.84	126
1697.13	128
1698.41	128
1699.69	124
1700.98	120
1702.26	124