File: Jesse_Dataset_v2/Pure Raman/Polystyrene/785nm/ps-ppo-6jan25-1,0000-map3_Y09_X02.txt
204.377	800
206.045	812
207.713	848
209.38	854
211.048	876
212.715	866
214.381	858
216.047	910
217.712	924
219.377	914
221.042	924
222.706	896
224.369	874
226.032	856
227.695	832
229.357	738
231.019	712
232.68	660
234.341	614
236.001	582
237.661	518
239.321	466
240.98	448
242.639	414
244.297	388
245.955	346
247.612	340
249.268	328
250.924	310
252.58	294
254.236	290
255.891	302
257.546	286
259.2	266
260.854	264
262.507	250
264.16	266
265.812	256
267.463	256
269.115	234
270.766	244
272.417	234
274.067	244
275.717	240
277.365	242
279.014	222
280.663	222
282.311	220
283.958	206
285.605	204
287.252	210
288.898	188
290.543	180
292.188	172
293.833	166
295.477	170
297.121	176
298.765	160
300.407	162
302.05	168
303.693	164
305.334	170
306.975	154
308.615	156
310.256	160
311.896	172
313.535	164
315.175	178
316.813	174
318.451	164
320.089	162
321.726	166
323.362	172
324.999	174
326.635	162
328.271	166
329.905	160
331.54	154
333.174	162
334.807	176
336.441	148
338.074	166
339.707	162
341.338	160
342.969	144
344.601	158
346.231	150
347.861	146
349.491	158
351.12	146
352.749	144
354.378	138
356.006	144
357.633	160
359.261	148
360.887	150
362.513	154
364.139	142
365.764	152
367.39	142
369.014	154
370.638	146
372.261	156
373.884	168
375.508	168
377.13	152
378.752	166
380.373	166
381.994	178
383.615	150
385.235	178
386.854	186
388.473	168
390.092	174
391.711	194
393.328	190
394.947	194
396.564	188
398.181	196
399.797	196
401.412	216
403.027	230
404.642	234
406.257	222
407.871	234
409.484	222
411.098	218
412.711	178
414.323	192
415.935	184
417.547	184
419.158	178
420.768	156
422.378	168
423.988	150
425.597	158
427.206	152
428.814	146
430.422	148
432.03	148
433.637	138
435.243	142
436.85	138
438.456	134
440.062	138
441.666	116
443.271	136
444.876	130
446.479	128
448.082	128
449.685	122
451.287	114
452.89	112
454.492	120
456.092	100
457.693	104
459.293	114
460.893	100
462.492	110
464.092	108
465.691	104
467.288	110
468.887	100
470.483	108
472.081	110
473.677	108
475.273	108
476.869	98
478.463	100
480.059	92
481.653	96
483.247	94
484.84	102
486.433	94
488.026	102
489.618	88
491.21	102
492.801	90
494.392	94
495.983	86
497.573	106
499.162	102
500.752	106
502.341	110
503.929	110
505.517	112
507.105	106
508.692	104
510.279	100
511.865	102
513.45	96
515.037	104
516.621	108
518.206	100
519.79	104
521.374	102
522.957	106
524.54	118
526.123	122
527.705	112
529.287	122
530.868	126
532.448	124
534.029	140
535.609	138
537.188	142
538.768	144
540.346	148
541.925	144
543.502	142
545.08	138
546.657	142
548.234	132
549.81	134
551.386	140
552.961	134
554.536	144
556.11	134
557.684	128
559.258	126
560.832	138
562.405	132
563.977	136
565.55	132
567.12	130
568.692	136
570.263	140
571.833	118
573.403	138
574.973	132
576.542	134
578.111	128
579.679	116
581.247	116
582.815	116
584.382	112
585.948	118
587.514	110
589.081	108
590.645	110
592.211	114
593.775	108
595.339	106
596.904	110
598.466	106
600.03	108
601.592	118
603.154	120
604.715	130
606.277	132
607.838	144
609.398	146
610.958	142
612.518	158
614.077	178
615.636	230
617.194	306
618.753	508
620.31	728
621.867	692
623.424	428
624.98	262
626.537	186
628.092	160
629.647	154
631.202	132
632.756	128
634.31	108
635.864	108
637.417	110
638.969	96
640.521	92
642.074	90
643.625	84
645.176	86
646.726	80
648.276	80
649.827	82
651.376	76
652.925	76
654.473	76
656.021	76
657.569	76
659.117	80
660.664	78
662.21	74
663.757	70
665.302	68
666.847	76
668.392	76
669.937	76
671.481	68
673.025	76
674.568	80
676.111	72
677.653	78
679.195	68
680.737	84
682.279	88
683.82	74
685.36	70
686.9	82
688.44	78
689.979	70
691.517	74
693.056	76
694.594	82
696.132	82
697.669	78
699.206	100
700.742	96
702.278	98
703.814	100
705.35	96
706.884	96
708.419	94
709.953	88
711.487	96
713.019	86
714.552	88
716.085	98
717.617	96
719.148	106
720.68	122
722.21	132
723.741	136
725.271	140
726.8	136
728.33	124
729.858	120
731.387	120
732.915	134
734.443	134
735.97	146
737.497	152
739.023	170
740.549	180
742.075	190
743.6	178
745.125	184
746.65	178
748.173	180
749.697	200
751.22	196
752.743	196
754.266	226
755.788	238
757.309	230
758.831	226
760.351	248
761.871	228
763.392	228
764.912	228
766.431	224
767.95	220
769.468	204
770.986	204
772.504	190
774.022	196
775.538	188
777.055	196
778.571	200
780.086	216
781.602	218
783.117	248
784.632	252
786.146	268
787.659	276
789.173	308
790.685	330
792.198	312
793.71	352
795.222	360
796.733	320
798.244	314
799.755	298
801.265	276
802.775	242
804.284	230
805.793	214
807.302	200
808.81	170
810.318	178
811.826	156
813.333	152
814.84	150
816.346	140
817.851	124
819.357	130
820.862	124
822.367	104
823.871	104
825.376	106
826.878	108
828.382	114
829.885	104
831.387	128
832.889	124
834.391	122
835.892	126
837.392	158
838.893	150
840.393	158
841.893	156
843.392	154
844.891	154
846.389	156
847.888	140
849.386	126
850.882	120
852.38	130
853.876	116
855.372	116
856.868	124
858.363	122
859.858	122
861.353	120
862.847	118
864.341	120
865.834	132
867.328	132
868.82	128
870.313	134
871.805	126
873.296	114
874.787	120
876.278	110
877.769	124
879.258	114
880.748	116
882.237	106
883.726	106
885.214	114
886.702	110
888.19	104
889.677	116
891.164	108
892.651	110
894.137	110
895.623	116
897.108	122
898.593	116
900.077	124
901.562	136
903.046	140
904.529	148
906.012	146
907.495	140
908.977	144
910.459	126
911.941	122
913.422	116
914.903	114
916.383	116
917.863	110
919.343	100
920.822	98
922.301	92
923.779	96
925.257	94
926.735	88
928.213	98
929.69	82
931.166	84
932.643	102
934.119	90
935.594	88
937.069	98
938.543	98
940.018	90
941.492	102
942.966	106
944.439	104
945.911	102
947.384	104
948.856	100
950.328	104
951.799	104
953.27	94
954.741	106
956.21	100
957.68	104
959.15	108
960.619	116
962.088	120
963.556	128
965.023	130
966.491	124
967.958	128
969.425	118
970.891	136
972.357	128
973.824	140
975.288	138
976.754	158
978.218	166
979.682	178
981.146	198
982.609	200
984.072	236
985.534	264
986.997	338
988.459	424
989.92	588
991.382	784
992.842	834
994.302	780
995.763	864
997.222	1236
998.681	1998
1000.14	2904
1001.6	3278
1003.06	2826
1004.52	1900
1005.97	1168
1007.43	668
1008.89	436
1010.34	300
1011.8	250
1013.25	200
1014.71	184
1016.16	206
1017.62	180
1019.07	190
1020.53	226
1021.98	262
1023.43	306
1024.89	384
1026.34	506
1027.79	632
1029.24	768
1030.69	874
1032.14	900
1033.59	814
1035.04	656
1036.49	512
1037.94	410
1039.39	288
1040.84	272
1042.29	230
1043.73	192
1045.18	190
1046.63	176
1048.08	174
1049.52	158
1050.97	150
1052.41	160
1053.86	160
1055.3	150
1056.75	158
1058.19	140
1059.64	156
1061.08	158
1062.52	166
1063.96	168
1065.41	170
1066.85	178
1068.29	178
1069.73	164
1071.17	186
1072.61	174
1074.05	172
1075.49	160
1076.93	170
1078.37	172
1079.81	164
1081.25	160
1082.68	168
1084.12	174
1085.56	170
1087	154
1088.43	170
1089.87	162
1091.3	168
1092.74	156
1094.17	160
1095.61	154
1097.04	166
1098.48	170
1099.91	164
1101.34	174
1102.78	152
1104.21	160
1105.64	140
1107.07	138
1108.5	140
1109.93	128
1111.36	132
1112.8	136
1114.22	122
1115.65	116
1117.08	128
1118.51	126
1119.94	108
1121.37	106
1122.8	114
1124.22	110
1125.65	112
1127.08	108
1128.5	114
1129.93	100
1131.35	110
1132.78	100
1134.2	106
1135.63	102
1137.05	118
1138.48	130
1139.9	132
1141.32	122
1142.75	142
1144.17	152
1145.59	154
1147.01	164
1148.43	176
1149.85	234
1151.27	288
1152.69	370
1154.11	398
1155.53	398
1156.95	392
1158.37	338
1159.79	310
1161.21	256
1162.62	228
1164.04	214
1165.46	200
1166.87	218
1168.29	196
1169.71	214
1171.12	224
1172.54	226
1173.95	272
1175.37	304
1176.78	374
1178.19	418
1179.61	490
1181.02	540
1182.43	510
1183.84	488
1185.26	442
1186.67	424
1188.08	442
1189.49	434
1190.9	450
1192.31	482
1193.72	486
1195.13	482
1196.54	494
1197.95	492
1199.36	492
1200.76	482
1202.17	454
1203.58	450
1204.99	420
1206.39	396
1207.8	328
1209.2	328
1210.61	290
1212.01	276
1213.42	226
1214.82	236
1216.23	218
1217.63	198
1219.03	208
1220.44	194
1221.84	204
1223.24	208
1224.64	198
1226.05	188
1227.45	202
1228.85	184
1230.25	188
1231.65	170
1233.05	178
1234.45	164
1235.85	174
1237.25	172
1238.64	172
1240.04	184
1241.44	162
1242.84	162
1244.23	178
1245.63	162
1247.03	180
1248.42	166
1249.82	170
1251.21	166
1252.61	164
1254	174
1255.4	164
1256.79	162
1258.19	172
1259.58	176
1260.97	166
1262.36	170
1263.76	174
1265.15	170
1266.54	170
1267.93	172
1269.32	158
1270.71	182
1272.1	166
1273.49	158
1274.88	180
1276.27	164
1277.66	176
1279.05	180
1280.43	164
1281.82	176
1283.21	180
1284.6	174
1285.98	174
1287.37	180
1288.75	182
1290.14	184
1291.53	190
1292.91	190
1294.29	186
1295.68	200
1297.06	202
1298.45	204
1299.83	216
1301.21	218
1302.59	214
1303.98	220
1305.36	218
1306.74	218
1308.12	236
1309.5	226
1310.88	230
1312.26	232
1313.64	246
1315.02	244
1316.4	260
1317.78	266
1319.16	258
1320.53	266
1321.91	262
1323.29	268
1324.67	276
1326.04	272
1327.42	298
1328.79	310
1330.17	264
1331.54	304
1332.92	300
1334.29	302
1335.67	278
1337.04	290
1338.42	262
1339.79	284
1341.16	252
1342.53	242
1343.91	268
1345.28	268
1346.65	270
1348.02	264
1349.39	270
1350.76	260
1352.13	266
1353.5	268
1354.87	270
1356.24	260
1357.61	264
1358.98	262
1360.34	262
1361.71	252
1363.08	278
1364.45	284
1365.81	270
1367.18	272
1368.54	276
1369.91	282
1371.28	280
1372.64	280
1374.01	274
1375.37	260
1376.73	274
1378.1	270
1379.46	278
1380.82	250
1382.19	254
1383.55	256
1384.91	246
1386.27	248
1387.63	226
1388.99	242
1390.35	250
1391.71	216
1393.07	244
1394.43	230
1395.79	216
1397.15	236
1398.51	234
1399.87	238
1401.23	236
1402.58	234
1403.94	236
1405.3	238
1406.65	238
1408.01	210
1409.37	222
1410.72	224
1412.08	222
1413.43	210
1414.79	216
1416.14	214
1417.49	226
1418.85	228
1420.2	208
1421.55	220
1422.91	220
1424.26	206
1425.61	214
1426.96	202
1428.31	214
1429.66	230
1431.01	218
1432.36	244
1433.71	242
1435.06	256
1436.41	252
1437.76	264
1439.11	278
1440.46	280
1441.81	286
1443.15	300
1444.5	304
1445.85	314
1447.19	310
1448.54	346
1449.89	330
1451.23	312
1452.58	310
1453.92	300
1455.27	288
1456.61	278
1457.95	236
1459.3	228
1460.64	210
1461.98	208
1463.33	208
1464.67	212
1466.01	194
1467.35	194
1468.69	196
1470.03	198
1471.37	198
1472.71	166
1474.05	184
1475.39	188
1476.73	182
1478.07	190
1479.41	186
1480.75	178
1482.09	182
1483.42	196
1484.76	172
1486.1	174
1487.43	178
1488.77	176
1490.11	178
1491.44	184
1492.78	200
1494.11	182
1495.45	196
1496.78	176
1498.12	182
1499.45	190
1500.78	166
1502.11	170
1503.45	172
1504.78	172
1506.11	162
1507.44	164
1508.77	162
1510.11	160
1511.44	178
1512.77	170
1514.1	152
1515.43	162
1516.76	162
1518.08	158
1519.41	156
1520.74	154
1522.07	156
1523.4	162
1524.72	164
1526.05	170
1527.38	166
1528.7	162
1530.03	160
1531.36	152
1532.68	162
1534.01	166
1535.33	172
1536.66	158
1537.98	162
1539.3	164
1540.63	174
1541.95	158
1543.27	156
1544.6	170
1545.92	168
1547.24	166
1548.56	148
1549.88	164
1551.2	160
1552.52	174
1553.84	156
1555.17	166
1556.48	152
1557.8	154
1559.12	162
1560.44	162
1561.76	162
1563.08	168
1564.4	176
1565.71	168
1567.03	172
1568.35	174
1569.66	164
1570.98	178
1572.29	192
1573.61	188
1574.93	212
1576.24	214
1577.55	248
1578.87	278
1580.18	332
1581.5	386
1582.81	426
1584.12	418
1585.43	324
1586.75	294
1588.06	262
1589.37	264
1590.68	248
1591.99	258
1593.3	262
1594.61	286
1595.92	346
1597.23	432
1598.54	530
1599.85	600
1601.16	682
1602.47	684
1603.78	616
1605.08	574
1606.39	460
1607.7	376
1609	324
1610.31	282
1611.62	222
1612.92	232
1614.23	196
1615.53	204
1616.84	190
1618.14	178
1619.45	174
1620.75	170
1622.06	172
1623.36	164
1624.66	158
1625.96	152
1627.27	144
1628.57	156
1629.87	144
1631.17	144
1632.47	158
1633.77	150
1635.07	140
1636.37	144
1637.67	150
1638.97	152
1640.27	144
1641.57	160
1642.87	156
1644.17	152
1645.47	148
1646.76	154
1648.06	154
1649.36	154
1650.66	156
1651.95	150
1653.25	146
1654.54	138
1655.84	140
1657.13	128
1658.43	146
1659.72	148
1661.02	120
1662.31	136
1663.6	134
1664.9	134
1666.19	126
1667.48	132
1668.78	124
1670.07	130
1671.36	130
1672.65	120
1673.94	126
1675.23	126
1676.52	120
1677.81	134
1679.1	132
1680.39	138
1681.68	118
1682.97	128
1684.26	126
1685.55	130
1686.83	124
1688.12	138
1689.41	122
1690.7	112
1691.98	120
1693.27	128
1694.55	112
1695.84	126
1697.13	124
1698.41	118
1699.69	114
1700.98	130
1702.26	114