File: Jesse_Dataset_v2/Pure Raman/Polystyrene/785nm/ps-ppo-6jan25-1,0000-map3_Y10_X09.txt
204.377	848
206.045	838
207.713	896
209.38	844
211.048	902
212.715	896
214.381	946
216.047	928
217.712	910
219.377	912
221.042	932
222.706	910
224.369	878
226.032	852
227.695	810
229.357	760
231.019	728
232.68	658
234.341	624
236.001	602
237.661	544
239.321	512
240.98	472
242.639	396
244.297	372
245.955	348
247.612	342
249.268	304
250.924	316
252.58	308
254.236	268
255.891	272
257.546	270
259.2	290
260.854	260
262.507	258
264.16	250
265.812	256
267.463	256
269.115	254
270.766	252
272.417	248
274.067	246
275.717	248
277.365	228
279.014	236
280.663	226
282.311	242
283.958	226
285.605	200
287.252	194
288.898	196
290.543	186
292.188	188
293.833	188
295.477	182
297.121	180
298.765	152
300.407	180
302.05	172
303.693	174
305.334	166
306.975	166
308.615	162
310.256	174
311.896	170
313.535	174
315.175	178
316.813	180
318.451	152
320.089	168
321.726	184
323.362	182
324.999	162
326.635	186
328.271	168
329.905	162
331.54	184
333.174	162
334.807	180
336.441	180
338.074	180
339.707	154
341.338	166
342.969	170
344.601	164
346.231	164
347.861	164
349.491	156
351.12	158
352.749	152
354.378	150
356.006	152
357.633	154
359.261	142
360.887	158
362.513	152
364.139	156
365.764	154
367.39	150
369.014	164
370.638	132
372.261	158
373.884	154
375.508	160
377.13	156
378.752	170
380.373	164
381.994	174
383.615	182
385.235	184
386.854	178
388.473	182
390.092	194
391.711	188
393.328	188
394.947	194
396.564	192
398.181	186
399.797	204
401.412	226
403.027	224
404.642	244
406.257	242
407.871	224
409.484	232
411.098	224
412.711	218
414.323	200
415.935	186
417.547	186
419.158	184
420.768	178
422.378	170
423.988	156
425.597	164
427.206	152
428.814	150
430.422	154
432.03	132
433.637	140
435.243	148
436.85	138
438.456	140
440.062	142
441.666	140
443.271	134
444.876	146
446.479	130
448.082	128
449.685	122
451.287	124
452.89	122
454.492	130
456.092	122
457.693	120
459.293	112
460.893	96
462.492	104
464.092	118
465.691	108
467.288	114
468.887	114
470.483	96
472.081	120
473.677	94
475.273	106
476.869	106
478.463	108
480.059	104
481.653	98
483.247	96
484.84	100
486.433	100
488.026	112
489.618	108
491.21	96
492.801	106
494.392	108
495.983	102
497.573	106
499.162	104
500.752	102
502.341	118
503.929	110
505.517	124
507.105	118
508.692	112
510.279	120
511.865	116
513.45	110
515.037	116
516.621	116
518.206	110
519.79	112
521.374	112
522.957	120
524.54	116
526.123	128
527.705	126
529.287	122
530.868	136
532.448	128
534.029	144
535.609	136
537.188	144
538.768	152
540.346	148
541.925	154
543.502	158
545.08	144
546.657	142
548.234	134
549.81	144
551.386	150
552.961	138
554.536	138
556.11	132
557.684	140
559.258	136
560.832	140
562.405	144
563.977	146
565.55	136
567.12	142
568.692	134
570.263	134
571.833	138
573.403	136
574.973	140
576.542	138
578.111	132
579.679	126
581.247	114
582.815	120
584.382	116
585.948	116
587.514	112
589.081	118
590.645	106
592.211	108
593.775	104
595.339	108
596.904	116
598.466	114
600.03	116
601.592	114
603.154	124
604.715	128
606.277	146
607.838	162
609.398	160
610.958	152
612.518	168
614.077	190
615.636	228
617.194	332
618.753	546
620.31	714
621.867	688
623.424	470
624.98	290
626.537	210
628.092	174
629.647	158
631.202	132
632.756	136
634.31	114
635.864	122
637.417	110
638.969	92
640.521	102
642.074	88
643.625	88
645.176	80
646.726	88
648.276	82
649.827	88
651.376	80
652.925	76
654.473	90
656.021	86
657.569	88
659.117	80
660.664	86
662.21	74
663.757	84
665.302	80
666.847	78
668.392	78
669.937	76
671.481	80
673.025	72
674.568	80
676.111	72
677.653	78
679.195	72
680.737	72
682.279	78
683.82	78
685.36	74
686.9	82
688.44	76
689.979	70
691.517	80
693.056	86
694.594	78
696.132	82
697.669	92
699.206	98
700.742	94
702.278	98
703.814	98
705.35	92
706.884	106
708.419	92
709.953	96
711.487	96
713.019	104
714.552	100
716.085	98
717.617	110
719.148	108
720.68	120
722.21	146
723.741	152
725.271	154
726.8	140
728.33	130
729.858	128
731.387	130
732.915	138
734.443	140
735.97	148
737.497	166
739.023	176
740.549	176
742.075	186
743.6	194
745.125	182
746.65	190
748.173	196
749.697	200
751.22	190
752.743	210
754.266	210
755.788	232
757.309	236
758.831	220
760.351	226
761.871	238
763.392	230
764.912	212
766.431	208
767.95	214
769.468	204
770.986	214
772.504	202
774.022	208
775.538	200
777.055	200
778.571	198
780.086	212
781.602	212
783.117	242
784.632	258
786.146	268
787.659	294
789.173	322
790.685	328
792.198	330
793.71	356
795.222	342
796.733	332
798.244	346
799.755	294
801.265	290
802.775	258
804.284	224
805.793	202
807.302	192
808.81	184
810.318	182
811.826	166
813.333	166
814.84	152
816.346	136
817.851	130
819.357	136
820.862	118
822.367	110
823.871	112
825.376	126
826.878	114
828.382	106
829.885	116
831.387	120
832.889	122
834.391	130
835.892	136
837.392	146
838.893	152
840.393	154
841.893	160
843.392	156
844.891	142
846.389	164
847.888	142
849.386	150
850.882	134
852.38	120
853.876	126
855.372	128
856.868	132
858.363	124
859.858	134
861.353	118
862.847	122
864.341	132
865.834	124
867.328	122
868.82	124
870.313	132
871.805	126
873.296	124
874.787	128
876.278	116
877.769	126
879.258	126
880.748	118
882.237	122
883.726	118
885.214	110
886.702	118
888.19	110
889.677	124
891.164	118
892.651	108
894.137	108
895.623	116
897.108	118
898.593	132
900.077	130
901.562	132
903.046	150
904.529	148
906.012	138
907.495	152
908.977	146
910.459	128
911.941	136
913.422	116
914.903	120
916.383	120
917.863	106
919.343	102
920.822	104
922.301	100
923.779	102
925.257	104
926.735	104
928.213	90
929.69	92
931.166	90
932.643	98
934.119	98
935.594	98
937.069	102
938.543	96
940.018	98
941.492	110
942.966	106
944.439	98
945.911	98
947.384	100
948.856	108
950.328	114
951.799	112
953.27	112
954.741	106
956.21	108
957.68	110
959.15	120
960.619	114
962.088	116
963.556	120
965.023	144
966.491	126
967.958	132
969.425	134
970.891	128
972.357	130
973.824	138
975.288	150
976.754	156
978.218	184
979.682	180
981.146	208
982.609	226
984.072	250
985.534	278
986.997	326
988.459	436
989.92	620
991.382	830
992.842	852
994.302	818
995.763	864
997.222	1276
998.681	1994
1000.14	2942
1001.6	3286
1003.06	2854
1004.52	1904
1005.97	1158
1007.43	698
1008.89	448
1010.34	310
1011.8	254
1013.25	214
1014.71	204
1016.16	176
1017.62	190
1019.07	206
1020.53	222
1021.98	268
1023.43	298
1024.89	400
1026.34	464
1027.79	622
1029.24	812
1030.69	886
1032.14	876
1033.59	762
1035.04	692
1036.49	504
1037.94	404
1039.39	322
1040.84	266
1042.29	230
1043.73	208
1045.18	188
1046.63	184
1048.08	174
1049.52	170
1050.97	162
1052.41	162
1053.86	166
1055.3	150
1056.75	154
1058.19	150
1059.64	150
1061.08	160
1062.52	168
1063.96	174
1065.41	170
1066.85	154
1068.29	176
1069.73	178
1071.17	188
1072.61	162
1074.05	172
1075.49	188
1076.93	172
1078.37	172
1079.81	176
1081.25	166
1082.68	166
1084.12	170
1085.56	168
1087	162
1088.43	172
1089.87	158
1091.3	164
1092.74	164
1094.17	168
1095.61	176
1097.04	174
1098.48	182
1099.91	178
1101.34	184
1102.78	156
1104.21	140
1105.64	146
1107.07	144
1108.5	138
1109.93	130
1111.36	138
1112.8	130
1114.22	122
1115.65	136
1117.08	122
1118.51	120
1119.94	126
1121.37	110
1122.8	114
1124.22	112
1125.65	112
1127.08	116
1128.5	106
1129.93	106
1131.35	108
1132.78	114
1134.2	124
1135.63	108
1137.05	104
1138.48	130
1139.9	126
1141.32	136
1142.75	144
1144.17	148
1145.59	164
1147.01	176
1148.43	194
1149.85	220
1151.27	294
1152.69	366
1154.11	410
1155.53	406
1156.95	384
1158.37	346
1159.79	282
1161.21	258
1162.62	236
1164.04	208
1165.46	208
1166.87	204
1168.29	206
1169.71	208
1171.12	216
1172.54	252
1173.95	268
1175.37	306
1176.78	374
1178.19	440
1179.61	502
1181.02	512
1182.43	526
1183.84	500
1185.26	464
1186.67	432
1188.08	400
1189.49	448
1190.9	482
1192.31	484
1193.72	486
1195.13	484
1196.54	514
1197.95	492
1199.36	478
1200.76	494
1202.17	476
1203.58	446
1204.99	428
1206.39	388
1207.8	366
1209.2	348
1210.61	292
1212.01	262
1213.42	258
1214.82	246
1216.23	222
1217.63	226
1219.03	204
1220.44	216
1221.84	212
1223.24	216
1224.64	218
1226.05	208
1227.45	182
1228.85	202
1230.25	182
1231.65	190
1233.05	186
1234.45	174
1235.85	174
1237.25	180
1238.64	182
1240.04	170
1241.44	178
1242.84	178
1244.23	184
1245.63	176
1247.03	170
1248.42	170
1249.82	174
1251.21	178
1252.61	170
1254	172
1255.4	172
1256.79	170
1258.19	168
1259.58	160
1260.97	174
1262.36	180
1263.76	176
1265.15	176
1266.54	188
1267.93	184
1269.32	188
1270.71	176
1272.1	180
1273.49	176
1274.88	180
1276.27	156
1277.66	172
1279.05	182
1280.43	176
1281.82	178
1283.21	196
1284.6	182
1285.98	186
1287.37	182
1288.75	206
1290.14	188
1291.53	190
1292.91	196
1294.29	198
1295.68	210
1297.06	216
1298.45	228
1299.83	212
1301.21	222
1302.59	232
1303.98	218
1305.36	212
1306.74	240
1308.12	216
1309.5	242
1310.88	256
1312.26	246
1313.64	242
1315.02	256
1316.4	262
1317.78	252
1319.16	278
1320.53	286
1321.91	268
1323.29	292
1324.67	300
1326.04	294
1327.42	310
1328.79	292
1330.17	324
1331.54	298
1332.92	310
1334.29	302
1335.67	282
1337.04	314
1338.42	282
1339.79	286
1341.16	286
1342.53	274
1343.91	286
1345.28	274
1346.65	272
1348.02	278
1349.39	274
1350.76	280
1352.13	266
1353.5	270
1354.87	276
1356.24	288
1357.61	276
1358.98	292
1360.34	300
1361.71	276
1363.08	276
1364.45	290
1365.81	292
1367.18	280
1368.54	280
1369.91	280
1371.28	284
1372.64	296
1374.01	278
1375.37	286
1376.73	308
1378.1	300
1379.46	284
1380.82	274
1382.19	276
1383.55	266
1384.91	268
1386.27	260
1387.63	252
1388.99	248
1390.35	262
1391.71	252
1393.07	236
1394.43	238
1395.79	248
1397.15	266
1398.51	236
1399.87	250
1401.23	266
1402.58	260
1403.94	244
1405.3	250
1406.65	244
1408.01	242
1409.37	246
1410.72	244
1412.08	236
1413.43	246
1414.79	240
1416.14	252
1417.49	230
1418.85	224
1420.2	252
1421.55	228
1422.91	224
1424.26	246
1425.61	230
1426.96	232
1428.31	228
1429.66	232
1431.01	232
1432.36	232
1433.71	260
1435.06	256
1436.41	270
1437.76	290
1439.11	276
1440.46	306
1441.81	310
1443.15	338
1444.5	316
1445.85	326
1447.19	334
1448.54	344
1449.89	330
1451.23	346
1452.58	340
1453.92	314
1455.27	298
1456.61	280
1457.95	262
1459.3	258
1460.64	236
1461.98	222
1463.33	222
1464.67	216
1466.01	202
1467.35	204
1468.69	204
1470.03	202
1471.37	206
1472.71	192
1474.05	184
1475.39	192
1476.73	182
1478.07	198
1479.41	188
1480.75	192
1482.09	202
1483.42	196
1484.76	190
1486.1	174
1487.43	194
1488.77	186
1490.11	192
1491.44	198
1492.78	180
1494.11	204
1495.45	190
1496.78	196
1498.12	168
1499.45	174
1500.78	194
1502.11	174
1503.45	162
1504.78	172
1506.11	172
1507.44	176
1508.77	172
1510.11	168
1511.44	160
1512.77	180
1514.1	198
1515.43	166
1516.76	180
1518.08	166
1519.41	168
1520.74	168
1522.07	166
1523.4	172
1524.72	172
1526.05	176
1527.38	168
1528.7	174
1530.03	170
1531.36	174
1532.68	166
1534.01	178
1535.33	168
1536.66	170
1537.98	168
1539.3	174
1540.63	158
1541.95	170
1543.27	160
1544.6	166
1545.92	186
1547.24	178
1548.56	162
1549.88	172
1551.2	168
1552.52	172
1553.84	162
1555.17	164
1556.48	172
1557.8	172
1559.12	172
1560.44	164
1561.76	178
1563.08	180
1564.4	176
1565.71	176
1567.03	168
1568.35	182
1569.66	196
1570.98	188
1572.29	194
1573.61	194
1574.93	222
1576.24	232
1577.55	246
1578.87	276
1580.18	336
1581.5	398
1582.81	428
1584.12	410
1585.43	358
1586.75	310
1588.06	254
1589.37	256
1590.68	270
1591.99	270
1593.3	292
1594.61	310
1595.92	356
1597.23	430
1598.54	524
1599.85	614
1601.16	694
1602.47	676
1603.78	616
1605.08	548
1606.39	476
1607.7	398
1609	334
1610.31	276
1611.62	258
1612.92	240
1614.23	206
1615.53	210
1616.84	196
1618.14	182
1619.45	196
1620.75	180
1622.06	170
1623.36	174
1624.66	154
1625.96	164
1627.27	166
1628.57	154
1629.87	166
1631.17	150
1632.47	150
1633.77	162
1635.07	162
1636.37	144
1637.67	156
1638.97	168
1640.27	166
1641.57	168
1642.87	172
1644.17	158
1645.47	150
1646.76	160
1648.06	158
1649.36	158
1650.66	148
1651.95	148
1653.25	158
1654.54	148
1655.84	158
1657.13	136
1658.43	148
1659.72	138
1661.02	138
1662.31	140
1663.6	148
1664.9	134
1666.19	134
1667.48	138
1668.78	120
1670.07	138
1671.36	134
1672.65	136
1673.94	128
1675.23	140
1676.52	122
1677.81	134
1679.1	142
1680.39	132
1681.68	128
1682.97	132
1684.26	138
1685.55	126
1686.83	124
1688.12	140
1689.41	136
1690.7	130
1691.98	110
1693.27	134
1694.55	124
1695.84	126
1697.13	126
1698.41	118
1699.69	124
1700.98	116
1702.26	122