File: Jesse_Dataset_v2/Pure Raman/Polystyrene/785nm/ps-ppo-6jan25-1,0000-map3_Y10_X06.txt
204.377	802
206.045	872
207.713	840
209.38	878
211.048	914
212.715	884
214.381	896
216.047	930
217.712	916
219.377	914
221.042	898
222.706	908
224.369	890
226.032	854
227.695	778
229.357	760
231.019	746
232.68	680
234.341	620
236.001	602
237.661	524
239.321	516
240.98	456
242.639	416
244.297	372
245.955	342
247.612	358
249.268	314
250.924	310
252.58	294
254.236	298
255.891	284
257.546	280
259.2	252
260.854	280
262.507	258
264.16	264
265.812	252
267.463	258
269.115	238
270.766	250
272.417	256
274.067	230
275.717	230
277.365	238
279.014	220
280.663	214
282.311	212
283.958	208
285.605	216
287.252	196
288.898	196
290.543	178
292.188	186
293.833	170
295.477	180
297.121	164
298.765	176
300.407	170
302.05	180
303.693	168
305.334	158
306.975	168
308.615	164
310.256	170
311.896	166
313.535	164
315.175	172
316.813	164
318.451	164
320.089	162
321.726	176
323.362	164
324.999	174
326.635	158
328.271	178
329.905	178
331.54	166
333.174	164
334.807	170
336.441	156
338.074	158
339.707	166
341.338	168
342.969	158
344.601	138
346.231	146
347.861	156
349.491	162
351.12	152
352.749	150
354.378	144
356.006	138
357.633	158
359.261	152
360.887	160
362.513	152
364.139	148
365.764	152
367.39	160
369.014	158
370.638	162
372.261	152
373.884	150
375.508	168
377.13	164
378.752	170
380.373	162
381.994	176
383.615	182
385.235	176
386.854	178
388.473	190
390.092	178
391.711	180
393.328	184
394.947	196
396.564	192
398.181	196
399.797	194
401.412	204
403.027	230
404.642	240
406.257	246
407.871	230
409.484	216
411.098	214
412.711	196
414.323	186
415.935	192
417.547	186
419.158	176
420.768	176
422.378	168
423.988	154
425.597	152
427.206	156
428.814	136
430.422	152
432.03	144
433.637	138
435.243	134
436.85	144
438.456	136
440.062	128
441.666	128
443.271	128
444.876	126
446.479	126
448.082	128
449.685	120
451.287	116
452.89	118
454.492	120
456.092	102
457.693	112
459.293	118
460.893	110
462.492	110
464.092	112
465.691	108
467.288	108
468.887	106
470.483	104
472.081	108
473.677	112
475.273	100
476.869	104
478.463	102
480.059	96
481.653	88
483.247	100
484.84	94
486.433	102
488.026	98
489.618	98
491.21	98
492.801	98
494.392	86
495.983	102
497.573	102
499.162	108
500.752	98
502.341	114
503.929	114
505.517	102
507.105	106
508.692	100
510.279	102
511.865	110
513.45	110
515.037	112
516.621	118
518.206	114
519.79	110
521.374	110
522.957	116
524.54	120
526.123	116
527.705	122
529.287	120
530.868	128
532.448	130
534.029	142
535.609	140
537.188	150
538.768	150
540.346	150
541.925	142
543.502	134
545.08	140
546.657	138
548.234	146
549.81	144
551.386	142
552.961	132
554.536	140
556.11	132
557.684	136
559.258	144
560.832	124
562.405	134
563.977	144
565.55	126
567.12	134
568.692	134
570.263	142
571.833	134
573.403	140
574.973	132
576.542	128
578.111	122
579.679	120
581.247	118
582.815	114
584.382	112
585.948	114
587.514	118
589.081	106
590.645	112
592.211	106
593.775	108
595.339	108
596.904	114
598.466	102
600.03	114
601.592	110
603.154	124
604.715	128
606.277	144
607.838	160
609.398	134
610.958	136
612.518	166
614.077	182
615.636	224
617.194	322
618.753	536
620.31	714
621.867	682
623.424	442
624.98	268
626.537	198
628.092	160
629.647	136
631.202	136
632.756	122
634.31	110
635.864	110
637.417	100
638.969	90
640.521	88
642.074	98
643.625	86
645.176	82
646.726	78
648.276	76
649.827	82
651.376	78
652.925	74
654.473	76
656.021	88
657.569	82
659.117	82
660.664	74
662.21	76
663.757	74
665.302	86
666.847	84
668.392	76
669.937	80
671.481	76
673.025	72
674.568	76
676.111	70
677.653	72
679.195	74
680.737	78
682.279	76
683.82	84
685.36	76
686.9	74
688.44	88
689.979	72
691.517	82
693.056	78
694.594	82
696.132	86
697.669	80
699.206	94
700.742	96
702.278	90
703.814	98
705.35	100
706.884	86
708.419	96
709.953	94
711.487	96
713.019	88
714.552	96
716.085	104
717.617	102
719.148	104
720.68	114
722.21	136
723.741	148
725.271	162
726.8	156
728.33	130
729.858	128
731.387	112
732.915	134
734.443	140
735.97	144
737.497	158
739.023	164
740.549	180
742.075	180
743.6	178
745.125	192
746.65	178
748.173	188
749.697	184
751.22	196
752.743	196
754.266	206
755.788	232
757.309	232
758.831	230
760.351	222
761.871	230
763.392	216
764.912	238
766.431	220
767.95	194
769.468	198
770.986	202
772.504	198
774.022	186
775.538	188
777.055	204
778.571	204
780.086	220
781.602	226
783.117	234
784.632	258
786.146	286
787.659	296
789.173	272
790.685	322
792.198	328
793.71	320
795.222	348
796.733	358
798.244	330
799.755	292
801.265	278
802.775	258
804.284	226
805.793	210
807.302	198
808.81	194
810.318	172
811.826	180
813.333	150
814.84	152
816.346	146
817.851	136
819.357	128
820.862	112
822.367	116
823.871	116
825.376	116
826.878	110
828.382	118
829.885	106
831.387	118
832.889	120
834.391	118
835.892	136
837.392	130
838.893	146
840.393	144
841.893	156
843.392	154
844.891	152
846.389	142
847.888	140
849.386	136
850.882	134
852.38	132
853.876	134
855.372	122
856.868	126
858.363	126
859.858	132
861.353	116
862.847	114
864.341	124
865.834	124
867.328	120
868.82	126
870.313	126
871.805	128
873.296	118
874.787	126
876.278	114
877.769	120
879.258	118
880.748	120
882.237	116
883.726	116
885.214	114
886.702	102
888.19	112
889.677	100
891.164	110
892.651	112
894.137	114
895.623	114
897.108	114
898.593	118
900.077	124
901.562	128
903.046	138
904.529	142
906.012	160
907.495	136
908.977	146
910.459	130
911.941	126
913.422	120
914.903	110
916.383	108
917.863	110
919.343	106
920.822	98
922.301	94
923.779	98
925.257	106
926.735	92
928.213	98
929.69	98
931.166	102
932.643	96
934.119	98
935.594	86
937.069	94
938.543	90
940.018	108
941.492	100
942.966	104
944.439	92
945.911	106
947.384	98
948.856	96
950.328	104
951.799	98
953.27	98
954.741	94
956.21	100
957.68	110
959.15	114
960.619	110
962.088	118
963.556	122
965.023	126
966.491	122
967.958	114
969.425	116
970.891	126
972.357	124
973.824	134
975.288	142
976.754	152
978.218	170
979.682	182
981.146	202
982.609	222
984.072	252
985.534	288
986.997	326
988.459	418
989.92	562
991.382	788
992.842	856
994.302	812
995.763	868
997.222	1234
998.681	2032
1000.14	2928
1001.6	3360
1003.06	2868
1004.52	1894
1005.97	1176
1007.43	638
1008.89	446
1010.34	310
1011.8	246
1013.25	210
1014.71	204
1016.16	188
1017.62	198
1019.07	202
1020.53	220
1021.98	264
1023.43	306
1024.89	384
1026.34	492
1027.79	638
1029.24	764
1030.69	864
1032.14	872
1033.59	818
1035.04	664
1036.49	510
1037.94	406
1039.39	312
1040.84	252
1042.29	244
1043.73	218
1045.18	194
1046.63	172
1048.08	148
1049.52	162
1050.97	146
1052.41	148
1053.86	142
1055.3	144
1056.75	142
1058.19	156
1059.64	156
1061.08	164
1062.52	166
1063.96	166
1065.41	170
1066.85	172
1068.29	170
1069.73	174
1071.17	164
1072.61	174
1074.05	184
1075.49	168
1076.93	164
1078.37	170
1079.81	176
1081.25	164
1082.68	160
1084.12	170
1085.56	172
1087	164
1088.43	170
1089.87	160
1091.3	170
1092.74	170
1094.17	166
1095.61	162
1097.04	166
1098.48	170
1099.91	162
1101.34	164
1102.78	174
1104.21	158
1105.64	144
1107.07	138
1108.5	126
1109.93	138
1111.36	130
1112.8	144
1114.22	124
1115.65	124
1117.08	122
1118.51	120
1119.94	114
1121.37	106
1122.8	106
1124.22	108
1125.65	108
1127.08	104
1128.5	104
1129.93	98
1131.35	106
1132.78	102
1134.2	108
1135.63	112
1137.05	110
1138.48	116
1139.9	122
1141.32	130
1142.75	140
1144.17	150
1145.59	162
1147.01	180
1148.43	198
1149.85	238
1151.27	306
1152.69	362
1154.11	422
1155.53	414
1156.95	390
1158.37	338
1159.79	276
1161.21	236
1162.62	216
1164.04	206
1165.46	194
1166.87	206
1168.29	218
1169.71	216
1171.12	228
1172.54	244
1173.95	246
1175.37	286
1176.78	348
1178.19	412
1179.61	490
1181.02	540
1182.43	518
1183.84	476
1185.26	454
1186.67	448
1188.08	430
1189.49	426
1190.9	472
1192.31	498
1193.72	500
1195.13	512
1196.54	494
1197.95	516
1199.36	490
1200.76	476
1202.17	432
1203.58	438
1204.99	412
1206.39	390
1207.8	356
1209.2	324
1210.61	296
1212.01	280
1213.42	242
1214.82	220
1216.23	214
1217.63	204
1219.03	198
1220.44	198
1221.84	208
1223.24	202
1224.64	202
1226.05	190
1227.45	182
1228.85	184
1230.25	182
1231.65	182
1233.05	174
1234.45	164
1235.85	182
1237.25	174
1238.64	176
1240.04	164
1241.44	166
1242.84	170
1244.23	180
1245.63	182
1247.03	174
1248.42	170
1249.82	174
1251.21	172
1252.61	172
1254	170
1255.4	164
1256.79	168
1258.19	176
1259.58	166
1260.97	166
1262.36	168
1263.76	176
1265.15	176
1266.54	186
1267.93	170
1269.32	168
1270.71	164
1272.1	178
1273.49	174
1274.88	154
1276.27	172
1277.66	176
1279.05	182
1280.43	186
1281.82	174
1283.21	180
1284.6	198
1285.98	184
1287.37	182
1288.75	198
1290.14	186
1291.53	184
1292.91	198
1294.29	196
1295.68	206
1297.06	192
1298.45	224
1299.83	206
1301.21	232
1302.59	222
1303.98	224
1305.36	208
1306.74	228
1308.12	244
1309.5	230
1310.88	230
1312.26	242
1313.64	256
1315.02	248
1316.4	240
1317.78	266
1319.16	276
1320.53	290
1321.91	272
1323.29	294
1324.67	288
1326.04	304
1327.42	306
1328.79	304
1330.17	298
1331.54	296
1332.92	312
1334.29	300
1335.67	296
1337.04	282
1338.42	284
1339.79	282
1341.16	262
1342.53	268
1343.91	268
1345.28	276
1346.65	276
1348.02	284
1349.39	254
1350.76	282
1352.13	292
1353.5	264
1354.87	264
1356.24	254
1357.61	264
1358.98	262
1360.34	284
1361.71	262
1363.08	286
1364.45	290
1365.81	286
1367.18	288
1368.54	296
1369.91	290
1371.28	294
1372.64	276
1374.01	290
1375.37	280
1376.73	274
1378.1	272
1379.46	282
1380.82	274
1382.19	256
1383.55	254
1384.91	256
1386.27	240
1387.63	254
1388.99	236
1390.35	244
1391.71	238
1393.07	246
1394.43	248
1395.79	242
1397.15	238
1398.51	234
1399.87	250
1401.23	230
1402.58	232
1403.94	240
1405.3	226
1406.65	242
1408.01	234
1409.37	238
1410.72	214
1412.08	232
1413.43	238
1414.79	226
1416.14	220
1417.49	238
1418.85	236
1420.2	226
1421.55	224
1422.91	224
1424.26	216
1425.61	222
1426.96	242
1428.31	222
1429.66	232
1431.01	230
1432.36	240
1433.71	252
1435.06	244
1436.41	252
1437.76	274
1439.11	288
1440.46	282
1441.81	296
1443.15	308
1444.5	328
1445.85	320
1447.19	326
1448.54	324
1449.89	326
1451.23	334
1452.58	310
1453.92	328
1455.27	296
1456.61	282
1457.95	256
1459.3	222
1460.64	220
1461.98	226
1463.33	202
1464.67	212
1466.01	200
1467.35	196
1468.69	206
1470.03	194
1471.37	192
1472.71	194
1474.05	198
1475.39	192
1476.73	194
1478.07	184
1479.41	182
1480.75	188
1482.09	188
1483.42	188
1484.76	172
1486.1	190
1487.43	194
1488.77	182
1490.11	180
1491.44	188
1492.78	184
1494.11	200
1495.45	176
1496.78	192
1498.12	186
1499.45	178
1500.78	184
1502.11	176
1503.45	174
1504.78	180
1506.11	178
1507.44	162
1508.77	174
1510.11	178
1511.44	166
1512.77	162
1514.1	176
1515.43	160
1516.76	160
1518.08	166
1519.41	168
1520.74	162
1522.07	166
1523.4	166
1524.72	170
1526.05	174
1527.38	174
1528.7	166
1530.03	176
1531.36	170
1532.68	162
1534.01	160
1535.33	170
1536.66	148
1537.98	164
1539.3	164
1540.63	170
1541.95	170
1543.27	160
1544.6	162
1545.92	164
1547.24	170
1548.56	154
1549.88	158
1551.2	168
1552.52	166
1553.84	166
1555.17	162
1556.48	164
1557.8	168
1559.12	172
1560.44	162
1561.76	166
1563.08	178
1564.4	160
1565.71	170
1567.03	182
1568.35	164
1569.66	184
1570.98	174
1572.29	190
1573.61	198
1574.93	208
1576.24	214
1577.55	236
1578.87	270
1580.18	342
1581.5	376
1582.81	414
1584.12	398
1585.43	338
1586.75	296
1588.06	248
1589.37	252
1590.68	258
1591.99	276
1593.3	290
1594.61	304
1595.92	362
1597.23	432
1598.54	530
1599.85	606
1601.16	684
1602.47	666
1603.78	636
1605.08	548
1606.39	474
1607.7	378
1609	324
1610.31	278
1611.62	252
1612.92	222
1614.23	214
1615.53	202
1616.84	184
1618.14	194
1619.45	186
1620.75	170
1622.06	168
1623.36	166
1624.66	170
1625.96	160
1627.27	158
1628.57	148
1629.87	160
1631.17	162
1632.47	160
1633.77	150
1635.07	154
1636.37	148
1637.67	156
1638.97	160
1640.27	156
1641.57	166
1642.87	156
1644.17	162
1645.47	158
1646.76	154
1648.06	150
1649.36	158
1650.66	152
1651.95	144
1653.25	140
1654.54	130
1655.84	126
1657.13	146
1658.43	146
1659.72	134
1661.02	134
1662.31	134
1663.6	134
1664.9	134
1666.19	128
1667.48	138
1668.78	138
1670.07	130
1671.36	140
1672.65	132
1673.94	142
1675.23	134
1676.52	134
1677.81	130
1679.1	130
1680.39	130
1681.68	132
1682.97	124
1684.26	122
1685.55	116
1686.83	120
1688.12	120
1689.41	132
1690.7	132
1691.98	120
1693.27	124
1694.55	120
1695.84	132
1697.13	126
1698.41	124
1699.69	126
1700.98	126
1702.26	128