File: Jesse_Dataset_v2/Pure Raman/Polystyrene/785nm/ps-ppo-6jan25-1,0000-map3_Y10_X02.txt
204.377	856
206.045	830
207.713	878
209.38	862
211.048	888
212.715	938
214.381	916
216.047	920
217.712	898
219.377	894
221.042	886
222.706	896
224.369	882
226.032	832
227.695	816
229.357	782
231.019	724
232.68	694
234.341	582
236.001	606
237.661	538
239.321	516
240.98	468
242.639	392
244.297	364
245.955	352
247.612	328
249.268	326
250.924	310
252.58	286
254.236	278
255.891	286
257.546	280
259.2	270
260.854	270
262.507	270
264.16	272
265.812	258
267.463	248
269.115	234
270.766	254
272.417	238
274.067	222
275.717	232
277.365	224
279.014	228
280.663	218
282.311	214
283.958	212
285.605	202
287.252	208
288.898	194
290.543	202
292.188	170
293.833	182
295.477	176
297.121	182
298.765	176
300.407	156
302.05	158
303.693	156
305.334	160
306.975	168
308.615	168
310.256	158
311.896	166
313.535	166
315.175	164
316.813	168
318.451	166
320.089	174
321.726	156
323.362	172
324.999	174
326.635	172
328.271	166
329.905	172
331.54	166
333.174	164
334.807	170
336.441	176
338.074	158
339.707	168
341.338	158
342.969	166
344.601	158
346.231	154
347.861	152
349.491	144
351.12	156
352.749	142
354.378	154
356.006	152
357.633	144
359.261	150
360.887	148
362.513	144
364.139	154
365.764	142
367.39	150
369.014	148
370.638	148
372.261	152
373.884	168
375.508	160
377.13	158
378.752	164
380.373	162
381.994	166
383.615	178
385.235	186
386.854	190
388.473	178
390.092	206
391.711	186
393.328	196
394.947	178
396.564	178
398.181	198
399.797	204
401.412	202
403.027	216
404.642	206
406.257	226
407.871	230
409.484	234
411.098	204
412.711	172
414.323	180
415.935	188
417.547	178
419.158	176
420.768	164
422.378	162
423.988	158
425.597	152
427.206	162
428.814	150
430.422	146
432.03	150
433.637	142
435.243	138
436.85	144
438.456	130
440.062	142
441.666	130
443.271	130
444.876	120
446.479	132
448.082	122
449.685	126
451.287	114
452.89	108
454.492	114
456.092	110
457.693	114
459.293	108
460.893	98
462.492	102
464.092	102
465.691	106
467.288	96
468.887	114
470.483	104
472.081	106
473.677	102
475.273	108
476.869	110
478.463	96
480.059	106
481.653	92
483.247	96
484.84	104
486.433	102
488.026	94
489.618	100
491.21	106
492.801	94
494.392	104
495.983	110
497.573	110
499.162	96
500.752	104
502.341	102
503.929	116
505.517	112
507.105	114
508.692	112
510.279	96
511.865	100
513.45	112
515.037	108
516.621	108
518.206	110
519.79	108
521.374	116
522.957	110
524.54	120
526.123	114
527.705	124
529.287	114
530.868	130
532.448	136
534.029	128
535.609	132
537.188	146
538.768	136
540.346	154
541.925	144
543.502	138
545.08	146
546.657	138
548.234	138
549.81	144
551.386	130
552.961	142
554.536	124
556.11	138
557.684	132
559.258	138
560.832	136
562.405	136
563.977	146
565.55	138
567.12	134
568.692	128
570.263	130
571.833	128
573.403	144
574.973	144
576.542	142
578.111	122
579.679	122
581.247	106
582.815	110
584.382	106
585.948	116
587.514	98
589.081	106
590.645	96
592.211	110
593.775	106
595.339	104
596.904	108
598.466	112
600.03	106
601.592	112
603.154	118
604.715	130
606.277	144
607.838	150
609.398	144
610.958	144
612.518	162
614.077	180
615.636	232
617.194	312
618.753	508
620.31	700
621.867	668
623.424	454
624.98	272
626.537	196
628.092	178
629.647	150
631.202	136
632.756	124
634.31	108
635.864	114
637.417	94
638.969	86
640.521	90
642.074	84
643.625	92
645.176	88
646.726	70
648.276	82
649.827	78
651.376	78
652.925	84
654.473	76
656.021	68
657.569	74
659.117	68
660.664	84
662.21	78
663.757	78
665.302	78
666.847	74
668.392	76
669.937	76
671.481	68
673.025	74
674.568	76
676.111	74
677.653	80
679.195	70
680.737	78
682.279	74
683.82	70
685.36	74
686.9	76
688.44	66
689.979	80
691.517	76
693.056	66
694.594	78
696.132	84
697.669	90
699.206	96
700.742	94
702.278	102
703.814	98
705.35	98
706.884	98
708.419	96
709.953	92
711.487	90
713.019	92
714.552	92
716.085	92
717.617	104
719.148	104
720.68	124
722.21	138
723.741	144
725.271	150
726.8	136
728.33	124
729.858	106
731.387	130
732.915	128
734.443	130
735.97	140
737.497	170
739.023	166
740.549	184
742.075	182
743.6	188
745.125	178
746.65	182
748.173	190
749.697	190
751.22	190
752.743	218
754.266	214
755.788	222
757.309	228
758.831	226
760.351	238
761.871	236
763.392	232
764.912	228
766.431	206
767.95	208
769.468	202
770.986	186
772.504	192
774.022	190
775.538	196
777.055	196
778.571	208
780.086	218
781.602	214
783.117	236
784.632	244
786.146	278
787.659	296
789.173	306
790.685	328
792.198	340
793.71	332
795.222	346
796.733	350
798.244	344
799.755	310
801.265	286
802.775	244
804.284	242
805.793	202
807.302	198
808.81	182
810.318	180
811.826	168
813.333	162
814.84	146
816.346	146
817.851	134
819.357	128
820.862	122
822.367	118
823.871	120
825.376	106
826.878	112
828.382	116
829.885	102
831.387	108
832.889	106
834.391	122
835.892	128
837.392	142
838.893	162
840.393	160
841.893	160
843.392	156
844.891	156
846.389	156
847.888	142
849.386	140
850.882	136
852.38	124
853.876	116
855.372	130
856.868	122
858.363	114
859.858	114
861.353	118
862.847	110
864.341	124
865.834	114
867.328	118
868.82	124
870.313	124
871.805	122
873.296	122
874.787	118
876.278	124
877.769	122
879.258	124
880.748	116
882.237	122
883.726	114
885.214	106
886.702	112
888.19	104
889.677	108
891.164	122
892.651	120
894.137	108
895.623	108
897.108	120
898.593	114
900.077	132
901.562	136
903.046	134
904.529	140
906.012	152
907.495	142
908.977	148
910.459	136
911.941	134
913.422	112
914.903	120
916.383	116
917.863	98
919.343	90
920.822	102
922.301	108
923.779	98
925.257	96
926.735	94
928.213	98
929.69	94
931.166	90
932.643	88
934.119	102
935.594	104
937.069	100
938.543	108
940.018	94
941.492	96
942.966	96
944.439	94
945.911	98
947.384	100
948.856	104
950.328	100
951.799	104
953.27	92
954.741	106
956.21	106
957.68	108
959.15	106
960.619	110
962.088	122
963.556	128
965.023	118
966.491	120
967.958	118
969.425	134
970.891	122
972.357	136
973.824	140
975.288	148
976.754	158
978.218	158
979.682	176
981.146	202
982.609	216
984.072	242
985.534	280
986.997	326
988.459	440
989.92	580
991.382	758
992.842	790
994.302	782
995.763	850
997.222	1278
998.681	1998
1000.14	2900
1001.6	3322
1003.06	2842
1004.52	1944
1005.97	1160
1007.43	682
1008.89	446
1010.34	314
1011.8	256
1013.25	208
1014.71	192
1016.16	184
1017.62	186
1019.07	190
1020.53	234
1021.98	262
1023.43	312
1024.89	402
1026.34	506
1027.79	656
1029.24	784
1030.69	862
1032.14	882
1033.59	808
1035.04	688
1036.49	548
1037.94	418
1039.39	306
1040.84	256
1042.29	208
1043.73	202
1045.18	186
1046.63	188
1048.08	168
1049.52	148
1050.97	158
1052.41	146
1053.86	158
1055.3	140
1056.75	154
1058.19	154
1059.64	164
1061.08	156
1062.52	168
1063.96	160
1065.41	166
1066.85	158
1068.29	176
1069.73	178
1071.17	174
1072.61	170
1074.05	170
1075.49	166
1076.93	172
1078.37	164
1079.81	164
1081.25	172
1082.68	170
1084.12	174
1085.56	168
1087	170
1088.43	172
1089.87	160
1091.3	164
1092.74	176
1094.17	180
1095.61	178
1097.04	172
1098.48	168
1099.91	170
1101.34	156
1102.78	166
1104.21	160
1105.64	148
1107.07	144
1108.5	136
1109.93	138
1111.36	128
1112.8	132
1114.22	128
1115.65	128
1117.08	120
1118.51	112
1119.94	114
1121.37	110
1122.8	108
1124.22	114
1125.65	106
1127.08	100
1128.5	100
1129.93	110
1131.35	106
1132.78	108
1134.2	110
1135.63	114
1137.05	120
1138.48	116
1139.9	128
1141.32	134
1142.75	136
1144.17	146
1145.59	158
1147.01	160
1148.43	194
1149.85	234
1151.27	288
1152.69	360
1154.11	408
1155.53	424
1156.95	406
1158.37	348
1159.79	298
1161.21	250
1162.62	230
1164.04	202
1165.46	208
1166.87	196
1168.29	202
1169.71	210
1171.12	220
1172.54	238
1173.95	270
1175.37	300
1176.78	344
1178.19	428
1179.61	470
1181.02	516
1182.43	530
1183.84	510
1185.26	474
1186.67	418
1188.08	420
1189.49	444
1190.9	470
1192.31	494
1193.72	518
1195.13	502
1196.54	494
1197.95	492
1199.36	470
1200.76	478
1202.17	454
1203.58	444
1204.99	420
1206.39	376
1207.8	354
1209.2	314
1210.61	296
1212.01	268
1213.42	244
1214.82	232
1216.23	224
1217.63	230
1219.03	212
1220.44	204
1221.84	204
1223.24	200
1224.64	202
1226.05	190
1227.45	196
1228.85	194
1230.25	186
1231.65	180
1233.05	164
1234.45	176
1235.85	182
1237.25	168
1238.64	156
1240.04	148
1241.44	168
1242.84	172
1244.23	166
1245.63	172
1247.03	172
1248.42	172
1249.82	164
1251.21	174
1252.61	174
1254	166
1255.4	164
1256.79	146
1258.19	176
1259.58	170
1260.97	176
1262.36	166
1263.76	162
1265.15	174
1266.54	172
1267.93	170
1269.32	160
1270.71	162
1272.1	166
1273.49	168
1274.88	150
1276.27	164
1277.66	166
1279.05	162
1280.43	168
1281.82	178
1283.21	176
1284.6	166
1285.98	172
1287.37	186
1288.75	174
1290.14	180
1291.53	194
1292.91	194
1294.29	206
1295.68	192
1297.06	200
1298.45	190
1299.83	198
1301.21	216
1302.59	208
1303.98	222
1305.36	206
1306.74	224
1308.12	210
1309.5	222
1310.88	230
1312.26	226
1313.64	240
1315.02	230
1316.4	250
1317.78	248
1319.16	264
1320.53	272
1321.91	262
1323.29	286
1324.67	296
1326.04	278
1327.42	294
1328.79	290
1330.17	304
1331.54	298
1332.92	304
1334.29	290
1335.67	298
1337.04	292
1338.42	276
1339.79	280
1341.16	258
1342.53	270
1343.91	260
1345.28	270
1346.65	248
1348.02	256
1349.39	266
1350.76	270
1352.13	268
1353.5	264
1354.87	260
1356.24	266
1357.61	274
1358.98	260
1360.34	288
1361.71	270
1363.08	288
1364.45	288
1365.81	260
1367.18	262
1368.54	272
1369.91	256
1371.28	276
1372.64	284
1374.01	270
1375.37	288
1376.73	278
1378.1	272
1379.46	268
1380.82	260
1382.19	264
1383.55	264
1384.91	244
1386.27	240
1387.63	250
1388.99	246
1390.35	236
1391.71	232
1393.07	236
1394.43	228
1395.79	224
1397.15	222
1398.51	220
1399.87	242
1401.23	224
1402.58	236
1403.94	226
1405.3	234
1406.65	240
1408.01	216
1409.37	222
1410.72	214
1412.08	210
1413.43	206
1414.79	220
1416.14	220
1417.49	234
1418.85	218
1420.2	216
1421.55	214
1422.91	208
1424.26	206
1425.61	230
1426.96	216
1428.31	226
1429.66	230
1431.01	216
1432.36	230
1433.71	236
1435.06	236
1436.41	236
1437.76	266
1439.11	266
1440.46	268
1441.81	292
1443.15	296
1444.5	322
1445.85	318
1447.19	326
1448.54	296
1449.89	316
1451.23	328
1452.58	332
1453.92	308
1455.27	294
1456.61	262
1457.95	250
1459.3	226
1460.64	228
1461.98	204
1463.33	206
1464.67	200
1466.01	200
1467.35	190
1468.69	186
1470.03	194
1471.37	190
1472.71	194
1474.05	178
1475.39	182
1476.73	186
1478.07	182
1479.41	180
1480.75	176
1482.09	174
1483.42	172
1484.76	174
1486.1	170
1487.43	176
1488.77	170
1490.11	186
1491.44	184
1492.78	188
1494.11	166
1495.45	184
1496.78	174
1498.12	182
1499.45	176
1500.78	170
1502.11	166
1503.45	174
1504.78	162
1506.11	174
1507.44	166
1508.77	166
1510.11	166
1511.44	158
1512.77	158
1514.1	170
1515.43	164
1516.76	158
1518.08	158
1519.41	166
1520.74	168
1522.07	162
1523.4	166
1524.72	152
1526.05	158
1527.38	178
1528.7	168
1530.03	166
1531.36	148
1532.68	164
1534.01	158
1535.33	154
1536.66	164
1537.98	170
1539.3	166
1540.63	156
1541.95	164
1543.27	162
1544.6	160
1545.92	156
1547.24	160
1548.56	162
1549.88	150
1551.2	150
1552.52	162
1553.84	142
1555.17	166
1556.48	150
1557.8	162
1559.12	158
1560.44	164
1561.76	168
1563.08	160
1564.4	172
1565.71	180
1567.03	174
1568.35	174
1569.66	182
1570.98	172
1572.29	194
1573.61	200
1574.93	192
1576.24	218
1577.55	224
1578.87	270
1580.18	330
1581.5	382
1582.81	402
1584.12	392
1585.43	348
1586.75	300
1588.06	246
1589.37	232
1590.68	268
1591.99	262
1593.3	282
1594.61	326
1595.92	350
1597.23	440
1598.54	510
1599.85	646
1601.16	690
1602.47	660
1603.78	618
1605.08	526
1606.39	456
1607.7	382
1609	324
1610.31	266
1611.62	248
1612.92	224
1614.23	194
1615.53	196
1616.84	194
1618.14	178
1619.45	164
1620.75	170
1622.06	166
1623.36	166
1624.66	162
1625.96	164
1627.27	152
1628.57	154
1629.87	152
1631.17	144
1632.47	152
1633.77	152
1635.07	152
1636.37	152
1637.67	142
1638.97	144
1640.27	146
1641.57	152
1642.87	138
1644.17	154
1645.47	142
1646.76	156
1648.06	154
1649.36	148
1650.66	148
1651.95	150
1653.25	144
1654.54	124
1655.84	132
1657.13	140
1658.43	122
1659.72	122
1661.02	142
1662.31	140
1663.6	140
1664.9	142
1666.19	130
1667.48	144
1668.78	124
1670.07	132
1671.36	124
1672.65	124
1673.94	126
1675.23	138
1676.52	124
1677.81	122
1679.1	126
1680.39	130
1681.68	126
1682.97	108
1684.26	130
1685.55	122
1686.83	128
1688.12	128
1689.41	118
1690.7	114
1691.98	128
1693.27	130
1694.55	124
1695.84	124
1697.13	120
1698.41	126
1699.69	118
1700.98	116
1702.26	122