File: Jesse_Dataset_v2/Pure Raman/Polypropylene oxide/633nm/ps-ppo-7jan25-0,0000-map2_Y08_X07.txt
182.393	654
184.993	666
187.593	650
190.193	604
192.79	552
195.387	546
197.983	514
200.578	522
203.174	490
205.766	488
208.36	474
210.951	472
213.542	434
216.131	436
218.721	466
221.309	512
223.897	574
226.483	726
229.069	910
231.654	1108
234.238	1240
236.821	1226
239.404	1126
241.984	988
244.566	870
247.145	780
249.723	628
252.302	526
254.878	468
257.455	390
260.03	360
262.604	348
265.178	326
267.75	292
270.322	260
272.893	274
275.463	272
278.032	290
280.601	288
283.168	320
285.734	390
288.301	442
290.866	526
293.429	574
295.992	638
298.556	606
301.117	560
303.677	490
306.236	456
308.795	404
311.354	376
313.911	374
316.467	370
319.022	352
321.577	336
324.13	364
326.684	366
329.236	408
331.787	394
334.337	372
336.887	400
339.435	364
341.983	364
344.529	362
347.075	342
349.621	344
352.165	338
354.708	346
357.251	346
359.793	344
362.334	318
364.874	294
367.413	302
369.951	312
372.489	322
375.026	328
377.562	320
380.097	294
382.631	262
385.164	260
387.697	238
390.229	238
392.76	230
395.29	226
397.819	238
400.346	230
402.873	234
405.4	244
407.926	284
410.451	306
412.976	372
415.499	374
418.02	326
420.542	302
423.063	276
425.583	252
428.101	236
430.619	224
433.137	202
435.654	196
438.169	198
440.684	180
443.198	178
445.712	172
448.223	164
450.735	172
453.246	180
455.755	176
458.264	180
460.771	180
463.279	178
465.786	198
468.291	244
470.796	260
473.301	300
475.803	344
478.306	382
480.807	428
483.308	474
485.807	516
488.307	456
490.804	350
493.302	316
495.798	282
498.294	222
500.788	208
503.283	222
505.775	214
508.269	272
510.759	330
513.251	384
515.74	364
518.23	324
520.718	286
523.204	290
525.692	344
528.177	370
530.663	480
533.147	568
535.629	678
538.113	772
540.594	786
543.074	672
545.555	564
548.034	454
550.512	384
552.989	394
555.467	414
557.942	490
560.417	668
562.892	1000
565.365	1550
567.838	2538
570.309	3564
572.78	3654
575.251	2614
577.72	1544
580.189	938
582.656	702
585.123	666
587.589	576
590.055	556
592.52	522
594.983	510
597.446	446
599.908	390
602.369	314
604.829	268
607.289	248
609.747	238
612.205	226
614.663	220
617.119	222
619.574	220
622.029	234
624.483	260
626.936	268
629.389	264
631.84	284
634.291	312
636.741	304
639.19	288
641.639	290
644.086	256
646.533	248
648.979	226
651.424	222
653.869	208
656.313	206
658.754	190
661.196	176
663.638	192
666.078	168
668.518	180
670.957	172
673.394	162
675.831	178
678.268	174
680.703	176
683.137	182
685.571	166
688.005	172
690.437	170
692.868	164
695.299	176
697.729	176
700.159	172
702.586	178
705.014	196
707.441	190
709.866	196
712.292	236
714.716	234
717.14	244
719.563	206
721.984	204
724.406	194
726.825	196
729.246	192
731.665	196
734.082	216
736.5	196
738.916	232
741.332	244
743.746	276
746.161	304
748.574	346
750.987	320
753.398	292
755.81	270
758.219	258
760.629	228
763.037	192
765.445	182
767.852	194
770.258	198
772.664	200
775.068	222
777.472	218
779.876	208
782.278	214
784.679	200
787.08	188
789.48	192
791.879	188
794.278	178
796.675	194
799.072	192
801.467	184
803.864	206
806.258	194
808.651	218
811.044	206
813.437	218
815.828	194
818.218	214
820.608	254
822.997	252
825.385	348
827.773	480
830.16	782
832.546	1148
834.931	1090
837.315	692
839.699	402
842.081	298
844.463	262
846.844	260
849.226	268
851.606	262
853.985	248
856.363	250
858.741	236
861.117	234
863.493	222
865.868	206
868.243	196
870.616	182
872.989	200
875.36	194
877.731	188
880.102	190
882.472	194
884.841	188
887.209	192
889.577	186
891.944	174
894.31	172
896.674	178
899.039	182
901.403	186
903.766	188
906.128	174
908.49	166
910.849	174
913.209	164
915.569	168
917.927	182
920.284	184
922.641	188
924.997	170
927.353	176
929.707	190
932.061	206
934.414	204
936.765	210
939.117	220
941.469	224
943.818	256
946.167	274
948.515	314
950.863	422
953.211	528
955.556	658
957.902	854
960.246	886
962.59	896
964.933	780
967.276	614
969.617	540
971.958	446
974.298	368
976.638	300
978.976	240
981.314	244
983.651	218
985.988	238
988.323	224
990.659	230
992.992	232
995.325	210
997.658	200
999.99	200
1002.32	198
1004.65	198
1006.98	204
1009.31	204
1011.64	206
1013.97	212
1016.29	216
1018.62	204
1020.94	230
1023.27	242
1025.59	248
1027.91	256
1030.24	266
1032.56	272
1034.88	286
1037.2	276
1039.52	272
1041.84	268
1044.15	244
1046.47	240
1048.79	220
1051.1	230
1053.42	212
1055.73	210
1058.04	200
1060.36	202
1062.67	224
1064.98	192
1067.29	206
1069.6	196
1071.91	206
1074.22	192
1076.52	210
1078.83	212
1081.14	216
1083.44	196
1085.75	212
1088.05	204
1090.35	214
1092.65	214
1094.95	212
1097.26	194
1099.56	224
1101.86	240
1104.15	284
1106.45	376
1108.75	562
1111.05	796
1113.34	912
1115.64	734
1117.93	524
1120.22	376
1122.52	318
1124.81	296
1127.1	276
1129.39	264
1131.68	252
1133.97	240
1136.26	268
1138.54	254
1140.83	250
1143.12	256
1145.4	236
1147.69	220
1149.97	228
1152.25	226
1154.54	236
1156.82	258
1159.1	274
1161.38	274
1163.66	270
1165.94	272
1168.22	258
1170.49	254
1172.77	242
1175.05	294
1177.32	296
1179.6	348
1181.87	424
1184.14	530
1186.42	614
1188.69	608
1190.96	504
1193.23	450
1195.5	400
1197.77	414
1200.03	450
1202.3	442
1204.57	464
1206.83	422
1209.1	362
1211.36	330
1213.63	252
1215.89	252
1218.15	242
1220.41	254
1222.67	246
1224.93	282
1227.19	334
1229.45	346
1231.71	334
1233.97	302
1236.22	290
1238.48	230
1240.73	240
1242.99	218
1245.24	234
1247.5	230
1249.75	234
1252	212
1254.25	228
1256.5	232
1258.75	232
1261	230
1263.25	238
1265.49	242
1267.74	272
1269.99	258
1272.23	246
1274.48	264
1276.72	282
1278.96	292
1281.21	322
1283.45	338
1285.69	398
1287.93	404
1290.17	440
1292.41	496
1294.64	590
1296.88	786
1299.12	1080
1301.36	1500
1303.59	1988
1305.82	2214
1308.06	1824
1310.29	1282
1312.52	934
1314.76	734
1316.99	622
1319.22	548
1321.45	496
1323.68	478
1325.9	470
1328.13	450
1330.36	438
1332.58	410
1334.81	364
1337.04	360
1339.26	316
1341.48	368
1343.71	338
1345.93	356
1348.15	392
1350.37	384
1352.59	388
1354.81	354
1357.03	344
1359.24	310
1361.46	316
1363.68	290
1365.89	326
1368.11	318
1370.32	386
1372.54	490
1374.75	718
1376.96	946
1379.17	1060
1381.38	1016
1383.59	920
1385.8	690
1388.01	516
1390.22	392
1392.43	318
1394.63	308
1396.84	270
1399.05	276
1401.25	282
1403.45	264
1405.66	292
1407.86	284
1410.06	290
1412.26	294
1414.46	294
1416.66	332
1418.86	326
1421.06	384
1423.26	390
1425.46	412
1427.65	416
1429.85	430
1432.04	446
1434.24	466
1436.43	468
1438.62	496
1440.82	512
1443.01	492
1445.2	452
1447.39	422
1449.58	424
1451.77	400
1453.95	366
1456.14	366
1458.33	376
1460.52	392
1462.7	382
1464.89	360
1467.07	340
1469.25	356
1471.44	324
1473.62	370
1475.8	354
1477.98	364
1480.16	356
1482.34	314
1484.52	334
1486.7	296
1488.87	276
1491.05	294
1493.23	290
1495.4	284
1497.58	278
1499.75	284
1501.92	276
1504.1	268
1506.27	286
1508.44	260
1510.61	246
1512.78	272
1514.95	288
1517.12	276
1519.28	260
1521.45	264
1523.62	264
1525.78	288
1527.95	290
1530.11	302
1532.28	258
1534.44	258
1536.6	258
1538.76	266
1540.93	280
1543.09	288
1545.25	260
1547.41	274
1549.56	282
1551.72	290
1553.88	288
1556.03	304
1558.19	294
1560.35	286
1562.5	318
1564.65	302
1566.81	308
1568.96	336
1571.11	326
1573.26	324
1575.41	378
1577.56	392
1579.71	420
1581.86	418
1584.01	510
1586.15	552
1588.3	648
1590.45	768
1592.59	858
1594.74	1066
1596.88	1200
1599.02	1372
1601.17	1446
1603.31	1506
1605.45	1406
1607.59	1332
1609.73	1158
1611.87	1014
1614.01	870
1616.14	732
1618.28	614
1620.42	542
1622.55	448
1624.69	378
1626.82	370
1628.96	324
1631.09	344
1633.22	296
1635.36	276
1637.49	278
1639.62	270
1641.75	246
1643.88	258
1646	250
1648.13	248
1650.26	270
1652.39	252
1654.51	230
1656.64	220
1658.76	234
1660.89	218
1663.01	228
1665.13	234
1667.26	228
1669.38	224
1671.5	222
1673.62	248
1675.74	226
1677.86	230
1679.97	226
1682.09	234
1684.21	220
1686.33	240
1688.44	224
1690.56	238
1692.67	286
1694.78	258
1696.9	250
1699.01	258
1701.12	250
1703.23	238
1705.34	244
1707.45	262
1709.56	242
1711.67	244
1713.78	216
1715.88	228
1717.99	244
1720.1	222
1722.2	228
1724.31	214
1726.41	214
1728.51	232
1730.62	212
1732.72	206
1734.82	230
1736.92	226
1739.02	226
1741.12	214
1743.22	216
1745.32	210
1747.42	216
1749.51	196
1751.61	214
1753.7	216
1755.8	210
1757.89	212
1759.99	218
1762.08	202
1764.17	222
1766.26	214
1768.36	212
1770.45	212
1772.54	226
1774.62	216
1776.71	220
1778.8	214
1780.89	214
1782.98	214
1785.06	210
1787.15	200
1789.23	204
1791.32	226
1793.4	208
1795.48	204
1797.56	202
1799.65	202
1801.73	216
1803.81	204
1805.89	206
1807.97	206
1810.04	218
1812.12	232
1814.2	206
1816.28	212
1818.35	198
1820.43	196
1822.5	230
1824.58	188
1826.65	208
1828.72	216
1830.79	212
1832.86	218
1834.94	206
1837.01	212
1839.08	226
1841.15	210
1843.21	214
1845.28	214
1847.35	208
1849.41	208
1851.48	208
1853.55	216
1855.61	212
1857.67	232
1859.74	202
1861.8	208
1863.86	202
1865.92	224
1867.98	204
1870.05	214
1872.1	208
1874.16	192
1876.22	214
1878.28	208
1880.34	214
1882.39	218
1884.45	212
1886.5	216
1888.56	194
1890.61	216
1892.67	228
1894.72	222
1896.77	210
1898.82	212
1900.87	200
1902.92	204
1904.97	216
1907.02	212
1909.07	220
1911.12	218
1913.17	210
1915.21	212
1917.26	214
1919.3	220
1921.35	204
1923.39	208
1925.43	222
1927.48	206
1929.52	210
1931.56	204
1933.6	206
1935.64	222
1937.68	212
1939.72	204
1941.76	210
1943.8	200
1945.83	214
1947.87	204
1949.91	210
1951.94	204
1953.98	206
1956.01	214
1958.05	212
1960.08	194
1962.11	222
1964.14	222
1966.17	224
1968.2	210
1970.23	216
1972.26	212
1974.29	212
1976.32	216
1978.35	228
1980.37	212
1982.4	212
1984.43	220
1986.45	220
1988.48	218
1990.5	224
1992.52	218
1994.55	226
1996.57	216
1998.59	226
2000.61	216
2002.63	210
2004.65	226
2006.67	216
2008.69	200
2010.7	212
2012.72	200
2014.74	230
2016.75	208
2018.77	206
2020.78	224
2022.8	210
2024.81	202
2026.83	226
2028.84	196
2030.85	210
2032.86	232
2034.87	204
2036.88	206
2038.89	208
2040.9	198
2042.91	206
2044.91	198
2046.92	218
2048.93	202
2050.93	218
2052.94	204
2054.94	216
2056.95	210
2058.95	206
2060.95	216
2062.95	202
2064.96	202
2066.96	230
2068.96	222
2070.96	206
2072.96	202
2074.95	202
2076.95	214
2078.95	202
2080.95	190
2082.94	208
2084.94	206
2086.93	210
2088.93	206
2090.92	204
2092.91	206
2094.91	210
2096.9	214
2098.89	202
2100.88	216
2102.87	208
2104.86	204
2106.85	232
2108.84	198
2110.83	228
2112.81	208
2114.8	210
2116.78	220
2118.77	218
2120.75	202
2122.74	202
2124.72	194
2126.71	208
2128.69	208
2130.67	220
2132.65	216
2134.63	218
2136.61	204
2138.59	206
2140.57	200
2142.55	230
2144.53	220
2146.5	214
2148.48	208
2150.46	202
2152.43	222
2154.41	198
2156.38	208
2158.35	222
2160.33	224
2162.3	212
2164.27	218
2166.24	194
2168.21	222
2170.18	202
2172.15	208
2174.12	200
2176.09	212
2178.06	216
2180.03	210
2181.99	232
2183.96	206
2185.92	216
2187.89	214
2189.85	222
2191.82	210
2193.78	226
2195.74	194
2197.7	206
2199.67	208
2201.63	208
2203.59	190
2205.55	212
2207.51	196
2209.46	222
2211.42	212
2213.38	202
2215.34	204
2217.29	212
2219.25	212
2221.2	214
2223.16	198
2225.11	218
2227.06	194
2229.02	210
2230.97	240
2232.92	212
2234.87	204
2236.82	194
2238.77	194
2240.72	214
2242.67	208
2244.62	222
2246.57	220
2248.51	204
2250.46	212
2252.4	222
2254.35	214
2256.29	214
2258.24	216
2260.18	208
2262.13	202
2264.07	218
2266.01	206
2267.95	218
2269.89	226
2271.83	200
2273.77	212
2275.71	208
2277.65	202
2279.58	192
2281.52	214
2283.46	208
2285.4	202
2287.33	212
2289.27	210
2291.2	204
2293.13	210
2295.07	200
2297	208
2298.93	214
2300.86	230
2302.79	212
2304.72	224
2306.65	228
2308.58	220
2310.51	220
2312.44	206
2314.37	206
2316.29	224
2318.22	220
2320.15	218
2322.07	220
2324	214
2325.92	236
2327.84	224
2329.77	216
2331.69	218
2333.61	220
2335.53	212
2337.45	216
2339.37	224
2341.29	210
2343.21	238
2345.13	226
2347.05	200
2348.97	210
2350.88	212
2352.8	200
2354.71	198
2356.63	196
2358.54	214
2360.46	224
2362.37	200
2364.28	198
2366.2	220
2368.11	200
2370.02	216
2371.93	204
2373.84	208
2375.75	204
2377.66	212
2379.57	212
2381.47	232
2383.38	226
2385.29	232
2387.2	216
2389.1	232
2391.01	208
2392.91	224
2394.81	220
2396.72	222
2398.62	210
2400.52	222
2402.42	216
2404.33	218
2406.23	214
2408.13	232
2410.03	218
2411.92	226
2413.82	222
2415.72	216
2417.62	224
2419.51	200
2421.41	208
2423.31	224
2425.2	204
2427.1	198
2428.99	204
2430.88	204
2432.78	218
2434.67	190
2436.56	220
2438.45	196
2440.34	196
2442.23	194
2444.12	216
2446.01	204
2447.9	202
2449.79	210