File: Jesse_Dataset_v2/Pure Raman/Polypropylene oxide/633nm/ps-ppo-7jan25-0,0000-map2_Y07_X03.txt
182.393	698
184.993	666
187.593	624
190.193	604
192.79	580
195.387	574
197.983	548
200.578	518
203.174	478
205.766	496
208.36	454
210.951	480
213.542	442
216.131	474
218.721	470
221.309	516
223.897	586
226.483	726
229.069	930
231.654	1156
234.238	1300
236.821	1224
239.404	1148
241.984	988
244.566	864
247.145	758
249.723	616
252.302	532
254.878	456
257.455	398
260.03	368
262.604	336
265.178	308
267.75	290
270.322	258
272.893	260
275.463	288
278.032	282
280.601	286
283.168	334
285.734	368
288.301	444
290.866	524
293.429	592
295.992	640
298.556	580
301.117	550
303.677	488
306.236	434
308.795	448
311.354	404
313.911	362
316.467	360
319.022	348
321.577	350
324.13	360
326.684	370
329.236	372
331.787	408
334.337	394
336.887	372
339.435	384
341.983	358
344.529	348
347.075	352
349.621	358
352.165	346
354.708	342
357.251	374
359.793	336
362.334	334
364.874	310
367.413	336
369.951	310
372.489	312
375.026	328
377.562	308
380.097	286
382.631	256
385.164	240
387.697	230
390.229	238
392.76	224
395.29	242
397.819	230
400.346	234
402.873	232
405.4	280
407.926	252
410.451	320
412.976	340
415.499	364
418.02	334
420.542	304
423.063	262
425.583	248
428.101	218
430.619	232
433.137	174
435.654	188
438.169	190
440.684	174
443.198	164
445.712	162
448.223	166
450.735	170
453.246	162
455.755	180
458.264	168
460.771	170
463.279	186
465.786	212
468.291	224
470.796	278
473.301	292
475.803	334
478.306	380
480.807	450
483.308	492
485.807	486
488.307	438
490.804	356
493.302	324
495.798	276
498.294	228
500.788	220
503.283	210
505.775	242
508.269	256
510.759	306
513.251	394
515.74	358
518.23	294
520.718	284
523.204	280
525.692	310
528.177	358
530.663	454
533.147	572
535.629	660
538.113	766
540.594	732
543.074	678
545.555	542
548.034	446
550.512	382
552.989	406
555.467	414
557.942	500
560.417	656
562.892	942
565.365	1612
567.838	2656
570.309	3636
572.78	3652
575.251	2680
577.72	1568
580.189	974
582.656	682
585.123	614
587.589	596
590.055	542
592.52	514
594.983	484
597.446	434
599.908	370
602.369	300
604.829	260
607.289	218
609.747	218
612.205	214
614.663	180
617.119	214
619.574	212
622.029	226
624.483	262
626.936	250
629.389	270
631.84	290
634.291	288
636.741	320
639.19	292
641.639	250
644.086	270
646.533	242
648.979	238
651.424	212
653.869	178
656.313	192
658.754	172
661.196	194
663.638	166
666.078	168
668.518	178
670.957	162
673.394	158
675.831	160
678.268	142
680.703	176
683.137	166
685.571	166
688.005	168
690.437	154
692.868	166
695.299	164
697.729	184
700.159	170
702.586	166
705.014	188
707.441	172
709.866	190
712.292	228
714.716	234
717.14	244
719.563	210
721.984	192
724.406	196
726.825	196
729.246	206
731.665	186
734.082	198
736.5	228
738.916	216
741.332	220
743.746	260
746.161	294
748.574	330
750.987	294
753.398	298
755.81	270
758.219	238
760.629	220
763.037	198
765.445	178
767.852	174
770.258	200
772.664	198
775.068	194
777.472	196
779.876	188
782.278	210
784.679	198
787.08	190
789.48	202
791.879	190
794.278	192
796.675	188
799.072	194
801.467	186
803.864	192
806.258	190
808.651	200
811.044	194
813.437	202
815.828	192
818.218	208
820.608	232
822.997	278
825.385	332
827.773	466
830.16	776
832.546	1150
834.931	1142
837.315	666
839.699	384
842.081	294
844.463	278
846.844	258
849.226	270
851.606	254
853.985	232
856.363	242
858.741	238
861.117	220
863.493	196
865.868	204
868.243	200
870.616	188
872.989	188
875.36	190
877.731	174
880.102	166
882.472	178
884.841	188
887.209	174
889.577	180
891.944	174
894.31	182
896.674	160
899.039	162
901.403	166
903.766	152
906.128	176
908.49	182
910.849	170
913.209	166
915.569	190
917.927	170
920.284	170
922.641	176
924.997	178
927.353	182
929.707	184
932.061	178
934.414	198
936.765	198
939.117	192
941.469	234
943.818	230
946.167	278
948.515	322
950.863	400
953.211	498
955.556	680
957.902	818
960.246	928
962.59	906
964.933	792
967.276	624
969.617	530
971.958	442
974.298	366
976.638	322
978.976	270
981.314	230
983.651	226
985.988	212
988.323	204
990.659	236
992.992	206
995.325	212
997.658	194
999.99	196
1002.32	198
1004.65	202
1006.98	184
1009.31	182
1011.64	184
1013.97	192
1016.29	218
1018.62	212
1020.94	230
1023.27	236
1025.59	244
1027.91	264
1030.24	270
1032.56	284
1034.88	286
1037.2	280
1039.52	278
1041.84	254
1044.15	238
1046.47	224
1048.79	208
1051.1	204
1053.42	204
1055.73	212
1058.04	188
1060.36	210
1062.67	190
1064.98	174
1067.29	182
1069.6	190
1071.91	206
1074.22	192
1076.52	198
1078.83	190
1081.14	194
1083.44	200
1085.75	204
1088.05	190
1090.35	218
1092.65	200
1094.95	212
1097.26	192
1099.56	224
1101.86	252
1104.15	280
1106.45	370
1108.75	560
1111.05	812
1113.34	880
1115.64	708
1117.93	510
1120.22	396
1122.52	318
1124.81	284
1127.1	264
1129.39	254
1131.68	234
1133.97	220
1136.26	240
1138.54	248
1140.83	266
1143.12	252
1145.4	250
1147.69	234
1149.97	214
1152.25	216
1154.54	230
1156.82	248
1159.1	258
1161.38	240
1163.66	290
1165.94	276
1168.22	248
1170.49	244
1172.77	258
1175.05	270
1177.32	298
1179.6	344
1181.87	408
1184.14	558
1186.42	636
1188.69	596
1190.96	524
1193.23	458
1195.5	424
1197.77	430
1200.03	438
1202.3	456
1204.57	452
1206.83	414
1209.1	358
1211.36	304
1213.63	260
1215.89	262
1218.15	222
1220.41	222
1222.67	238
1224.93	284
1227.19	308
1229.45	346
1231.71	338
1233.97	288
1236.22	264
1238.48	244
1240.73	214
1242.99	220
1245.24	218
1247.5	204
1249.75	214
1252	222
1254.25	206
1256.5	230
1258.75	220
1261	234
1263.25	230
1265.49	222
1267.74	224
1269.99	248
1272.23	256
1274.48	272
1276.72	250
1278.96	290
1281.21	324
1283.45	344
1285.69	354
1287.93	416
1290.17	438
1292.41	504
1294.64	594
1296.88	770
1299.12	1090
1301.36	1578
1303.59	2006
1305.82	2216
1308.06	1860
1310.29	1300
1312.52	966
1314.76	770
1316.99	612
1319.22	536
1321.45	498
1323.68	468
1325.9	474
1328.13	462
1330.36	458
1332.58	400
1334.81	334
1337.04	332
1339.26	326
1341.48	324
1343.71	376
1345.93	368
1348.15	378
1350.37	382
1352.59	386
1354.81	368
1357.03	320
1359.24	318
1361.46	292
1363.68	308
1365.89	334
1368.11	326
1370.32	400
1372.54	556
1374.75	740
1376.96	950
1379.17	1052
1381.38	1030
1383.59	908
1385.8	696
1388.01	552
1390.22	410
1392.43	342
1394.63	304
1396.84	274
1399.05	280
1401.25	258
1403.45	266
1405.66	248
1407.86	268
1410.06	278
1412.26	276
1414.46	294
1416.66	316
1418.86	330
1421.06	362
1423.26	412
1425.46	418
1427.65	432
1429.85	440
1432.04	452
1434.24	466
1436.43	480
1438.62	506
1440.82	484
1443.01	508
1445.2	454
1447.39	450
1449.58	426
1451.77	406
1453.95	376
1456.14	374
1458.33	396
1460.52	378
1462.7	378
1464.89	388
1467.07	360
1469.25	342
1471.44	360
1473.62	378
1475.8	336
1477.98	340
1480.16	336
1482.34	332
1484.52	324
1486.7	298
1488.87	292
1491.05	296
1493.23	292
1495.4	282
1497.58	264
1499.75	294
1501.92	274
1504.1	280
1506.27	276
1508.44	264
1510.61	274
1512.78	278
1514.95	276
1517.12	260
1519.28	270
1521.45	260
1523.62	272
1525.78	284
1527.95	290
1530.11	272
1532.28	282
1534.44	266
1536.6	268
1538.76	290
1540.93	268
1543.09	254
1545.25	270
1547.41	298
1549.56	266
1551.72	274
1553.88	294
1556.03	282
1558.19	294
1560.35	290
1562.5	298
1564.65	312
1566.81	314
1568.96	298
1571.11	314
1573.26	320
1575.41	356
1577.56	388
1579.71	414
1581.86	448
1584.01	504
1586.15	536
1588.3	652
1590.45	742
1592.59	842
1594.74	1046
1596.88	1196
1599.02	1338
1601.17	1436
1603.31	1472
1605.45	1406
1607.59	1276
1609.73	1166
1611.87	994
1614.01	858
1616.14	724
1618.28	626
1620.42	540
1622.55	466
1624.69	370
1626.82	346
1628.96	336
1631.09	294
1633.22	296
1635.36	282
1637.49	256
1639.62	284
1641.75	260
1643.88	258
1646	252
1648.13	258
1650.26	236
1652.39	238
1654.51	232
1656.64	238
1658.76	242
1660.89	248
1663.01	224
1665.13	234
1667.26	210
1669.38	248
1671.5	234
1673.62	218
1675.74	210
1677.86	200
1679.97	232
1682.09	226
1684.21	236
1686.33	236
1688.44	230
1690.56	234
1692.67	250
1694.78	234
1696.9	254
1699.01	234
1701.12	248
1703.23	234
1705.34	242
1707.45	234
1709.56	230
1711.67	206
1713.78	236
1715.88	216
1717.99	224
1720.1	226
1722.2	210
1724.31	228
1726.41	206
1728.51	208
1730.62	200
1732.72	218
1734.82	198
1736.92	212
1739.02	216
1741.12	196
1743.22	218
1745.32	192
1747.42	200
1749.51	198
1751.61	210
1753.7	206
1755.8	214
1757.89	206
1759.99	206
1762.08	208
1764.17	238
1766.26	210
1768.36	212
1770.45	208
1772.54	198
1774.62	190
1776.71	206
1778.8	202
1780.89	206
1782.98	196
1785.06	192
1787.15	192
1789.23	214
1791.32	212
1793.4	208
1795.48	208
1797.56	196
1799.65	202
1801.73	186
1803.81	210
1805.89	200
1807.97	204
1810.04	208
1812.12	206
1814.2	212
1816.28	222
1818.35	206
1820.43	214
1822.5	196
1824.58	216
1826.65	214
1828.72	180
1830.79	210
1832.86	200
1834.94	208
1837.01	200
1839.08	214
1841.15	200
1843.21	194
1845.28	218
1847.35	198
1849.41	188
1851.48	202
1853.55	210
1855.61	192
1857.67	200
1859.74	214
1861.8	196
1863.86	208
1865.92	220
1867.98	218
1870.05	202
1872.1	200
1874.16	216
1876.22	216
1878.28	198
1880.34	204
1882.39	194
1884.45	212
1886.5	206
1888.56	196
1890.61	220
1892.67	204
1894.72	194
1896.77	220
1898.82	194
1900.87	216
1902.92	222
1904.97	214
1907.02	196
1909.07	220
1911.12	202
1913.17	206
1915.21	194
1917.26	210
1919.3	204
1921.35	202
1923.39	186
1925.43	214
1927.48	208
1929.52	216
1931.56	196
1933.6	210
1935.64	202
1937.68	194
1939.72	192
1941.76	194
1943.8	208
1945.83	204
1947.87	202
1949.91	200
1951.94	200
1953.98	202
1956.01	204
1958.05	208
1960.08	196
1962.11	204
1964.14	188
1966.17	204
1968.2	194
1970.23	198
1972.26	200
1974.29	200
1976.32	200
1978.35	212
1980.37	210
1982.4	188
1984.43	204
1986.45	208
1988.48	210
1990.5	208
1992.52	196
1994.55	196
1996.57	202
1998.59	210
2000.61	216
2002.63	244
2004.65	218
2006.67	204
2008.69	210
2010.7	208
2012.72	198
2014.74	208
2016.75	214
2018.77	186
2020.78	204
2022.8	212
2024.81	208
2026.83	188
2028.84	204
2030.85	192
2032.86	216
2034.87	216
2036.88	208
2038.89	208
2040.9	208
2042.91	196
2044.91	212
2046.92	204
2048.93	208
2050.93	202
2052.94	194
2054.94	214
2056.95	220
2058.95	206
2060.95	224
2062.95	218
2064.96	208
2066.96	198
2068.96	206
2070.96	216
2072.96	192
2074.95	210
2076.95	210
2078.95	206
2080.95	178
2082.94	218
2084.94	188
2086.93	194
2088.93	208
2090.92	224
2092.91	212
2094.91	206
2096.9	218
2098.89	198
2100.88	204
2102.87	200
2104.86	196
2106.85	216
2108.84	220
2110.83	206
2112.81	206
2114.8	200
2116.78	196
2118.77	206
2120.75	220
2122.74	208
2124.72	204
2126.71	196
2128.69	198
2130.67	200
2132.65	200
2134.63	218
2136.61	206
2138.59	210
2140.57	208
2142.55	190
2144.53	202
2146.5	192
2148.48	226
2150.46	220
2152.43	202
2154.41	218
2156.38	198
2158.35	198
2160.33	204
2162.3	210
2164.27	186
2166.24	224
2168.21	216
2170.18	188
2172.15	198
2174.12	208
2176.09	212
2178.06	206
2180.03	200
2181.99	198
2183.96	214
2185.92	210
2187.89	204
2189.85	210
2191.82	208
2193.78	200
2195.74	206
2197.7	188
2199.67	192
2201.63	196
2203.59	208
2205.55	204
2207.51	204
2209.46	186
2211.42	212
2213.38	194
2215.34	204
2217.29	206
2219.25	220
2221.2	204
2223.16	200
2225.11	192
2227.06	196
2229.02	214
2230.97	192
2232.92	200
2234.87	204
2236.82	190
2238.77	200
2240.72	206
2242.67	216
2244.62	208
2246.57	194
2248.51	204
2250.46	198
2252.4	216
2254.35	204
2256.29	192
2258.24	200
2260.18	208
2262.13	200
2264.07	200
2266.01	200
2267.95	210
2269.89	204
2271.83	212
2273.77	204
2275.71	188
2277.65	212
2279.58	186
2281.52	212
2283.46	202
2285.4	216
2287.33	220
2289.27	206
2291.2	194
2293.13	220
2295.07	212
2297	202
2298.93	198
2300.86	200
2302.79	212
2304.72	222
2306.65	220
2308.58	210
2310.51	212
2312.44	216
2314.37	214
2316.29	210
2318.22	216
2320.15	202
2322.07	206
2324	216
2325.92	206
2327.84	220
2329.77	220
2331.69	204
2333.61	210
2335.53	212
2337.45	222
2339.37	216
2341.29	198
2343.21	222
2345.13	200
2347.05	210
2348.97	214
2350.88	212
2352.8	208
2354.71	210
2356.63	212
2358.54	206
2360.46	208
2362.37	212
2364.28	196
2366.2	210
2368.11	200
2370.02	210
2371.93	212
2373.84	216
2375.75	220
2377.66	214
2379.57	218
2381.47	218
2383.38	206
2385.29	208
2387.2	206
2389.1	210
2391.01	222
2392.91	190
2394.81	212
2396.72	208
2398.62	216
2400.52	214
2402.42	214
2404.33	220
2406.23	212
2408.13	212
2410.03	198
2411.92	216
2413.82	224
2415.72	200
2417.62	204
2419.51	188
2421.41	190
2423.31	218
2425.2	204
2427.1	218
2428.99	202
2430.88	214
2432.78	212
2434.67	190
2436.56	210
2438.45	200
2440.34	214
2442.23	216
2444.12	212
2446.01	208
2447.9	216
2449.79	212