File: Jesse_Dataset_v2/Pure Raman/Polypropylene oxide/633nm/ps-ppo-7jan25-0,0000-map2_Y05_X02.txt
182.393	696
184.993	650
187.593	656
190.193	632
192.79	610
195.387	538
197.983	520
200.578	540
203.174	500
205.766	494
208.36	476
210.951	438
213.542	460
216.131	444
218.721	474
221.309	504
223.897	630
226.483	742
229.069	948
231.654	1146
234.238	1268
236.821	1236
239.404	1150
241.984	1000
244.566	836
247.145	732
249.723	664
252.302	564
254.878	472
257.455	412
260.03	358
262.604	336
265.178	322
267.75	302
270.322	276
272.893	262
275.463	274
278.032	296
280.601	304
283.168	314
285.734	384
288.301	432
290.866	550
293.429	596
295.992	608
298.556	648
301.117	526
303.677	512
306.236	482
308.795	420
311.354	394
313.911	392
316.467	364
319.022	358
321.577	364
324.13	350
326.684	380
329.236	394
331.787	382
334.337	394
336.887	404
339.435	382
341.983	354
344.529	344
347.075	340
349.621	356
352.165	356
354.708	368
357.251	352
359.793	362
362.334	324
364.874	346
367.413	322
369.951	334
372.489	322
375.026	340
377.562	318
380.097	292
382.631	256
385.164	254
387.697	258
390.229	252
392.76	234
395.29	222
397.819	228
400.346	226
402.873	250
405.4	260
407.926	276
410.451	304
412.976	370
415.499	368
418.02	354
420.542	304
423.063	258
425.583	256
428.101	218
430.619	220
433.137	212
435.654	198
438.169	184
440.684	190
443.198	158
445.712	166
448.223	174
450.735	182
453.246	184
455.755	172
458.264	172
460.771	182
463.279	202
465.786	202
468.291	226
470.796	254
473.301	304
475.803	366
478.306	398
480.807	440
483.308	478
485.807	486
488.307	456
490.804	348
493.302	304
495.798	260
498.294	244
500.788	208
503.283	224
505.775	212
508.269	260
510.759	314
513.251	386
515.74	356
518.23	304
520.718	282
523.204	304
525.692	346
528.177	372
530.663	454
533.147	618
535.629	712
538.113	748
540.594	794
543.074	710
545.555	558
548.034	444
550.512	412
552.989	374
555.467	442
557.942	492
560.417	680
562.892	1008
565.365	1682
567.838	2706
570.309	3760
572.78	3698
575.251	2656
577.72	1554
580.189	920
582.656	706
585.123	618
587.589	566
590.055	554
592.52	506
594.983	490
597.446	440
599.908	374
602.369	306
604.829	276
607.289	252
609.747	226
612.205	220
614.663	214
617.119	224
619.574	242
622.029	248
624.483	248
626.936	262
629.389	296
631.84	302
634.291	316
636.741	346
639.19	318
641.639	292
644.086	248
646.533	246
648.979	230
651.424	222
653.869	206
656.313	200
658.754	190
661.196	196
663.638	164
666.078	174
668.518	178
670.957	166
673.394	160
675.831	164
678.268	156
680.703	162
683.137	180
685.571	162
688.005	172
690.437	156
692.868	166
695.299	184
697.729	168
700.159	174
702.586	170
705.014	192
707.441	190
709.866	208
712.292	218
714.716	270
717.14	242
719.563	216
721.984	200
724.406	210
726.825	206
729.246	204
731.665	210
734.082	198
736.5	200
738.916	238
741.332	232
743.746	272
746.161	342
748.574	320
750.987	308
753.398	290
755.81	268
758.219	264
760.629	230
763.037	216
765.445	198
767.852	186
770.258	200
772.664	190
775.068	206
777.472	210
779.876	246
782.278	202
784.679	200
787.08	202
789.48	172
791.879	200
794.278	204
796.675	188
799.072	194
801.467	186
803.864	200
806.258	204
808.651	190
811.044	212
813.437	196
815.828	204
818.218	226
820.608	254
822.997	268
825.385	328
827.773	472
830.16	780
832.546	1178
834.931	1106
837.315	684
839.699	392
842.081	302
844.463	262
846.844	262
849.226	254
851.606	254
853.985	256
856.363	252
858.741	222
861.117	218
863.493	206
865.868	212
868.243	206
870.616	188
872.989	196
875.36	190
877.731	206
880.102	186
882.472	192
884.841	190
887.209	178
889.577	176
891.944	168
894.31	180
896.674	166
899.039	172
901.403	172
903.766	176
906.128	178
908.49	180
910.849	174
913.209	190
915.569	178
917.927	184
920.284	186
922.641	182
924.997	182
927.353	186
929.707	196
932.061	178
934.414	188
936.765	202
939.117	212
941.469	218
943.818	246
946.167	290
948.515	324
950.863	420
953.211	566
955.556	676
957.902	874
960.246	930
962.59	928
964.933	750
967.276	636
969.617	534
971.958	452
974.298	356
976.638	302
978.976	284
981.314	246
983.651	250
985.988	212
988.323	206
990.659	228
992.992	240
995.325	220
997.658	192
999.99	186
1002.32	196
1004.65	194
1006.98	194
1009.31	194
1011.64	188
1013.97	208
1016.29	212
1018.62	224
1020.94	234
1023.27	248
1025.59	256
1027.91	264
1030.24	248
1032.56	302
1034.88	282
1037.2	286
1039.52	256
1041.84	256
1044.15	250
1046.47	232
1048.79	228
1051.1	226
1053.42	204
1055.73	208
1058.04	196
1060.36	202
1062.67	186
1064.98	196
1067.29	208
1069.6	220
1071.91	200
1074.22	214
1076.52	188
1078.83	190
1081.14	192
1083.44	202
1085.75	200
1088.05	200
1090.35	226
1092.65	206
1094.95	208
1097.26	224
1099.56	242
1101.86	244
1104.15	266
1106.45	358
1108.75	552
1111.05	824
1113.34	888
1115.64	740
1117.93	492
1120.22	386
1122.52	338
1124.81	314
1127.1	256
1129.39	234
1131.68	238
1133.97	242
1136.26	248
1138.54	238
1140.83	264
1143.12	256
1145.4	218
1147.69	220
1149.97	208
1152.25	232
1154.54	226
1156.82	242
1159.1	270
1161.38	250
1163.66	274
1165.94	256
1168.22	262
1170.49	248
1172.77	268
1175.05	286
1177.32	300
1179.6	358
1181.87	450
1184.14	546
1186.42	634
1188.69	562
1190.96	526
1193.23	452
1195.5	410
1197.77	436
1200.03	466
1202.3	464
1204.57	472
1206.83	420
1209.1	364
1211.36	310
1213.63	274
1215.89	238
1218.15	240
1220.41	238
1222.67	244
1224.93	292
1227.19	328
1229.45	354
1231.71	330
1233.97	302
1236.22	256
1238.48	238
1240.73	258
1242.99	218
1245.24	234
1247.5	238
1249.75	208
1252	222
1254.25	218
1256.5	238
1258.75	230
1261	222
1263.25	254
1265.49	252
1267.74	246
1269.99	254
1272.23	242
1274.48	256
1276.72	298
1278.96	306
1281.21	326
1283.45	364
1285.69	378
1287.93	422
1290.17	434
1292.41	450
1294.64	616
1296.88	812
1299.12	1138
1301.36	1594
1303.59	2096
1305.82	2208
1308.06	1868
1310.29	1322
1312.52	966
1314.76	740
1316.99	620
1319.22	540
1321.45	486
1323.68	476
1325.9	464
1328.13	460
1330.36	426
1332.58	386
1334.81	356
1337.04	344
1339.26	312
1341.48	330
1343.71	356
1345.93	370
1348.15	370
1350.37	398
1352.59	382
1354.81	364
1357.03	338
1359.24	316
1361.46	316
1363.68	314
1365.89	326
1368.11	370
1370.32	404
1372.54	566
1374.75	788
1376.96	1020
1379.17	1050
1381.38	1034
1383.59	894
1385.8	710
1388.01	528
1390.22	384
1392.43	314
1394.63	308
1396.84	288
1399.05	282
1401.25	256
1403.45	244
1405.66	286
1407.86	266
1410.06	286
1412.26	290
1414.46	300
1416.66	310
1418.86	338
1421.06	376
1423.26	382
1425.46	418
1427.65	402
1429.85	446
1432.04	412
1434.24	460
1436.43	466
1438.62	494
1440.82	500
1443.01	482
1445.2	442
1447.39	446
1449.58	384
1451.77	412
1453.95	378
1456.14	354
1458.33	378
1460.52	360
1462.7	368
1464.89	372
1467.07	362
1469.25	364
1471.44	368
1473.62	354
1475.8	356
1477.98	358
1480.16	362
1482.34	336
1484.52	334
1486.7	320
1488.87	290
1491.05	296
1493.23	298
1495.4	276
1497.58	282
1499.75	264
1501.92	294
1504.1	278
1506.27	280
1508.44	262
1510.61	258
1512.78	284
1514.95	266
1517.12	260
1519.28	262
1521.45	266
1523.62	264
1525.78	272
1527.95	266
1530.11	266
1532.28	284
1534.44	268
1536.6	270
1538.76	258
1540.93	278
1543.09	280
1545.25	300
1547.41	290
1549.56	298
1551.72	294
1553.88	284
1556.03	284
1558.19	292
1560.35	296
1562.5	302
1564.65	326
1566.81	286
1568.96	312
1571.11	340
1573.26	330
1575.41	370
1577.56	414
1579.71	412
1581.86	488
1584.01	518
1586.15	608
1588.3	668
1590.45	760
1592.59	900
1594.74	1020
1596.88	1206
1599.02	1372
1601.17	1450
1603.31	1450
1605.45	1414
1607.59	1290
1609.73	1128
1611.87	996
1614.01	850
1616.14	748
1618.28	602
1620.42	516
1622.55	444
1624.69	392
1626.82	360
1628.96	326
1631.09	306
1633.22	286
1635.36	272
1637.49	272
1639.62	252
1641.75	260
1643.88	268
1646	256
1648.13	238
1650.26	232
1652.39	244
1654.51	238
1656.64	230
1658.76	234
1660.89	232
1663.01	212
1665.13	240
1667.26	238
1669.38	228
1671.5	216
1673.62	224
1675.74	216
1677.86	216
1679.97	224
1682.09	238
1684.21	242
1686.33	240
1688.44	244
1690.56	254
1692.67	252
1694.78	240
1696.9	260
1699.01	242
1701.12	246
1703.23	238
1705.34	226
1707.45	228
1709.56	248
1711.67	218
1713.78	236
1715.88	240
1717.99	220
1720.1	222
1722.2	228
1724.31	234
1726.41	210
1728.51	210
1730.62	224
1732.72	214
1734.82	196
1736.92	226
1739.02	206
1741.12	206
1743.22	222
1745.32	206
1747.42	206
1749.51	216
1751.61	216
1753.7	208
1755.8	186
1757.89	210
1759.99	208
1762.08	206
1764.17	216
1766.26	200
1768.36	220
1770.45	214
1772.54	212
1774.62	204
1776.71	234
1778.8	210
1780.89	200
1782.98	206
1785.06	204
1787.15	208
1789.23	214
1791.32	202
1793.4	200
1795.48	192
1797.56	206
1799.65	222
1801.73	204
1803.81	202
1805.89	218
1807.97	200
1810.04	214
1812.12	196
1814.2	190
1816.28	228
1818.35	206
1820.43	204
1822.5	228
1824.58	208
1826.65	194
1828.72	190
1830.79	222
1832.86	214
1834.94	202
1837.01	210
1839.08	206
1841.15	190
1843.21	218
1845.28	210
1847.35	208
1849.41	214
1851.48	200
1853.55	198
1855.61	196
1857.67	196
1859.74	212
1861.8	212
1863.86	196
1865.92	204
1867.98	220
1870.05	216
1872.1	226
1874.16	204
1876.22	218
1878.28	196
1880.34	210
1882.39	226
1884.45	208
1886.5	210
1888.56	210
1890.61	198
1892.67	208
1894.72	198
1896.77	208
1898.82	196
1900.87	206
1902.92	214
1904.97	214
1907.02	214
1909.07	218
1911.12	202
1913.17	200
1915.21	202
1917.26	218
1919.3	202
1921.35	216
1923.39	196
1925.43	222
1927.48	200
1929.52	204
1931.56	224
1933.6	202
1935.64	216
1937.68	224
1939.72	210
1941.76	214
1943.8	216
1945.83	198
1947.87	208
1949.91	208
1951.94	208
1953.98	204
1956.01	212
1958.05	202
1960.08	198
1962.11	214
1964.14	200
1966.17	210
1968.2	200
1970.23	202
1972.26	202
1974.29	206
1976.32	186
1978.35	206
1980.37	208
1982.4	202
1984.43	200
1986.45	224
1988.48	202
1990.5	206
1992.52	214
1994.55	208
1996.57	194
1998.59	228
2000.61	220
2002.63	210
2004.65	224
2006.67	208
2008.69	220
2010.7	196
2012.72	212
2014.74	208
2016.75	206
2018.77	202
2020.78	214
2022.8	204
2024.81	214
2026.83	198
2028.84	198
2030.85	208
2032.86	206
2034.87	204
2036.88	218
2038.89	204
2040.9	206
2042.91	230
2044.91	204
2046.92	230
2048.93	216
2050.93	214
2052.94	196
2054.94	210
2056.95	210
2058.95	212
2060.95	204
2062.95	230
2064.96	206
2066.96	210
2068.96	216
2070.96	214
2072.96	194
2074.95	214
2076.95	192
2078.95	198
2080.95	206
2082.94	204
2084.94	204
2086.93	210
2088.93	216
2090.92	184
2092.91	212
2094.91	208
2096.9	220
2098.89	212
2100.88	198
2102.87	204
2104.86	200
2106.85	214
2108.84	224
2110.83	210
2112.81	210
2114.8	192
2116.78	208
2118.77	216
2120.75	212
2122.74	194
2124.72	208
2126.71	202
2128.69	200
2130.67	196
2132.65	204
2134.63	210
2136.61	216
2138.59	204
2140.57	200
2142.55	214
2144.53	212
2146.5	214
2148.48	214
2150.46	198
2152.43	222
2154.41	214
2156.38	204
2158.35	210
2160.33	214
2162.3	206
2164.27	198
2166.24	192
2168.21	192
2170.18	210
2172.15	202
2174.12	204
2176.09	214
2178.06	208
2180.03	212
2181.99	208
2183.96	212
2185.92	212
2187.89	204
2189.85	210
2191.82	200
2193.78	202
2195.74	210
2197.7	188
2199.67	206
2201.63	200
2203.59	206
2205.55	198
2207.51	192
2209.46	206
2211.42	206
2213.38	206
2215.34	196
2217.29	198
2219.25	202
2221.2	202
2223.16	200
2225.11	188
2227.06	206
2229.02	210
2230.97	200
2232.92	210
2234.87	194
2236.82	204
2238.77	204
2240.72	206
2242.67	222
2244.62	196
2246.57	202
2248.51	204
2250.46	216
2252.4	204
2254.35	212
2256.29	208
2258.24	212
2260.18	208
2262.13	210
2264.07	206
2266.01	214
2267.95	192
2269.89	198
2271.83	216
2273.77	232
2275.71	210
2277.65	198
2279.58	212
2281.52	218
2283.46	208
2285.4	206
2287.33	206
2289.27	196
2291.2	214
2293.13	208
2295.07	214
2297	210
2298.93	204
2300.86	196
2302.79	212
2304.72	188
2306.65	210
2308.58	210
2310.51	208
2312.44	224
2314.37	210
2316.29	220
2318.22	216
2320.15	232
2322.07	212
2324	210
2325.92	228
2327.84	216
2329.77	220
2331.69	216
2333.61	204
2335.53	222
2337.45	208
2339.37	210
2341.29	184
2343.21	206
2345.13	216
2347.05	214
2348.97	196
2350.88	202
2352.8	218
2354.71	192
2356.63	208
2358.54	212
2360.46	212
2362.37	198
2364.28	188
2366.2	214
2368.11	204
2370.02	212
2371.93	216
2373.84	206
2375.75	206
2377.66	224
2379.57	216
2381.47	210
2383.38	196
2385.29	226
2387.2	220
2389.1	216
2391.01	210
2392.91	216
2394.81	204
2396.72	238
2398.62	224
2400.52	210
2402.42	222
2404.33	226
2406.23	206
2408.13	214
2410.03	216
2411.92	214
2413.82	224
2415.72	208
2417.62	214
2419.51	214
2421.41	220
2423.31	196
2425.2	212
2427.1	202
2428.99	194
2430.88	212
2432.78	226
2434.67	210
2436.56	208
2438.45	208
2440.34	200
2442.23	206
2444.12	210
2446.01	204
2447.9	208
2449.79	214