File: Jesse_Dataset_v2/Pure Raman/Polypropylene oxide/633nm/ps-ppo-7jan25-0,0000-map2_Y08_X09.txt
182.393	646
184.993	656
187.593	626
190.193	604
192.79	588
195.387	566
197.983	534
200.578	522
203.174	510
205.766	514
208.36	468
210.951	472
213.542	442
216.131	442
218.721	468
221.309	514
223.897	604
226.483	702
229.069	878
231.654	1098
234.238	1198
236.821	1188
239.404	1086
241.984	982
244.566	852
247.145	752
249.723	636
252.302	548
254.878	480
257.455	410
260.03	366
262.604	332
265.178	310
267.75	310
270.322	312
272.893	280
275.463	300
278.032	308
280.601	304
283.168	346
285.734	374
288.301	418
290.866	510
293.429	582
295.992	582
298.556	590
301.117	550
303.677	488
306.236	446
308.795	440
311.354	378
313.911	346
316.467	382
319.022	374
321.577	368
324.13	366
326.684	378
329.236	398
331.787	366
334.337	432
336.887	380
339.435	366
341.983	380
344.529	348
347.075	352
349.621	356
352.165	378
354.708	386
357.251	354
359.793	368
362.334	346
364.874	316
367.413	324
369.951	320
372.489	318
375.026	328
377.562	306
380.097	286
382.631	266
385.164	248
387.697	264
390.229	250
392.76	238
395.29	252
397.819	244
400.346	246
402.873	254
405.4	280
407.926	268
410.451	326
412.976	354
415.499	376
418.02	360
420.542	300
423.063	290
425.583	266
428.101	260
430.619	218
433.137	214
435.654	214
438.169	192
440.684	174
443.198	198
445.712	182
448.223	168
450.735	176
453.246	190
455.755	164
458.264	180
460.771	198
463.279	200
465.786	218
468.291	240
470.796	262
473.301	294
475.803	356
478.306	400
480.807	454
483.308	490
485.807	502
488.307	470
490.804	378
493.302	318
495.798	268
498.294	238
500.788	208
503.283	218
505.775	228
508.269	256
510.759	324
513.251	404
515.74	366
518.23	310
520.718	290
523.204	274
525.692	354
528.177	386
530.663	452
533.147	570
535.629	708
538.113	738
540.594	770
543.074	674
545.555	576
548.034	462
550.512	368
552.989	366
555.467	416
557.942	504
560.417	638
562.892	974
565.365	1572
567.838	2518
570.309	3490
572.78	3634
575.251	2548
577.72	1554
580.189	934
582.656	684
585.123	622
587.589	592
590.055	566
592.52	530
594.983	498
597.446	440
599.908	398
602.369	310
604.829	264
607.289	250
609.747	242
612.205	216
614.663	218
617.119	222
619.574	226
622.029	246
624.483	274
626.936	272
629.389	310
631.84	302
634.291	310
636.741	310
639.19	292
641.639	304
644.086	250
646.533	254
648.979	230
651.424	218
653.869	224
656.313	208
658.754	198
661.196	192
663.638	188
666.078	194
668.518	182
670.957	180
673.394	170
675.831	188
678.268	170
680.703	180
683.137	176
685.571	186
688.005	178
690.437	166
692.868	182
695.299	180
697.729	176
700.159	178
702.586	178
705.014	176
707.441	196
709.866	208
712.292	228
714.716	226
717.14	264
719.563	210
721.984	224
724.406	198
726.825	194
729.246	222
731.665	214
734.082	228
736.5	214
738.916	226
741.332	254
743.746	284
746.161	304
748.574	342
750.987	302
753.398	302
755.81	292
758.219	268
760.629	240
763.037	222
765.445	212
767.852	214
770.258	204
772.664	204
775.068	202
777.472	212
779.876	224
782.278	236
784.679	206
787.08	216
789.48	208
791.879	198
794.278	196
796.675	202
799.072	190
801.467	204
803.864	206
806.258	202
808.651	220
811.044	218
813.437	220
815.828	226
818.218	234
820.608	252
822.997	288
825.385	336
827.773	492
830.16	784
832.546	1118
834.931	1092
837.315	664
839.699	384
842.081	290
844.463	274
846.844	286
849.226	274
851.606	264
853.985	258
856.363	246
858.741	238
861.117	224
863.493	234
865.868	226
868.243	226
870.616	200
872.989	202
875.36	192
877.731	208
880.102	210
882.472	208
884.841	216
887.209	196
889.577	182
891.944	186
894.31	192
896.674	162
899.039	202
901.403	182
903.766	166
906.128	202
908.49	176
910.849	188
913.209	194
915.569	190
917.927	186
920.284	188
922.641	202
924.997	184
927.353	188
929.707	188
932.061	198
934.414	204
936.765	210
939.117	224
941.469	240
943.818	246
946.167	292
948.515	356
950.863	400
953.211	502
955.556	644
957.902	864
960.246	906
962.59	868
964.933	754
967.276	616
969.617	552
971.958	424
974.298	356
976.638	324
978.976	282
981.314	252
983.651	254
985.988	224
988.323	236
990.659	234
992.992	232
995.325	224
997.658	228
999.99	210
1002.32	206
1004.65	208
1006.98	200
1009.31	220
1011.64	198
1013.97	228
1016.29	216
1018.62	234
1020.94	244
1023.27	252
1025.59	260
1027.91	256
1030.24	254
1032.56	312
1034.88	274
1037.2	282
1039.52	286
1041.84	272
1044.15	256
1046.47	258
1048.79	230
1051.1	228
1053.42	218
1055.73	214
1058.04	204
1060.36	220
1062.67	224
1064.98	204
1067.29	222
1069.6	202
1071.91	210
1074.22	198
1076.52	224
1078.83	216
1081.14	210
1083.44	220
1085.75	230
1088.05	222
1090.35	216
1092.65	220
1094.95	222
1097.26	228
1099.56	230
1101.86	250
1104.15	300
1106.45	366
1108.75	550
1111.05	760
1113.34	900
1115.64	736
1117.93	512
1120.22	374
1122.52	318
1124.81	302
1127.1	274
1129.39	270
1131.68	248
1133.97	256
1136.26	250
1138.54	240
1140.83	266
1143.12	264
1145.4	246
1147.69	226
1149.97	236
1152.25	238
1154.54	242
1156.82	246
1159.1	274
1161.38	292
1163.66	264
1165.94	270
1168.22	258
1170.49	264
1172.77	252
1175.05	274
1177.32	304
1179.6	368
1181.87	414
1184.14	536
1186.42	656
1188.69	566
1190.96	506
1193.23	428
1195.5	442
1197.77	430
1200.03	460
1202.3	464
1204.57	448
1206.83	420
1209.1	376
1211.36	304
1213.63	298
1215.89	282
1218.15	266
1220.41	264
1222.67	266
1224.93	286
1227.19	326
1229.45	352
1231.71	344
1233.97	310
1236.22	272
1238.48	244
1240.73	240
1242.99	262
1245.24	228
1247.5	222
1249.75	238
1252	234
1254.25	232
1256.5	236
1258.75	232
1261	244
1263.25	262
1265.49	268
1267.74	276
1269.99	260
1272.23	262
1274.48	270
1276.72	304
1278.96	304
1281.21	340
1283.45	372
1285.69	358
1287.93	412
1290.17	462
1292.41	516
1294.64	562
1296.88	774
1299.12	1048
1301.36	1538
1303.59	1926
1305.82	2112
1308.06	1808
1310.29	1316
1312.52	940
1314.76	730
1316.99	626
1319.22	518
1321.45	476
1323.68	440
1325.9	474
1328.13	482
1330.36	422
1332.58	410
1334.81	368
1337.04	340
1339.26	340
1341.48	330
1343.71	360
1345.93	374
1348.15	398
1350.37	396
1352.59	394
1354.81	362
1357.03	360
1359.24	318
1361.46	324
1363.68	312
1365.89	320
1368.11	348
1370.32	418
1372.54	520
1374.75	744
1376.96	904
1379.17	1030
1381.38	1024
1383.59	918
1385.8	730
1388.01	520
1390.22	418
1392.43	350
1394.63	302
1396.84	282
1399.05	288
1401.25	278
1403.45	286
1405.66	286
1407.86	284
1410.06	280
1412.26	292
1414.46	308
1416.66	306
1418.86	364
1421.06	380
1423.26	396
1425.46	406
1427.65	438
1429.85	446
1432.04	456
1434.24	482
1436.43	502
1438.62	484
1440.82	510
1443.01	508
1445.2	458
1447.39	458
1449.58	442
1451.77	414
1453.95	388
1456.14	374
1458.33	378
1460.52	412
1462.7	370
1464.89	378
1467.07	372
1469.25	380
1471.44	364
1473.62	376
1475.8	380
1477.98	376
1480.16	372
1482.34	364
1484.52	334
1486.7	330
1488.87	320
1491.05	290
1493.23	308
1495.4	320
1497.58	296
1499.75	304
1501.92	290
1504.1	274
1506.27	292
1508.44	276
1510.61	284
1512.78	288
1514.95	268
1517.12	278
1519.28	276
1521.45	280
1523.62	288
1525.78	268
1527.95	292
1530.11	282
1532.28	282
1534.44	310
1536.6	280
1538.76	300
1540.93	284
1543.09	262
1545.25	266
1547.41	290
1549.56	296
1551.72	310
1553.88	300
1556.03	278
1558.19	286
1560.35	294
1562.5	288
1564.65	312
1566.81	300
1568.96	320
1571.11	332
1573.26	376
1575.41	358
1577.56	384
1579.71	420
1581.86	466
1584.01	532
1586.15	546
1588.3	644
1590.45	778
1592.59	876
1594.74	1010
1596.88	1230
1599.02	1376
1601.17	1380
1603.31	1420
1605.45	1366
1607.59	1260
1609.73	1140
1611.87	1024
1614.01	852
1616.14	746
1618.28	622
1620.42	524
1622.55	452
1624.69	408
1626.82	368
1628.96	356
1631.09	328
1633.22	308
1635.36	308
1637.49	288
1639.62	278
1641.75	284
1643.88	268
1646	264
1648.13	256
1650.26	256
1652.39	282
1654.51	246
1656.64	260
1658.76	264
1660.89	256
1663.01	222
1665.13	228
1667.26	238
1669.38	244
1671.5	240
1673.62	226
1675.74	244
1677.86	222
1679.97	268
1682.09	234
1684.21	238
1686.33	250
1688.44	270
1690.56	262
1692.67	262
1694.78	254
1696.9	258
1699.01	262
1701.12	240
1703.23	236
1705.34	256
1707.45	244
1709.56	262
1711.67	246
1713.78	252
1715.88	250
1717.99	236
1720.1	234
1722.2	234
1724.31	226
1726.41	246
1728.51	240
1730.62	226
1732.72	230
1734.82	226
1736.92	240
1739.02	220
1741.12	212
1743.22	224
1745.32	220
1747.42	212
1749.51	230
1751.61	216
1753.7	228
1755.8	224
1757.89	234
1759.99	246
1762.08	228
1764.17	214
1766.26	222
1768.36	216
1770.45	208
1772.54	232
1774.62	218
1776.71	232
1778.8	236
1780.89	224
1782.98	226
1785.06	224
1787.15	224
1789.23	232
1791.32	224
1793.4	222
1795.48	230
1797.56	242
1799.65	226
1801.73	236
1803.81	204
1805.89	222
1807.97	236
1810.04	242
1812.12	226
1814.2	248
1816.28	230
1818.35	220
1820.43	228
1822.5	226
1824.58	212
1826.65	218
1828.72	214
1830.79	236
1832.86	218
1834.94	230
1837.01	206
1839.08	228
1841.15	214
1843.21	212
1845.28	220
1847.35	240
1849.41	214
1851.48	230
1853.55	214
1855.61	232
1857.67	222
1859.74	208
1861.8	212
1863.86	214
1865.92	226
1867.98	206
1870.05	232
1872.1	218
1874.16	224
1876.22	206
1878.28	222
1880.34	236
1882.39	206
1884.45	220
1886.5	240
1888.56	222
1890.61	226
1892.67	244
1894.72	218
1896.77	226
1898.82	224
1900.87	234
1902.92	232
1904.97	220
1907.02	224
1909.07	214
1911.12	230
1913.17	230
1915.21	222
1917.26	208
1919.3	216
1921.35	214
1923.39	216
1925.43	226
1927.48	224
1929.52	216
1931.56	216
1933.6	218
1935.64	228
1937.68	238
1939.72	216
1941.76	206
1943.8	230
1945.83	234
1947.87	228
1949.91	240
1951.94	220
1953.98	216
1956.01	214
1958.05	208
1960.08	228
1962.11	218
1964.14	214
1966.17	238
1968.2	214
1970.23	224
1972.26	222
1974.29	226
1976.32	220
1978.35	224
1980.37	216
1982.4	212
1984.43	228
1986.45	238
1988.48	226
1990.5	222
1992.52	210
1994.55	220
1996.57	218
1998.59	254
2000.61	230
2002.63	232
2004.65	224
2006.67	220
2008.69	222
2010.7	234
2012.72	212
2014.74	234
2016.75	230
2018.77	220
2020.78	230
2022.8	228
2024.81	238
2026.83	210
2028.84	210
2030.85	228
2032.86	208
2034.87	212
2036.88	228
2038.89	220
2040.9	224
2042.91	220
2044.91	210
2046.92	238
2048.93	232
2050.93	210
2052.94	222
2054.94	206
2056.95	218
2058.95	208
2060.95	232
2062.95	216
2064.96	224
2066.96	216
2068.96	222
2070.96	212
2072.96	226
2074.95	222
2076.95	216
2078.95	232
2080.95	214
2082.94	216
2084.94	212
2086.93	222
2088.93	220
2090.92	212
2092.91	218
2094.91	224
2096.9	224
2098.89	216
2100.88	214
2102.87	218
2104.86	208
2106.85	220
2108.84	218
2110.83	200
2112.81	210
2114.8	214
2116.78	222
2118.77	240
2120.75	208
2122.74	216
2124.72	222
2126.71	236
2128.69	212
2130.67	240
2132.65	216
2134.63	214
2136.61	230
2138.59	216
2140.57	232
2142.55	212
2144.53	222
2146.5	216
2148.48	234
2150.46	210
2152.43	204
2154.41	226
2156.38	228
2158.35	218
2160.33	222
2162.3	220
2164.27	214
2166.24	228
2168.21	190
2170.18	226
2172.15	226
2174.12	222
2176.09	222
2178.06	216
2180.03	220
2181.99	220
2183.96	208
2185.92	226
2187.89	206
2189.85	224
2191.82	216
2193.78	218
2195.74	208
2197.7	224
2199.67	226
2201.63	214
2203.59	212
2205.55	218
2207.51	220
2209.46	224
2211.42	198
2213.38	228
2215.34	234
2217.29	224
2219.25	220
2221.2	208
2223.16	232
2225.11	212
2227.06	216
2229.02	218
2230.97	220
2232.92	212
2234.87	214
2236.82	204
2238.77	210
2240.72	232
2242.67	234
2244.62	214
2246.57	226
2248.51	224
2250.46	224
2252.4	212
2254.35	218
2256.29	228
2258.24	220
2260.18	218
2262.13	230
2264.07	224
2266.01	216
2267.95	230
2269.89	226
2271.83	218
2273.77	214
2275.71	214
2277.65	216
2279.58	230
2281.52	226
2283.46	228
2285.4	220
2287.33	212
2289.27	234
2291.2	222
2293.13	236
2295.07	216
2297	208
2298.93	222
2300.86	240
2302.79	212
2304.72	206
2306.65	220
2308.58	216
2310.51	232
2312.44	222
2314.37	222
2316.29	234
2318.22	226
2320.15	248
2322.07	236
2324	228
2325.92	226
2327.84	224
2329.77	226
2331.69	228
2333.61	224
2335.53	218
2337.45	232
2339.37	220
2341.29	224
2343.21	226
2345.13	220
2347.05	230
2348.97	230
2350.88	228
2352.8	206
2354.71	224
2356.63	202
2358.54	220
2360.46	224
2362.37	224
2364.28	226
2366.2	216
2368.11	232
2370.02	246
2371.93	208
2373.84	216
2375.75	222
2377.66	222
2379.57	246
2381.47	234
2383.38	208
2385.29	222
2387.2	228
2389.1	212
2391.01	218
2392.91	212
2394.81	224
2396.72	224
2398.62	226
2400.52	230
2402.42	230
2404.33	222
2406.23	232
2408.13	234
2410.03	214
2411.92	232
2413.82	246
2415.72	222
2417.62	216
2419.51	224
2421.41	216
2423.31	216
2425.2	236
2427.1	232
2428.99	220
2430.88	220
2432.78	214
2434.67	216
2436.56	200
2438.45	196
2440.34	232
2442.23	220
2444.12	220
2446.01	216
2447.9	234
2449.79	226