File: Jesse_Dataset_v2/Pure Raman/Polypropylene oxide/633nm/ps-ppo-7jan25-0,0000-map2_Y05_X08.txt
182.393	664
184.993	658
187.593	624
190.193	594
192.79	600
195.387	552
197.983	532
200.578	504
203.174	516
205.766	484
208.36	484
210.951	460
213.542	454
216.131	440
218.721	472
221.309	498
223.897	600
226.483	684
229.069	914
231.654	1158
234.238	1214
236.821	1202
239.404	1158
241.984	984
244.566	850
247.145	748
249.723	620
252.302	538
254.878	448
257.455	400
260.03	360
262.604	334
265.178	312
267.75	288
270.322	274
272.893	274
275.463	274
278.032	298
280.601	286
283.168	318
285.734	372
288.301	442
290.866	510
293.429	568
295.992	630
298.556	608
301.117	554
303.677	500
306.236	456
308.795	428
311.354	374
313.911	380
316.467	366
319.022	356
321.577	346
324.13	374
326.684	370
329.236	380
331.787	396
334.337	400
336.887	424
339.435	368
341.983	346
344.529	356
347.075	352
349.621	334
352.165	360
354.708	356
357.251	360
359.793	340
362.334	336
364.874	312
367.413	328
369.951	326
372.489	326
375.026	324
377.562	318
380.097	270
382.631	280
385.164	270
387.697	236
390.229	248
392.76	226
395.29	218
397.819	234
400.346	238
402.873	224
405.4	256
407.926	246
410.451	294
412.976	362
415.499	352
418.02	344
420.542	286
423.063	270
425.583	252
428.101	222
430.619	204
433.137	210
435.654	190
438.169	194
440.684	176
443.198	170
445.712	170
448.223	156
450.735	170
453.246	168
455.755	176
458.264	156
460.771	178
463.279	200
465.786	204
468.291	234
470.796	286
473.301	294
475.803	358
478.306	400
480.807	446
483.308	484
485.807	510
488.307	430
490.804	362
493.302	318
495.798	264
498.294	224
500.788	202
503.283	206
505.775	218
508.269	232
510.759	316
513.251	366
515.74	394
518.23	298
520.718	286
523.204	298
525.692	316
528.177	384
530.663	482
533.147	592
535.629	690
538.113	776
540.594	776
543.074	694
545.555	576
548.034	432
550.512	390
552.989	384
555.467	396
557.942	500
560.417	680
562.892	990
565.365	1646
567.838	2636
570.309	3692
572.78	3676
575.251	2626
577.72	1500
580.189	912
582.656	684
585.123	632
587.589	584
590.055	552
592.52	506
594.983	452
597.446	448
599.908	358
602.369	298
604.829	278
607.289	232
609.747	214
612.205	202
614.663	184
617.119	226
619.574	218
622.029	252
624.483	268
626.936	252
629.389	282
631.84	304
634.291	304
636.741	318
639.19	300
641.639	276
644.086	272
646.533	254
648.979	242
651.424	198
653.869	186
656.313	188
658.754	170
661.196	170
663.638	180
666.078	166
668.518	160
670.957	164
673.394	162
675.831	148
678.268	174
680.703	160
683.137	160
685.571	158
688.005	180
690.437	162
692.868	178
695.299	172
697.729	154
700.159	168
702.586	166
705.014	174
707.441	188
709.866	192
712.292	204
714.716	232
717.14	264
719.563	208
721.984	192
724.406	184
726.825	202
729.246	194
731.665	184
734.082	196
736.5	200
738.916	220
741.332	230
743.746	260
746.161	322
748.574	314
750.987	286
753.398	300
755.81	280
758.219	254
760.629	192
763.037	190
765.445	188
767.852	184
770.258	196
772.664	192
775.068	194
777.472	200
779.876	210
782.278	210
784.679	212
787.08	196
789.48	192
791.879	178
794.278	194
796.675	184
799.072	174
801.467	194
803.864	194
806.258	194
808.651	198
811.044	202
813.437	196
815.828	198
818.218	222
820.608	222
822.997	260
825.385	356
827.773	478
830.16	780
832.546	1168
834.931	1098
837.315	656
839.699	372
842.081	302
844.463	254
846.844	252
849.226	262
851.606	262
853.985	234
856.363	238
858.741	234
861.117	226
863.493	208
865.868	208
868.243	186
870.616	190
872.989	210
875.36	198
877.731	180
880.102	188
882.472	176
884.841	186
887.209	180
889.577	190
891.944	172
894.31	160
896.674	174
899.039	172
901.403	170
903.766	166
906.128	172
908.49	170
910.849	178
913.209	180
915.569	172
917.927	162
920.284	174
922.641	174
924.997	168
927.353	188
929.707	182
932.061	206
934.414	212
936.765	196
939.117	210
941.469	222
943.818	232
946.167	274
948.515	336
950.863	412
953.211	510
955.556	658
957.902	832
960.246	938
962.59	850
964.933	758
967.276	630
969.617	518
971.958	426
974.298	378
976.638	294
978.976	262
981.314	234
983.651	226
985.988	218
988.323	232
990.659	226
992.992	218
995.325	226
997.658	190
999.99	192
1002.32	202
1004.65	198
1006.98	202
1009.31	194
1011.64	202
1013.97	200
1016.29	228
1018.62	212
1020.94	230
1023.27	242
1025.59	256
1027.91	278
1030.24	270
1032.56	264
1034.88	270
1037.2	276
1039.52	274
1041.84	234
1044.15	230
1046.47	228
1048.79	226
1051.1	210
1053.42	178
1055.73	196
1058.04	192
1060.36	192
1062.67	196
1064.98	192
1067.29	188
1069.6	186
1071.91	212
1074.22	180
1076.52	202
1078.83	186
1081.14	210
1083.44	198
1085.75	194
1088.05	204
1090.35	200
1092.65	204
1094.95	206
1097.26	208
1099.56	222
1101.86	238
1104.15	284
1106.45	346
1108.75	560
1111.05	816
1113.34	924
1115.64	736
1117.93	510
1120.22	376
1122.52	294
1124.81	318
1127.1	268
1129.39	244
1131.68	242
1133.97	238
1136.26	236
1138.54	246
1140.83	242
1143.12	246
1145.4	232
1147.69	198
1149.97	232
1152.25	216
1154.54	220
1156.82	244
1159.1	266
1161.38	276
1163.66	268
1165.94	266
1168.22	234
1170.49	258
1172.77	266
1175.05	278
1177.32	294
1179.6	364
1181.87	436
1184.14	556
1186.42	614
1188.69	610
1190.96	522
1193.23	458
1195.5	426
1197.77	430
1200.03	444
1202.3	454
1204.57	480
1206.83	408
1209.1	346
1211.36	306
1213.63	272
1215.89	258
1218.15	260
1220.41	250
1222.67	238
1224.93	282
1227.19	310
1229.45	318
1231.71	342
1233.97	324
1236.22	276
1238.48	242
1240.73	228
1242.99	206
1245.24	230
1247.5	216
1249.75	222
1252	236
1254.25	212
1256.5	218
1258.75	236
1261	234
1263.25	242
1265.49	238
1267.74	232
1269.99	256
1272.23	240
1274.48	260
1276.72	270
1278.96	302
1281.21	316
1283.45	346
1285.69	374
1287.93	386
1290.17	432
1292.41	486
1294.64	610
1296.88	766
1299.12	1062
1301.36	1516
1303.59	2026
1305.82	2176
1308.06	1834
1310.29	1354
1312.52	940
1314.76	718
1316.99	600
1319.22	554
1321.45	502
1323.68	474
1325.9	458
1328.13	444
1330.36	432
1332.58	392
1334.81	360
1337.04	352
1339.26	338
1341.48	324
1343.71	350
1345.93	362
1348.15	406
1350.37	402
1352.59	366
1354.81	342
1357.03	326
1359.24	322
1361.46	280
1363.68	312
1365.89	314
1368.11	340
1370.32	398
1372.54	550
1374.75	750
1376.96	986
1379.17	1100
1381.38	1010
1383.59	928
1385.8	694
1388.01	534
1390.22	372
1392.43	318
1394.63	278
1396.84	284
1399.05	248
1401.25	266
1403.45	260
1405.66	268
1407.86	270
1410.06	284
1412.26	290
1414.46	280
1416.66	304
1418.86	316
1421.06	374
1423.26	406
1425.46	378
1427.65	406
1429.85	440
1432.04	462
1434.24	470
1436.43	472
1438.62	506
1440.82	532
1443.01	502
1445.2	470
1447.39	432
1449.58	438
1451.77	408
1453.95	382
1456.14	388
1458.33	370
1460.52	396
1462.7	358
1464.89	362
1467.07	368
1469.25	352
1471.44	350
1473.62	352
1475.8	356
1477.98	342
1480.16	346
1482.34	328
1484.52	310
1486.7	318
1488.87	316
1491.05	306
1493.23	268
1495.4	290
1497.58	268
1499.75	270
1501.92	280
1504.1	266
1506.27	288
1508.44	296
1510.61	276
1512.78	250
1514.95	268
1517.12	258
1519.28	272
1521.45	272
1523.62	274
1525.78	260
1527.95	268
1530.11	270
1532.28	278
1534.44	268
1536.6	258
1538.76	262
1540.93	274
1543.09	272
1545.25	270
1547.41	282
1549.56	270
1551.72	278
1553.88	282
1556.03	286
1558.19	268
1560.35	300
1562.5	296
1564.65	308
1566.81	300
1568.96	312
1571.11	310
1573.26	348
1575.41	396
1577.56	376
1579.71	414
1581.86	462
1584.01	504
1586.15	558
1588.3	642
1590.45	770
1592.59	888
1594.74	1016
1596.88	1210
1599.02	1336
1601.17	1466
1603.31	1514
1605.45	1358
1607.59	1282
1609.73	1152
1611.87	1008
1614.01	864
1616.14	742
1618.28	626
1620.42	526
1622.55	464
1624.69	402
1626.82	374
1628.96	330
1631.09	310
1633.22	300
1635.36	276
1637.49	262
1639.62	262
1641.75	266
1643.88	254
1646	236
1648.13	254
1650.26	244
1652.39	244
1654.51	232
1656.64	228
1658.76	228
1660.89	230
1663.01	216
1665.13	234
1667.26	228
1669.38	236
1671.5	216
1673.62	238
1675.74	234
1677.86	226
1679.97	218
1682.09	234
1684.21	248
1686.33	232
1688.44	228
1690.56	242
1692.67	252
1694.78	240
1696.9	248
1699.01	250
1701.12	228
1703.23	238
1705.34	244
1707.45	250
1709.56	228
1711.67	244
1713.78	232
1715.88	224
1717.99	236
1720.1	218
1722.2	228
1724.31	212
1726.41	200
1728.51	204
1730.62	222
1732.72	214
1734.82	202
1736.92	206
1739.02	200
1741.12	204
1743.22	202
1745.32	202
1747.42	212
1749.51	200
1751.61	212
1753.7	202
1755.8	204
1757.89	194
1759.99	214
1762.08	214
1764.17	202
1766.26	212
1768.36	224
1770.45	220
1772.54	200
1774.62	210
1776.71	216
1778.8	210
1780.89	212
1782.98	204
1785.06	212
1787.15	230
1789.23	194
1791.32	198
1793.4	222
1795.48	210
1797.56	210
1799.65	210
1801.73	206
1803.81	206
1805.89	226
1807.97	200
1810.04	212
1812.12	202
1814.2	200
1816.28	214
1818.35	206
1820.43	196
1822.5	194
1824.58	208
1826.65	204
1828.72	212
1830.79	202
1832.86	214
1834.94	212
1837.01	190
1839.08	230
1841.15	196
1843.21	196
1845.28	194
1847.35	204
1849.41	194
1851.48	192
1853.55	222
1855.61	214
1857.67	194
1859.74	198
1861.8	218
1863.86	208
1865.92	218
1867.98	200
1870.05	208
1872.1	212
1874.16	212
1876.22	216
1878.28	200
1880.34	220
1882.39	214
1884.45	208
1886.5	200
1888.56	206
1890.61	202
1892.67	212
1894.72	204
1896.77	218
1898.82	208
1900.87	214
1902.92	204
1904.97	216
1907.02	208
1909.07	212
1911.12	186
1913.17	212
1915.21	204
1917.26	206
1919.3	196
1921.35	210
1923.39	204
1925.43	196
1927.48	216
1929.52	186
1931.56	222
1933.6	206
1935.64	202
1937.68	212
1939.72	220
1941.76	206
1943.8	230
1945.83	200
1947.87	206
1949.91	206
1951.94	186
1953.98	206
1956.01	182
1958.05	200
1960.08	214
1962.11	200
1964.14	192
1966.17	204
1968.2	208
1970.23	206
1972.26	210
1974.29	208
1976.32	204
1978.35	202
1980.37	200
1982.4	192
1984.43	212
1986.45	208
1988.48	206
1990.5	222
1992.52	198
1994.55	210
1996.57	210
1998.59	206
2000.61	210
2002.63	210
2004.65	204
2006.67	210
2008.69	204
2010.7	216
2012.72	200
2014.74	212
2016.75	218
2018.77	214
2020.78	198
2022.8	210
2024.81	198
2026.83	210
2028.84	198
2030.85	198
2032.86	208
2034.87	196
2036.88	202
2038.89	212
2040.9	194
2042.91	206
2044.91	216
2046.92	216
2048.93	208
2050.93	196
2052.94	204
2054.94	210
2056.95	200
2058.95	206
2060.95	200
2062.95	210
2064.96	214
2066.96	228
2068.96	194
2070.96	196
2072.96	194
2074.95	224
2076.95	196
2078.95	196
2080.95	208
2082.94	212
2084.94	212
2086.93	194
2088.93	184
2090.92	198
2092.91	200
2094.91	192
2096.9	216
2098.89	206
2100.88	198
2102.87	204
2104.86	208
2106.85	200
2108.84	218
2110.83	214
2112.81	202
2114.8	198
2116.78	220
2118.77	196
2120.75	208
2122.74	212
2124.72	202
2126.71	202
2128.69	206
2130.67	204
2132.65	226
2134.63	208
2136.61	208
2138.59	230
2140.57	208
2142.55	214
2144.53	216
2146.5	212
2148.48	230
2150.46	206
2152.43	216
2154.41	216
2156.38	192
2158.35	192
2160.33	200
2162.3	204
2164.27	214
2166.24	200
2168.21	206
2170.18	208
2172.15	210
2174.12	206
2176.09	220
2178.06	190
2180.03	206
2181.99	202
2183.96	200
2185.92	206
2187.89	208
2189.85	206
2191.82	208
2193.78	222
2195.74	196
2197.7	206
2199.67	192
2201.63	200
2203.59	200
2205.55	200
2207.51	220
2209.46	196
2211.42	208
2213.38	196
2215.34	218
2217.29	200
2219.25	202
2221.2	212
2223.16	208
2225.11	212
2227.06	210
2229.02	196
2230.97	200
2232.92	216
2234.87	208
2236.82	186
2238.77	210
2240.72	214
2242.67	206
2244.62	204
2246.57	184
2248.51	204
2250.46	198
2252.4	200
2254.35	206
2256.29	204
2258.24	212
2260.18	218
2262.13	212
2264.07	204
2266.01	204
2267.95	208
2269.89	220
2271.83	208
2273.77	210
2275.71	206
2277.65	214
2279.58	204
2281.52	224
2283.46	210
2285.4	198
2287.33	202
2289.27	222
2291.2	208
2293.13	198
2295.07	200
2297	204
2298.93	220
2300.86	208
2302.79	204
2304.72	216
2306.65	204
2308.58	212
2310.51	204
2312.44	188
2314.37	212
2316.29	222
2318.22	236
2320.15	226
2322.07	230
2324	208
2325.92	220
2327.84	210
2329.77	200
2331.69	214
2333.61	214
2335.53	216
2337.45	218
2339.37	228
2341.29	208
2343.21	202
2345.13	222
2347.05	216
2348.97	198
2350.88	198
2352.8	194
2354.71	196
2356.63	206
2358.54	232
2360.46	212
2362.37	196
2364.28	202
2366.2	214
2368.11	220
2370.02	218
2371.93	212
2373.84	226
2375.75	222
2377.66	226
2379.57	220
2381.47	218
2383.38	208
2385.29	204
2387.2	204
2389.1	220
2391.01	222
2392.91	222
2394.81	208
2396.72	212
2398.62	212
2400.52	212
2402.42	224
2404.33	206
2406.23	224
2408.13	218
2410.03	214
2411.92	214
2413.82	218
2415.72	200
2417.62	208
2419.51	206
2421.41	196
2423.31	220
2425.2	202
2427.1	210
2428.99	206
2430.88	200
2432.78	200
2434.67	216
2436.56	190
2438.45	194
2440.34	216
2442.23	222
2444.12	208
2446.01	222
2447.9	208
2449.79	208