File: Jesse_Dataset_v2/Pure Raman/Polypropylene oxide/633nm/ps-ppo-7jan25-0,0000-map2_Y08_X10.txt
182.393	674
184.993	644
187.593	604
190.193	622
192.79	602
195.387	584
197.983	554
200.578	536
203.174	518
205.766	488
208.36	508
210.951	466
213.542	440
216.131	438
218.721	464
221.309	494
223.897	566
226.483	712
229.069	878
231.654	1122
234.238	1260
236.821	1218
239.404	1110
241.984	1002
244.566	862
247.145	706
249.723	648
252.302	540
254.878	480
257.455	412
260.03	370
262.604	326
265.178	314
267.75	308
270.322	308
272.893	288
275.463	298
278.032	298
280.601	308
283.168	332
285.734	362
288.301	466
290.866	504
293.429	584
295.992	608
298.556	594
301.117	564
303.677	510
306.236	432
308.795	448
311.354	398
313.911	384
316.467	386
319.022	358
321.577	358
324.13	366
326.684	376
329.236	390
331.787	432
334.337	414
336.887	426
339.435	404
341.983	356
344.529	362
347.075	344
349.621	342
352.165	344
354.708	354
357.251	360
359.793	346
362.334	332
364.874	352
367.413	322
369.951	316
372.489	320
375.026	352
377.562	316
380.097	298
382.631	266
385.164	272
387.697	258
390.229	258
392.76	258
395.29	238
397.819	244
400.346	242
402.873	246
405.4	254
407.926	286
410.451	324
412.976	362
415.499	358
418.02	338
420.542	316
423.063	302
425.583	276
428.101	238
430.619	232
433.137	202
435.654	220
438.169	214
440.684	184
443.198	186
445.712	176
448.223	190
450.735	200
453.246	182
455.755	196
458.264	222
460.771	200
463.279	222
465.786	216
468.291	254
470.796	276
473.301	314
475.803	346
478.306	364
480.807	466
483.308	476
485.807	510
488.307	456
490.804	362
493.302	322
495.798	278
498.294	252
500.788	230
503.283	226
505.775	236
508.269	254
510.759	312
513.251	420
515.74	382
518.23	322
520.718	304
523.204	314
525.692	338
528.177	388
530.663	472
533.147	590
535.629	676
538.113	734
540.594	750
543.074	706
545.555	568
548.034	440
550.512	402
552.989	388
555.467	422
557.942	498
560.417	662
562.892	966
565.365	1554
567.838	2488
570.309	3552
572.78	3664
575.251	2488
577.72	1558
580.189	922
582.656	696
585.123	626
587.589	598
590.055	558
592.52	538
594.983	498
597.446	448
599.908	424
602.369	322
604.829	298
607.289	260
609.747	218
612.205	234
614.663	250
617.119	254
619.574	224
622.029	234
624.483	286
626.936	272
629.389	282
631.84	316
634.291	332
636.741	344
639.19	322
641.639	302
644.086	286
646.533	242
648.979	258
651.424	222
653.869	212
656.313	230
658.754	216
661.196	212
663.638	208
666.078	206
668.518	188
670.957	184
673.394	196
675.831	178
678.268	180
680.703	182
683.137	170
685.571	190
688.005	186
690.437	190
692.868	178
695.299	188
697.729	188
700.159	188
702.586	206
705.014	200
707.441	216
709.866	232
712.292	240
714.716	260
717.14	270
719.563	242
721.984	234
724.406	214
726.825	204
729.246	230
731.665	228
734.082	234
736.5	244
738.916	248
741.332	246
743.746	272
746.161	326
748.574	338
750.987	324
753.398	302
755.81	300
758.219	262
760.629	228
763.037	220
765.445	226
767.852	246
770.258	216
772.664	228
775.068	240
777.472	246
779.876	230
782.278	244
784.679	236
787.08	212
789.48	224
791.879	220
794.278	208
796.675	210
799.072	202
801.467	224
803.864	216
806.258	226
808.651	246
811.044	238
813.437	250
815.828	232
818.218	226
820.608	242
822.997	296
825.385	352
827.773	468
830.16	794
832.546	1128
834.931	1116
837.315	658
839.699	418
842.081	326
844.463	298
846.844	272
849.226	278
851.606	262
853.985	270
856.363	246
858.741	258
861.117	258
863.493	218
865.868	214
868.243	238
870.616	220
872.989	194
875.36	212
877.731	228
880.102	200
882.472	200
884.841	198
887.209	194
889.577	200
891.944	210
894.31	194
896.674	208
899.039	202
901.403	202
903.766	214
906.128	186
908.49	214
910.849	208
913.209	192
915.569	204
917.927	200
920.284	190
922.641	224
924.997	224
927.353	202
929.707	218
932.061	200
934.414	210
936.765	220
939.117	228
941.469	254
943.818	292
946.167	298
948.515	348
950.863	414
953.211	532
955.556	668
957.902	812
960.246	936
962.59	870
964.933	778
967.276	644
969.617	496
971.958	456
974.298	382
976.638	324
978.976	276
981.314	260
983.651	256
985.988	246
988.323	242
990.659	246
992.992	254
995.325	248
997.658	236
999.99	208
1002.32	218
1004.65	204
1006.98	216
1009.31	222
1011.64	234
1013.97	242
1016.29	224
1018.62	236
1020.94	256
1023.27	270
1025.59	278
1027.91	278
1030.24	306
1032.56	296
1034.88	316
1037.2	324
1039.52	314
1041.84	288
1044.15	282
1046.47	274
1048.79	238
1051.1	242
1053.42	240
1055.73	222
1058.04	228
1060.36	228
1062.67	216
1064.98	232
1067.29	236
1069.6	216
1071.91	232
1074.22	228
1076.52	238
1078.83	230
1081.14	222
1083.44	236
1085.75	232
1088.05	220
1090.35	246
1092.65	236
1094.95	252
1097.26	264
1099.56	258
1101.86	270
1104.15	308
1106.45	406
1108.75	564
1111.05	828
1113.34	922
1115.64	738
1117.93	514
1120.22	378
1122.52	342
1124.81	288
1127.1	286
1129.39	296
1131.68	270
1133.97	282
1136.26	284
1138.54	258
1140.83	284
1143.12	290
1145.4	262
1147.69	246
1149.97	230
1152.25	242
1154.54	262
1156.82	266
1159.1	292
1161.38	308
1163.66	320
1165.94	286
1168.22	282
1170.49	264
1172.77	274
1175.05	306
1177.32	338
1179.6	376
1181.87	438
1184.14	580
1186.42	674
1188.69	610
1190.96	536
1193.23	462
1195.5	448
1197.77	452
1200.03	482
1202.3	476
1204.57	478
1206.83	432
1209.1	392
1211.36	316
1213.63	276
1215.89	288
1218.15	260
1220.41	270
1222.67	280
1224.93	300
1227.19	348
1229.45	368
1231.71	378
1233.97	330
1236.22	294
1238.48	286
1240.73	274
1242.99	252
1245.24	248
1247.5	240
1249.75	266
1252	252
1254.25	248
1256.5	258
1258.75	260
1261	274
1263.25	264
1265.49	254
1267.74	278
1269.99	264
1272.23	290
1274.48	284
1276.72	300
1278.96	332
1281.21	356
1283.45	412
1285.69	436
1287.93	438
1290.17	466
1292.41	506
1294.64	600
1296.88	766
1299.12	1072
1301.36	1532
1303.59	1976
1305.82	2150
1308.06	1822
1310.29	1342
1312.52	976
1314.76	744
1316.99	624
1319.22	564
1321.45	532
1323.68	504
1325.9	508
1328.13	482
1330.36	460
1332.58	432
1334.81	422
1337.04	362
1339.26	360
1341.48	372
1343.71	378
1345.93	376
1348.15	366
1350.37	428
1352.59	412
1354.81	400
1357.03	402
1359.24	352
1361.46	360
1363.68	342
1365.89	342
1368.11	382
1370.32	418
1372.54	584
1374.75	746
1376.96	928
1379.17	1044
1381.38	1086
1383.59	938
1385.8	690
1388.01	562
1390.22	420
1392.43	364
1394.63	316
1396.84	314
1399.05	308
1401.25	308
1403.45	308
1405.66	286
1407.86	308
1410.06	298
1412.26	342
1414.46	334
1416.66	326
1418.86	370
1421.06	392
1423.26	412
1425.46	418
1427.65	428
1429.85	452
1432.04	454
1434.24	486
1436.43	512
1438.62	516
1440.82	538
1443.01	516
1445.2	486
1447.39	454
1449.58	464
1451.77	422
1453.95	428
1456.14	394
1458.33	386
1460.52	418
1462.7	390
1464.89	398
1467.07	390
1469.25	400
1471.44	382
1473.62	392
1475.8	384
1477.98	380
1480.16	360
1482.34	368
1484.52	348
1486.7	332
1488.87	322
1491.05	326
1493.23	326
1495.4	320
1497.58	332
1499.75	320
1501.92	298
1504.1	322
1506.27	318
1508.44	312
1510.61	304
1512.78	302
1514.95	306
1517.12	326
1519.28	296
1521.45	310
1523.62	292
1525.78	306
1527.95	296
1530.11	306
1532.28	306
1534.44	308
1536.6	294
1538.76	296
1540.93	290
1543.09	308
1545.25	306
1547.41	312
1549.56	318
1551.72	314
1553.88	290
1556.03	322
1558.19	304
1560.35	328
1562.5	308
1564.65	312
1566.81	328
1568.96	362
1571.11	356
1573.26	356
1575.41	388
1577.56	398
1579.71	468
1581.86	474
1584.01	526
1586.15	598
1588.3	670
1590.45	806
1592.59	908
1594.74	1038
1596.88	1174
1599.02	1352
1601.17	1442
1603.31	1436
1605.45	1406
1607.59	1264
1609.73	1128
1611.87	1004
1614.01	892
1616.14	772
1618.28	652
1620.42	546
1622.55	468
1624.69	424
1626.82	370
1628.96	360
1631.09	356
1633.22	330
1635.36	292
1637.49	278
1639.62	314
1641.75	280
1643.88	274
1646	298
1648.13	276
1650.26	278
1652.39	254
1654.51	266
1656.64	274
1658.76	268
1660.89	284
1663.01	278
1665.13	244
1667.26	254
1669.38	260
1671.5	258
1673.62	246
1675.74	264
1677.86	258
1679.97	262
1682.09	266
1684.21	258
1686.33	274
1688.44	246
1690.56	260
1692.67	272
1694.78	300
1696.9	264
1699.01	284
1701.12	260
1703.23	266
1705.34	262
1707.45	272
1709.56	254
1711.67	274
1713.78	264
1715.88	256
1717.99	246
1720.1	278
1722.2	262
1724.31	256
1726.41	244
1728.51	244
1730.62	254
1732.72	248
1734.82	240
1736.92	248
1739.02	240
1741.12	232
1743.22	246
1745.32	238
1747.42	226
1749.51	250
1751.61	262
1753.7	262
1755.8	254
1757.89	232
1759.99	252
1762.08	260
1764.17	246
1766.26	250
1768.36	242
1770.45	242
1772.54	218
1774.62	230
1776.71	236
1778.8	234
1780.89	232
1782.98	242
1785.06	238
1787.15	244
1789.23	236
1791.32	222
1793.4	216
1795.48	244
1797.56	240
1799.65	254
1801.73	226
1803.81	242
1805.89	254
1807.97	248
1810.04	224
1812.12	222
1814.2	242
1816.28	232
1818.35	236
1820.43	240
1822.5	228
1824.58	232
1826.65	242
1828.72	226
1830.79	254
1832.86	244
1834.94	226
1837.01	234
1839.08	236
1841.15	246
1843.21	234
1845.28	216
1847.35	232
1849.41	218
1851.48	244
1853.55	232
1855.61	224
1857.67	234
1859.74	250
1861.8	240
1863.86	232
1865.92	228
1867.98	240
1870.05	234
1872.1	232
1874.16	244
1876.22	238
1878.28	248
1880.34	240
1882.39	250
1884.45	246
1886.5	238
1888.56	228
1890.61	234
1892.67	220
1894.72	238
1896.77	236
1898.82	240
1900.87	226
1902.92	246
1904.97	246
1907.02	234
1909.07	260
1911.12	246
1913.17	218
1915.21	248
1917.26	234
1919.3	248
1921.35	248
1923.39	232
1925.43	230
1927.48	236
1929.52	236
1931.56	254
1933.6	236
1935.64	248
1937.68	248
1939.72	236
1941.76	220
1943.8	236
1945.83	242
1947.87	228
1949.91	240
1951.94	248
1953.98	230
1956.01	234
1958.05	246
1960.08	242
1962.11	226
1964.14	238
1966.17	250
1968.2	240
1970.23	214
1972.26	236
1974.29	236
1976.32	236
1978.35	222
1980.37	246
1982.4	246
1984.43	256
1986.45	234
1988.48	252
1990.5	216
1992.52	232
1994.55	262
1996.57	228
1998.59	236
2000.61	246
2002.63	228
2004.65	222
2006.67	238
2008.69	220
2010.7	230
2012.72	222
2014.74	234
2016.75	230
2018.77	246
2020.78	254
2022.8	236
2024.81	234
2026.83	244
2028.84	252
2030.85	232
2032.86	246
2034.87	248
2036.88	236
2038.89	220
2040.9	234
2042.91	232
2044.91	240
2046.92	232
2048.93	230
2050.93	238
2052.94	234
2054.94	224
2056.95	250
2058.95	238
2060.95	224
2062.95	234
2064.96	238
2066.96	238
2068.96	242
2070.96	248
2072.96	252
2074.95	238
2076.95	228
2078.95	222
2080.95	238
2082.94	246
2084.94	240
2086.93	234
2088.93	222
2090.92	234
2092.91	234
2094.91	252
2096.9	220
2098.89	240
2100.88	222
2102.87	250
2104.86	220
2106.85	242
2108.84	240
2110.83	228
2112.81	240
2114.8	236
2116.78	236
2118.77	234
2120.75	224
2122.74	234
2124.72	206
2126.71	244
2128.69	240
2130.67	222
2132.65	232
2134.63	224
2136.61	226
2138.59	236
2140.57	228
2142.55	248
2144.53	208
2146.5	218
2148.48	220
2150.46	226
2152.43	232
2154.41	236
2156.38	224
2158.35	232
2160.33	238
2162.3	224
2164.27	256
2166.24	244
2168.21	238
2170.18	260
2172.15	232
2174.12	222
2176.09	234
2178.06	240
2180.03	242
2181.99	240
2183.96	260
2185.92	224
2187.89	236
2189.85	220
2191.82	246
2193.78	226
2195.74	226
2197.7	220
2199.67	236
2201.63	230
2203.59	232
2205.55	222
2207.51	214
2209.46	240
2211.42	228
2213.38	232
2215.34	216
2217.29	230
2219.25	224
2221.2	234
2223.16	224
2225.11	236
2227.06	232
2229.02	232
2230.97	236
2232.92	234
2234.87	218
2236.82	238
2238.77	230
2240.72	230
2242.67	214
2244.62	234
2246.57	238
2248.51	234
2250.46	232
2252.4	222
2254.35	234
2256.29	224
2258.24	234
2260.18	244
2262.13	216
2264.07	232
2266.01	228
2267.95	232
2269.89	232
2271.83	230
2273.77	246
2275.71	226
2277.65	214
2279.58	236
2281.52	230
2283.46	232
2285.4	238
2287.33	232
2289.27	202
2291.2	232
2293.13	220
2295.07	228
2297	248
2298.93	232
2300.86	250
2302.79	242
2304.72	224
2306.65	238
2308.58	246
2310.51	236
2312.44	228
2314.37	238
2316.29	254
2318.22	242
2320.15	242
2322.07	234
2324	236
2325.92	220
2327.84	240
2329.77	242
2331.69	244
2333.61	240
2335.53	224
2337.45	244
2339.37	246
2341.29	238
2343.21	246
2345.13	264
2347.05	242
2348.97	244
2350.88	234
2352.8	240
2354.71	208
2356.63	230
2358.54	226
2360.46	238
2362.37	222
2364.28	236
2366.2	248
2368.11	230
2370.02	234
2371.93	204
2373.84	234
2375.75	224
2377.66	204
2379.57	250
2381.47	224
2383.38	236
2385.29	228
2387.2	236
2389.1	226
2391.01	234
2392.91	230
2394.81	246
2396.72	254
2398.62	246
2400.52	246
2402.42	236
2404.33	224
2406.23	246
2408.13	242
2410.03	224
2411.92	216
2413.82	236
2415.72	230
2417.62	220
2419.51	228
2421.41	216
2423.31	222
2425.2	214
2427.1	218
2428.99	220
2430.88	234
2432.78	228
2434.67	214
2436.56	224
2438.45	222
2440.34	224
2442.23	234
2444.12	224
2446.01	222
2447.9	232
2449.79	216