File: Jesse_Dataset_v2/Pure Raman/Polypropylene oxide/633nm/ps-ppo-7jan25-0,0000-map2_Y04_X07.txt
182.393	690
184.993	672
187.593	596
190.193	614
192.79	582
195.387	552
197.983	542
200.578	506
203.174	502
205.766	472
208.36	482
210.951	470
213.542	422
216.131	442
218.721	482
221.309	462
223.897	592
226.483	762
229.069	960
231.654	1128
234.238	1252
236.821	1228
239.404	1116
241.984	982
244.566	834
247.145	730
249.723	642
252.302	538
254.878	468
257.455	400
260.03	344
262.604	314
265.178	304
267.75	270
270.322	282
272.893	268
275.463	256
278.032	286
280.601	288
283.168	300
285.734	364
288.301	450
290.866	508
293.429	590
295.992	616
298.556	586
301.117	538
303.677	480
306.236	456
308.795	416
311.354	386
313.911	376
316.467	370
319.022	354
321.577	328
324.13	368
326.684	356
329.236	358
331.787	382
334.337	382
336.887	392
339.435	354
341.983	368
344.529	342
347.075	308
349.621	300
352.165	344
354.708	348
357.251	336
359.793	336
362.334	320
364.874	306
367.413	308
369.951	316
372.489	312
375.026	320
377.562	298
380.097	294
382.631	244
385.164	234
387.697	230
390.229	240
392.76	234
395.29	206
397.819	220
400.346	222
402.873	214
405.4	242
407.926	258
410.451	288
412.976	352
415.499	364
418.02	328
420.542	288
423.063	256
425.583	234
428.101	244
430.619	184
433.137	194
435.654	194
438.169	182
440.684	156
443.198	162
445.712	168
448.223	158
450.735	164
453.246	164
455.755	138
458.264	162
460.771	170
463.279	166
465.786	186
468.291	212
470.796	258
473.301	294
475.803	310
478.306	370
480.807	418
483.308	460
485.807	496
488.307	426
490.804	332
493.302	292
495.798	242
498.294	220
500.788	218
503.283	222
505.775	196
508.269	218
510.759	312
513.251	374
515.74	338
518.23	300
520.718	284
523.204	288
525.692	304
528.177	386
530.663	452
533.147	552
535.629	692
538.113	758
540.594	756
543.074	692
545.555	544
548.034	426
550.512	344
552.989	350
555.467	410
557.942	464
560.417	660
562.892	970
565.365	1616
567.838	2670
570.309	3686
572.78	3702
575.251	2642
577.72	1474
580.189	924
582.656	680
585.123	596
587.589	582
590.055	530
592.52	488
594.983	496
597.446	430
599.908	364
602.369	294
604.829	258
607.289	222
609.747	206
612.205	188
614.663	192
617.119	214
619.574	204
622.029	194
624.483	222
626.936	236
629.389	278
631.84	278
634.291	308
636.741	282
639.19	292
641.639	262
644.086	250
646.533	228
648.979	220
651.424	200
653.869	182
656.313	190
658.754	190
661.196	164
663.638	180
666.078	164
668.518	156
670.957	150
673.394	154
675.831	128
678.268	144
680.703	148
683.137	136
685.571	150
688.005	154
690.437	146
692.868	148
695.299	152
697.729	150
700.159	140
702.586	146
705.014	170
707.441	162
709.866	186
712.292	194
714.716	220
717.14	212
719.563	188
721.984	184
724.406	182
726.825	190
729.246	172
731.665	194
734.082	184
736.5	186
738.916	206
741.332	226
743.746	240
746.161	284
748.574	318
750.987	304
753.398	278
755.81	270
758.219	224
760.629	224
763.037	182
765.445	180
767.852	178
770.258	180
772.664	176
775.068	186
777.472	198
779.876	214
782.278	200
784.679	184
787.08	166
789.48	198
791.879	170
794.278	174
796.675	178
799.072	170
801.467	178
803.864	180
806.258	174
808.651	178
811.044	196
813.437	176
815.828	182
818.218	208
820.608	208
822.997	248
825.385	316
827.773	480
830.16	782
832.546	1178
834.931	1062
837.315	640
839.699	374
842.081	276
844.463	246
846.844	242
849.226	226
851.606	246
853.985	210
856.363	208
858.741	208
861.117	192
863.493	198
865.868	186
868.243	188
870.616	174
872.989	160
875.36	172
877.731	160
880.102	182
882.472	182
884.841	156
887.209	158
889.577	154
891.944	154
894.31	152
896.674	162
899.039	156
901.403	172
903.766	158
906.128	168
908.49	158
910.849	144
913.209	160
915.569	164
917.927	170
920.284	152
922.641	168
924.997	174
927.353	170
929.707	180
932.061	174
934.414	186
936.765	186
939.117	206
941.469	202
943.818	194
946.167	256
948.515	300
950.863	406
953.211	506
955.556	690
957.902	830
960.246	880
962.59	854
964.933	722
967.276	620
969.617	514
971.958	416
974.298	348
976.638	274
978.976	232
981.314	218
983.651	204
985.988	194
988.323	194
990.659	208
992.992	212
995.325	196
997.658	172
999.99	168
1002.32	180
1004.65	170
1006.98	182
1009.31	170
1011.64	186
1013.97	176
1016.29	202
1018.62	196
1020.94	234
1023.27	220
1025.59	228
1027.91	248
1030.24	234
1032.56	268
1034.88	276
1037.2	264
1039.52	252
1041.84	242
1044.15	220
1046.47	206
1048.79	200
1051.1	200
1053.42	186
1055.73	184
1058.04	188
1060.36	184
1062.67	186
1064.98	178
1067.29	170
1069.6	170
1071.91	176
1074.22	176
1076.52	172
1078.83	178
1081.14	182
1083.44	178
1085.75	184
1088.05	180
1090.35	186
1092.65	198
1094.95	208
1097.26	196
1099.56	198
1101.86	222
1104.15	250
1106.45	368
1108.75	554
1111.05	854
1113.34	868
1115.64	710
1117.93	490
1120.22	370
1122.52	308
1124.81	254
1127.1	262
1129.39	226
1131.68	228
1133.97	224
1136.26	218
1138.54	232
1140.83	232
1143.12	236
1145.4	208
1147.69	198
1149.97	208
1152.25	198
1154.54	200
1156.82	224
1159.1	246
1161.38	242
1163.66	250
1165.94	244
1168.22	226
1170.49	232
1172.77	224
1175.05	238
1177.32	288
1179.6	318
1181.87	450
1184.14	528
1186.42	614
1188.69	614
1190.96	484
1193.23	440
1195.5	398
1197.77	438
1200.03	428
1202.3	434
1204.57	440
1206.83	416
1209.1	346
1211.36	282
1213.63	250
1215.89	248
1218.15	226
1220.41	214
1222.67	222
1224.93	256
1227.19	296
1229.45	320
1231.71	340
1233.97	298
1236.22	264
1238.48	226
1240.73	210
1242.99	200
1245.24	202
1247.5	216
1249.75	188
1252	200
1254.25	194
1256.5	204
1258.75	232
1261	228
1263.25	222
1265.49	226
1267.74	222
1269.99	228
1272.23	224
1274.48	250
1276.72	226
1278.96	276
1281.21	294
1283.45	312
1285.69	358
1287.93	386
1290.17	414
1292.41	474
1294.64	582
1296.88	786
1299.12	1068
1301.36	1570
1303.59	2060
1305.82	2168
1308.06	1842
1310.29	1316
1312.52	910
1314.76	694
1316.99	626
1319.22	518
1321.45	466
1323.68	472
1325.9	448
1328.13	448
1330.36	420
1332.58	384
1334.81	352
1337.04	330
1339.26	320
1341.48	302
1343.71	338
1345.93	330
1348.15	350
1350.37	362
1352.59	336
1354.81	308
1357.03	294
1359.24	294
1361.46	292
1363.68	258
1365.89	294
1368.11	328
1370.32	364
1372.54	544
1374.75	740
1376.96	970
1379.17	1076
1381.38	984
1383.59	882
1385.8	738
1388.01	494
1390.22	366
1392.43	300
1394.63	280
1396.84	266
1399.05	260
1401.25	268
1403.45	254
1405.66	238
1407.86	250
1410.06	256
1412.26	268
1414.46	288
1416.66	300
1418.86	316
1421.06	334
1423.26	364
1425.46	408
1427.65	390
1429.85	406
1432.04	400
1434.24	452
1436.43	450
1438.62	474
1440.82	496
1443.01	468
1445.2	448
1447.39	426
1449.58	386
1451.77	398
1453.95	376
1456.14	362
1458.33	366
1460.52	342
1462.7	338
1464.89	378
1467.07	338
1469.25	350
1471.44	338
1473.62	330
1475.8	324
1477.98	350
1480.16	328
1482.34	314
1484.52	330
1486.7	284
1488.87	290
1491.05	270
1493.23	270
1495.4	258
1497.58	238
1499.75	256
1501.92	242
1504.1	250
1506.27	256
1508.44	260
1510.61	260
1512.78	244
1514.95	242
1517.12	248
1519.28	258
1521.45	228
1523.62	244
1525.78	260
1527.95	254
1530.11	274
1532.28	250
1534.44	236
1536.6	248
1538.76	244
1540.93	242
1543.09	262
1545.25	260
1547.41	242
1549.56	246
1551.72	266
1553.88	256
1556.03	256
1558.19	270
1560.35	276
1562.5	286
1564.65	266
1566.81	282
1568.96	322
1571.11	308
1573.26	314
1575.41	338
1577.56	362
1579.71	388
1581.86	450
1584.01	482
1586.15	540
1588.3	640
1590.45	732
1592.59	838
1594.74	1032
1596.88	1172
1599.02	1292
1601.17	1462
1603.31	1476
1605.45	1362
1607.59	1220
1609.73	1106
1611.87	982
1614.01	868
1616.14	732
1618.28	564
1620.42	494
1622.55	430
1624.69	394
1626.82	330
1628.96	296
1631.09	300
1633.22	282
1635.36	262
1637.49	264
1639.62	238
1641.75	242
1643.88	232
1646	240
1648.13	234
1650.26	226
1652.39	218
1654.51	222
1656.64	210
1658.76	210
1660.89	222
1663.01	222
1665.13	202
1667.26	202
1669.38	202
1671.5	206
1673.62	196
1675.74	192
1677.86	218
1679.97	202
1682.09	202
1684.21	218
1686.33	242
1688.44	206
1690.56	206
1692.67	230
1694.78	216
1696.9	216
1699.01	218
1701.12	224
1703.23	222
1705.34	222
1707.45	210
1709.56	218
1711.67	220
1713.78	210
1715.88	218
1717.99	216
1720.1	210
1722.2	202
1724.31	196
1726.41	210
1728.51	182
1730.62	200
1732.72	182
1734.82	194
1736.92	188
1739.02	206
1741.12	182
1743.22	200
1745.32	192
1747.42	182
1749.51	184
1751.61	184
1753.7	182
1755.8	188
1757.89	174
1759.99	202
1762.08	186
1764.17	194
1766.26	178
1768.36	178
1770.45	192
1772.54	204
1774.62	180
1776.71	188
1778.8	194
1780.89	178
1782.98	188
1785.06	196
1787.15	196
1789.23	178
1791.32	202
1793.4	168
1795.48	198
1797.56	192
1799.65	188
1801.73	184
1803.81	186
1805.89	174
1807.97	188
1810.04	194
1812.12	178
1814.2	192
1816.28	194
1818.35	180
1820.43	182
1822.5	182
1824.58	168
1826.65	190
1828.72	190
1830.79	182
1832.86	192
1834.94	180
1837.01	182
1839.08	174
1841.15	182
1843.21	186
1845.28	160
1847.35	188
1849.41	194
1851.48	168
1853.55	174
1855.61	196
1857.67	188
1859.74	180
1861.8	192
1863.86	184
1865.92	168
1867.98	190
1870.05	182
1872.1	194
1874.16	184
1876.22	192
1878.28	164
1880.34	192
1882.39	184
1884.45	184
1886.5	196
1888.56	172
1890.61	196
1892.67	196
1894.72	192
1896.77	192
1898.82	184
1900.87	194
1902.92	200
1904.97	196
1907.02	188
1909.07	196
1911.12	184
1913.17	198
1915.21	192
1917.26	180
1919.3	196
1921.35	200
1923.39	190
1925.43	200
1927.48	194
1929.52	176
1931.56	212
1933.6	180
1935.64	208
1937.68	200
1939.72	198
1941.76	198
1943.8	202
1945.83	196
1947.87	216
1949.91	190
1951.94	182
1953.98	182
1956.01	176
1958.05	200
1960.08	174
1962.11	184
1964.14	216
1966.17	162
1968.2	196
1970.23	190
1972.26	190
1974.29	184
1976.32	200
1978.35	178
1980.37	190
1982.4	184
1984.43	196
1986.45	174
1988.48	206
1990.5	188
1992.52	196
1994.55	186
1996.57	194
1998.59	190
2000.61	200
2002.63	176
2004.65	192
2006.67	202
2008.69	180
2010.7	180
2012.72	202
2014.74	198
2016.75	186
2018.77	196
2020.78	178
2022.8	188
2024.81	192
2026.83	202
2028.84	182
2030.85	188
2032.86	188
2034.87	190
2036.88	190
2038.89	184
2040.9	212
2042.91	194
2044.91	186
2046.92	182
2048.93	194
2050.93	202
2052.94	204
2054.94	176
2056.95	182
2058.95	182
2060.95	192
2062.95	200
2064.96	204
2066.96	172
2068.96	174
2070.96	190
2072.96	190
2074.95	192
2076.95	186
2078.95	194
2080.95	196
2082.94	196
2084.94	180
2086.93	182
2088.93	184
2090.92	184
2092.91	172
2094.91	192
2096.9	194
2098.89	186
2100.88	184
2102.87	186
2104.86	188
2106.85	184
2108.84	182
2110.83	184
2112.81	186
2114.8	196
2116.78	186
2118.77	176
2120.75	202
2122.74	186
2124.72	172
2126.71	188
2128.69	188
2130.67	198
2132.65	176
2134.63	194
2136.61	176
2138.59	188
2140.57	198
2142.55	182
2144.53	192
2146.5	202
2148.48	180
2150.46	174
2152.43	186
2154.41	208
2156.38	196
2158.35	186
2160.33	202
2162.3	200
2164.27	180
2166.24	188
2168.21	200
2170.18	196
2172.15	200
2174.12	194
2176.09	188
2178.06	182
2180.03	204
2181.99	190
2183.96	194
2185.92	188
2187.89	198
2189.85	192
2191.82	184
2193.78	196
2195.74	174
2197.7	196
2199.67	212
2201.63	158
2203.59	188
2205.55	206
2207.51	186
2209.46	180
2211.42	186
2213.38	186
2215.34	178
2217.29	164
2219.25	206
2221.2	186
2223.16	198
2225.11	178
2227.06	192
2229.02	192
2230.97	190
2232.92	212
2234.87	188
2236.82	182
2238.77	200
2240.72	182
2242.67	184
2244.62	180
2246.57	186
2248.51	186
2250.46	184
2252.4	186
2254.35	192
2256.29	198
2258.24	204
2260.18	186
2262.13	184
2264.07	196
2266.01	196
2267.95	196
2269.89	200
2271.83	190
2273.77	186
2275.71	208
2277.65	204
2279.58	186
2281.52	198
2283.46	196
2285.4	192
2287.33	182
2289.27	186
2291.2	178
2293.13	184
2295.07	192
2297	200
2298.93	178
2300.86	190
2302.79	190
2304.72	206
2306.65	200
2308.58	192
2310.51	194
2312.44	198
2314.37	200
2316.29	200
2318.22	204
2320.15	204
2322.07	206
2324	192
2325.92	178
2327.84	208
2329.77	190
2331.69	186
2333.61	192
2335.53	202
2337.45	184
2339.37	212
2341.29	202
2343.21	202
2345.13	198
2347.05	220
2348.97	182
2350.88	206
2352.8	194
2354.71	196
2356.63	192
2358.54	198
2360.46	192
2362.37	188
2364.28	192
2366.2	188
2368.11	216
2370.02	194
2371.93	190
2373.84	192
2375.75	192
2377.66	198
2379.57	196
2381.47	212
2383.38	202
2385.29	192
2387.2	194
2389.1	184
2391.01	194
2392.91	204
2394.81	208
2396.72	190
2398.62	204
2400.52	186
2402.42	202
2404.33	204
2406.23	204
2408.13	206
2410.03	188
2411.92	210
2413.82	186
2415.72	210
2417.62	202
2419.51	202
2421.41	182
2423.31	192
2425.2	208
2427.1	172
2428.99	210
2430.88	196
2432.78	196
2434.67	188
2436.56	204
2438.45	186
2440.34	190
2442.23	208
2444.12	212
2446.01	198
2447.9	206
2449.79	190