File: Jesse_Dataset_v2/Pure Raman/Polypropylene oxide/633nm/ps-ppo-7jan25-0,0000-map2_Y05_X04.txt
182.393	702
184.993	680
187.593	654
190.193	634
192.79	614
195.387	576
197.983	520
200.578	530
203.174	522
205.766	496
208.36	500
210.951	474
213.542	460
216.131	446
218.721	452
221.309	510
223.897	564
226.483	730
229.069	940
231.654	1170
234.238	1276
236.821	1198
239.404	1092
241.984	1016
244.566	868
247.145	764
249.723	622
252.302	562
254.878	480
257.455	398
260.03	372
262.604	334
265.178	318
267.75	318
270.322	282
272.893	300
275.463	264
278.032	284
280.601	290
283.168	330
285.734	372
288.301	444
290.866	520
293.429	588
295.992	630
298.556	596
301.117	548
303.677	510
306.236	468
308.795	414
311.354	404
313.911	396
316.467	358
319.022	346
321.577	352
324.13	358
326.684	378
329.236	374
331.787	380
334.337	394
336.887	408
339.435	386
341.983	360
344.529	352
347.075	364
349.621	332
352.165	356
354.708	382
357.251	350
359.793	344
362.334	342
364.874	330
367.413	330
369.951	324
372.489	314
375.026	322
377.562	282
380.097	286
382.631	272
385.164	276
387.697	248
390.229	246
392.76	228
395.29	234
397.819	240
400.346	234
402.873	256
405.4	274
407.926	278
410.451	308
412.976	366
415.499	394
418.02	346
420.542	318
423.063	280
425.583	256
428.101	230
430.619	214
433.137	200
435.654	188
438.169	190
440.684	186
443.198	176
445.712	170
448.223	178
450.735	166
453.246	172
455.755	170
458.264	176
460.771	176
463.279	186
465.786	182
468.291	248
470.796	262
473.301	308
475.803	344
478.306	414
480.807	454
483.308	508
485.807	490
488.307	454
490.804	368
493.302	308
495.798	272
498.294	232
500.788	232
503.283	228
505.775	226
508.269	264
510.759	308
513.251	406
515.74	382
518.23	324
520.718	294
523.204	296
525.692	338
528.177	380
530.663	474
533.147	564
535.629	728
538.113	778
540.594	788
543.074	702
545.555	580
548.034	456
550.512	400
552.989	378
555.467	418
557.942	500
560.417	668
562.892	996
565.365	1650
567.838	2706
570.309	3720
572.78	3640
575.251	2654
577.72	1568
580.189	914
582.656	684
585.123	650
587.589	600
590.055	542
592.52	522
594.983	474
597.446	440
599.908	364
602.369	318
604.829	252
607.289	242
609.747	218
612.205	200
614.663	204
617.119	212
619.574	232
622.029	232
624.483	262
626.936	260
629.389	278
631.84	292
634.291	320
636.741	316
639.19	282
641.639	276
644.086	278
646.533	270
648.979	250
651.424	190
653.869	214
656.313	200
658.754	194
661.196	176
663.638	176
666.078	160
668.518	178
670.957	174
673.394	176
675.831	158
678.268	154
680.703	160
683.137	148
685.571	162
688.005	158
690.437	166
692.868	164
695.299	162
697.729	158
700.159	160
702.586	164
705.014	190
707.441	182
709.866	182
712.292	220
714.716	258
717.14	250
719.563	210
721.984	202
724.406	202
726.825	202
729.246	196
731.665	202
734.082	202
736.5	192
738.916	210
741.332	248
743.746	258
746.161	324
748.574	340
750.987	298
753.398	302
755.81	282
758.219	254
760.629	210
763.037	198
765.445	190
767.852	182
770.258	180
772.664	196
775.068	190
777.472	202
779.876	208
782.278	210
784.679	228
787.08	224
789.48	204
791.879	184
794.278	184
796.675	198
799.072	190
801.467	196
803.864	208
806.258	198
808.651	206
811.044	212
813.437	206
815.828	214
818.218	214
820.608	230
822.997	280
825.385	332
827.773	478
830.16	766
832.546	1158
834.931	1096
837.315	642
839.699	378
842.081	298
844.463	276
846.844	250
849.226	262
851.606	256
853.985	242
856.363	238
858.741	230
861.117	208
863.493	212
865.868	202
868.243	182
870.616	194
872.989	186
875.36	190
877.731	202
880.102	180
882.472	172
884.841	180
887.209	188
889.577	178
891.944	192
894.31	170
896.674	170
899.039	162
901.403	174
903.766	168
906.128	174
908.49	178
910.849	170
913.209	166
915.569	170
917.927	168
920.284	170
922.641	168
924.997	166
927.353	188
929.707	190
932.061	186
934.414	198
936.765	200
939.117	210
941.469	222
943.818	256
946.167	294
948.515	322
950.863	416
953.211	538
955.556	698
957.902	864
960.246	932
962.59	898
964.933	774
967.276	636
969.617	526
971.958	438
974.298	390
976.638	284
978.976	264
981.314	250
983.651	218
985.988	210
988.323	218
990.659	232
992.992	240
995.325	204
997.658	204
999.99	216
1002.32	190
1004.65	202
1006.98	196
1009.31	192
1011.64	196
1013.97	188
1016.29	204
1018.62	218
1020.94	234
1023.27	232
1025.59	246
1027.91	280
1030.24	270
1032.56	286
1034.88	272
1037.2	274
1039.52	260
1041.84	280
1044.15	240
1046.47	210
1048.79	226
1051.1	218
1053.42	194
1055.73	202
1058.04	204
1060.36	202
1062.67	186
1064.98	188
1067.29	216
1069.6	204
1071.91	210
1074.22	188
1076.52	200
1078.83	198
1081.14	200
1083.44	194
1085.75	202
1088.05	196
1090.35	196
1092.65	202
1094.95	196
1097.26	210
1099.56	216
1101.86	250
1104.15	276
1106.45	364
1108.75	522
1111.05	824
1113.34	908
1115.64	726
1117.93	506
1120.22	358
1122.52	302
1124.81	264
1127.1	268
1129.39	274
1131.68	246
1133.97	248
1136.26	242
1138.54	252
1140.83	258
1143.12	244
1145.4	226
1147.69	222
1149.97	222
1152.25	212
1154.54	226
1156.82	256
1159.1	262
1161.38	238
1163.66	290
1165.94	270
1168.22	236
1170.49	238
1172.77	236
1175.05	262
1177.32	314
1179.6	352
1181.87	452
1184.14	556
1186.42	612
1188.69	584
1190.96	512
1193.23	434
1195.5	416
1197.77	440
1200.03	420
1202.3	454
1204.57	452
1206.83	428
1209.1	364
1211.36	304
1213.63	266
1215.89	258
1218.15	236
1220.41	226
1222.67	242
1224.93	264
1227.19	306
1229.45	366
1231.71	352
1233.97	314
1236.22	266
1238.48	248
1240.73	244
1242.99	216
1245.24	220
1247.5	208
1249.75	226
1252	216
1254.25	216
1256.5	218
1258.75	226
1261	242
1263.25	244
1265.49	250
1267.74	240
1269.99	242
1272.23	256
1274.48	272
1276.72	278
1278.96	306
1281.21	318
1283.45	366
1285.69	366
1287.93	406
1290.17	436
1292.41	516
1294.64	598
1296.88	726
1299.12	1130
1301.36	1512
1303.59	2070
1305.82	2208
1308.06	1880
1310.29	1324
1312.52	928
1314.76	748
1316.99	642
1319.22	536
1321.45	528
1323.68	448
1325.9	460
1328.13	468
1330.36	452
1332.58	402
1334.81	360
1337.04	326
1339.26	322
1341.48	316
1343.71	346
1345.93	364
1348.15	340
1350.37	382
1352.59	358
1354.81	356
1357.03	334
1359.24	316
1361.46	306
1363.68	298
1365.89	302
1368.11	336
1370.32	400
1372.54	540
1374.75	764
1376.96	934
1379.17	1060
1381.38	1038
1383.59	914
1385.8	702
1388.01	532
1390.22	382
1392.43	330
1394.63	288
1396.84	272
1399.05	262
1401.25	278
1403.45	254
1405.66	274
1407.86	276
1410.06	276
1412.26	274
1414.46	294
1416.66	330
1418.86	328
1421.06	376
1423.26	388
1425.46	398
1427.65	398
1429.85	418
1432.04	420
1434.24	458
1436.43	488
1438.62	490
1440.82	512
1443.01	494
1445.2	466
1447.39	438
1449.58	416
1451.77	410
1453.95	400
1456.14	358
1458.33	376
1460.52	376
1462.7	372
1464.89	348
1467.07	332
1469.25	338
1471.44	364
1473.62	352
1475.8	346
1477.98	350
1480.16	326
1482.34	336
1484.52	320
1486.7	292
1488.87	310
1491.05	292
1493.23	266
1495.4	302
1497.58	284
1499.75	280
1501.92	282
1504.1	284
1506.27	266
1508.44	280
1510.61	244
1512.78	272
1514.95	270
1517.12	252
1519.28	242
1521.45	254
1523.62	264
1525.78	268
1527.95	264
1530.11	270
1532.28	274
1534.44	250
1536.6	258
1538.76	274
1540.93	274
1543.09	270
1545.25	266
1547.41	286
1549.56	270
1551.72	284
1553.88	292
1556.03	268
1558.19	286
1560.35	278
1562.5	270
1564.65	292
1566.81	294
1568.96	300
1571.11	322
1573.26	332
1575.41	368
1577.56	380
1579.71	418
1581.86	456
1584.01	498
1586.15	582
1588.3	694
1590.45	794
1592.59	910
1594.74	1030
1596.88	1250
1599.02	1332
1601.17	1452
1603.31	1484
1605.45	1402
1607.59	1294
1609.73	1132
1611.87	988
1614.01	842
1616.14	740
1618.28	612
1620.42	518
1622.55	468
1624.69	386
1626.82	346
1628.96	342
1631.09	306
1633.22	306
1635.36	262
1637.49	270
1639.62	284
1641.75	260
1643.88	252
1646	244
1648.13	242
1650.26	252
1652.39	244
1654.51	230
1656.64	240
1658.76	256
1660.89	230
1663.01	232
1665.13	226
1667.26	246
1669.38	212
1671.5	226
1673.62	222
1675.74	218
1677.86	224
1679.97	214
1682.09	228
1684.21	226
1686.33	242
1688.44	222
1690.56	234
1692.67	224
1694.78	242
1696.9	244
1699.01	256
1701.12	252
1703.23	256
1705.34	240
1707.45	226
1709.56	230
1711.67	246
1713.78	232
1715.88	234
1717.99	228
1720.1	218
1722.2	214
1724.31	218
1726.41	214
1728.51	224
1730.62	226
1732.72	220
1734.82	214
1736.92	206
1739.02	212
1741.12	206
1743.22	206
1745.32	200
1747.42	206
1749.51	194
1751.61	200
1753.7	196
1755.8	204
1757.89	222
1759.99	220
1762.08	196
1764.17	214
1766.26	204
1768.36	200
1770.45	200
1772.54	226
1774.62	220
1776.71	202
1778.8	200
1780.89	214
1782.98	214
1785.06	196
1787.15	210
1789.23	190
1791.32	232
1793.4	184
1795.48	202
1797.56	204
1799.65	208
1801.73	214
1803.81	206
1805.89	206
1807.97	210
1810.04	222
1812.12	198
1814.2	202
1816.28	196
1818.35	206
1820.43	196
1822.5	216
1824.58	210
1826.65	200
1828.72	208
1830.79	200
1832.86	220
1834.94	208
1837.01	212
1839.08	206
1841.15	204
1843.21	200
1845.28	216
1847.35	206
1849.41	200
1851.48	206
1853.55	208
1855.61	198
1857.67	198
1859.74	190
1861.8	196
1863.86	198
1865.92	192
1867.98	206
1870.05	200
1872.1	212
1874.16	204
1876.22	192
1878.28	208
1880.34	204
1882.39	216
1884.45	188
1886.5	190
1888.56	198
1890.61	206
1892.67	210
1894.72	228
1896.77	206
1898.82	218
1900.87	208
1902.92	210
1904.97	214
1907.02	216
1909.07	192
1911.12	218
1913.17	216
1915.21	214
1917.26	200
1919.3	198
1921.35	230
1923.39	218
1925.43	224
1927.48	206
1929.52	212
1931.56	202
1933.6	212
1935.64	198
1937.68	200
1939.72	206
1941.76	202
1943.8	214
1945.83	200
1947.87	204
1949.91	198
1951.94	208
1953.98	220
1956.01	190
1958.05	196
1960.08	222
1962.11	206
1964.14	214
1966.17	208
1968.2	204
1970.23	210
1972.26	198
1974.29	202
1976.32	200
1978.35	198
1980.37	206
1982.4	196
1984.43	204
1986.45	214
1988.48	206
1990.5	210
1992.52	194
1994.55	210
1996.57	202
1998.59	208
2000.61	198
2002.63	206
2004.65	202
2006.67	208
2008.69	202
2010.7	188
2012.72	198
2014.74	218
2016.75	204
2018.77	218
2020.78	214
2022.8	204
2024.81	212
2026.83	196
2028.84	210
2030.85	206
2032.86	198
2034.87	206
2036.88	216
2038.89	194
2040.9	194
2042.91	224
2044.91	202
2046.92	206
2048.93	216
2050.93	204
2052.94	220
2054.94	196
2056.95	198
2058.95	224
2060.95	208
2062.95	222
2064.96	198
2066.96	210
2068.96	202
2070.96	214
2072.96	196
2074.95	228
2076.95	192
2078.95	190
2080.95	194
2082.94	220
2084.94	206
2086.93	208
2088.93	200
2090.92	218
2092.91	212
2094.91	220
2096.9	196
2098.89	202
2100.88	206
2102.87	220
2104.86	208
2106.85	202
2108.84	192
2110.83	202
2112.81	194
2114.8	206
2116.78	208
2118.77	196
2120.75	196
2122.74	192
2124.72	204
2126.71	210
2128.69	204
2130.67	212
2132.65	228
2134.63	196
2136.61	206
2138.59	212
2140.57	220
2142.55	212
2144.53	206
2146.5	212
2148.48	212
2150.46	206
2152.43	196
2154.41	200
2156.38	202
2158.35	212
2160.33	206
2162.3	198
2164.27	206
2166.24	202
2168.21	214
2170.18	210
2172.15	202
2174.12	186
2176.09	202
2178.06	210
2180.03	210
2181.99	210
2183.96	202
2185.92	204
2187.89	204
2189.85	200
2191.82	206
2193.78	200
2195.74	188
2197.7	200
2199.67	198
2201.63	192
2203.59	200
2205.55	194
2207.51	216
2209.46	206
2211.42	210
2213.38	192
2215.34	204
2217.29	188
2219.25	208
2221.2	200
2223.16	200
2225.11	206
2227.06	208
2229.02	204
2230.97	196
2232.92	218
2234.87	200
2236.82	212
2238.77	206
2240.72	208
2242.67	210
2244.62	202
2246.57	208
2248.51	216
2250.46	188
2252.4	192
2254.35	216
2256.29	200
2258.24	192
2260.18	198
2262.13	204
2264.07	204
2266.01	216
2267.95	202
2269.89	198
2271.83	218
2273.77	198
2275.71	204
2277.65	212
2279.58	214
2281.52	210
2283.46	210
2285.4	204
2287.33	204
2289.27	208
2291.2	202
2293.13	200
2295.07	198
2297	236
2298.93	206
2300.86	222
2302.79	208
2304.72	206
2306.65	222
2308.58	224
2310.51	216
2312.44	204
2314.37	216
2316.29	200
2318.22	228
2320.15	218
2322.07	214
2324	244
2325.92	220
2327.84	204
2329.77	206
2331.69	216
2333.61	208
2335.53	222
2337.45	196
2339.37	228
2341.29	218
2343.21	224
2345.13	206
2347.05	206
2348.97	202
2350.88	200
2352.8	216
2354.71	214
2356.63	204
2358.54	212
2360.46	204
2362.37	212
2364.28	202
2366.2	190
2368.11	200
2370.02	206
2371.93	214
2373.84	210
2375.75	214
2377.66	240
2379.57	206
2381.47	210
2383.38	220
2385.29	204
2387.2	206
2389.1	222
2391.01	210
2392.91	190
2394.81	220
2396.72	230
2398.62	216
2400.52	214
2402.42	236
2404.33	236
2406.23	218
2408.13	212
2410.03	212
2411.92	242
2413.82	200
2415.72	182
2417.62	208
2419.51	214
2421.41	206
2423.31	210
2425.2	196
2427.1	214
2428.99	216
2430.88	198
2432.78	198
2434.67	190
2436.56	212
2438.45	212
2440.34	210
2442.23	216
2444.12	180
2446.01	208
2447.9	202
2449.79	206