File: Jesse_Dataset_v2/Pure Raman/Polypropylene oxide/633nm/ps-ppo-7jan25-0,0000-map2_Y03_X09.txt
182.393	714
184.993	708
187.593	658
190.193	628
192.79	620
195.387	594
197.983	562
200.578	526
203.174	522
205.766	506
208.36	492
210.951	482
213.542	456
216.131	452
218.721	500
221.309	500
223.897	608
226.483	754
229.069	994
231.654	1158
234.238	1294
236.821	1236
239.404	1168
241.984	1040
244.566	886
247.145	762
249.723	646
252.302	564
254.878	472
257.455	406
260.03	378
262.604	364
265.178	312
267.75	300
270.322	300
272.893	282
275.463	294
278.032	300
280.601	320
283.168	356
285.734	428
288.301	462
290.866	534
293.429	594
295.992	638
298.556	630
301.117	592
303.677	502
306.236	502
308.795	448
311.354	412
313.911	414
316.467	396
319.022	374
321.577	390
324.13	390
326.684	396
329.236	394
331.787	444
334.337	410
336.887	422
339.435	390
341.983	370
344.529	356
347.075	342
349.621	374
352.165	368
354.708	368
357.251	382
359.793	364
362.334	340
364.874	330
367.413	330
369.951	332
372.489	344
375.026	348
377.562	330
380.097	324
382.631	286
385.164	252
387.697	256
390.229	248
392.76	254
395.29	242
397.819	248
400.346	254
402.873	246
405.4	262
407.926	306
410.451	326
412.976	374
415.499	388
418.02	350
420.542	314
423.063	294
425.583	256
428.101	240
430.619	228
433.137	216
435.654	202
438.169	200
440.684	198
443.198	180
445.712	180
448.223	168
450.735	188
453.246	184
455.755	210
458.264	184
460.771	208
463.279	198
465.786	204
468.291	264
470.796	296
473.301	324
475.803	356
478.306	394
480.807	458
483.308	498
485.807	526
488.307	446
490.804	360
493.302	312
495.798	284
498.294	248
500.788	226
503.283	222
505.775	238
508.269	280
510.759	360
513.251	406
515.74	392
518.23	324
520.718	294
523.204	334
525.692	340
528.177	406
530.663	476
533.147	598
535.629	730
538.113	792
540.594	798
543.074	730
545.555	596
548.034	464
550.512	422
552.989	400
555.467	408
557.942	546
560.417	706
562.892	1044
565.365	1724
567.838	2756
570.309	3724
572.78	3786
575.251	2676
577.72	1580
580.189	922
582.656	750
585.123	628
587.589	616
590.055	556
592.52	510
594.983	508
597.446	460
599.908	404
602.369	332
604.829	264
607.289	268
609.747	238
612.205	230
614.663	226
617.119	234
619.574	250
622.029	246
624.483	260
626.936	296
629.389	284
631.84	322
634.291	310
636.741	320
639.19	322
641.639	320
644.086	268
646.533	254
648.979	250
651.424	224
653.869	228
656.313	214
658.754	192
661.196	194
663.638	194
666.078	168
668.518	180
670.957	176
673.394	166
675.831	172
678.268	186
680.703	162
683.137	172
685.571	168
688.005	192
690.437	178
692.868	174
695.299	184
697.729	172
700.159	188
702.586	184
705.014	188
707.441	214
709.866	208
712.292	248
714.716	276
717.14	242
719.563	242
721.984	218
724.406	214
726.825	220
729.246	222
731.665	220
734.082	228
736.5	206
738.916	264
741.332	246
743.746	296
746.161	292
748.574	340
750.987	328
753.398	302
755.81	272
758.219	266
760.629	242
763.037	208
765.445	194
767.852	208
770.258	202
772.664	214
775.068	212
777.472	220
779.876	230
782.278	222
784.679	230
787.08	228
789.48	226
791.879	188
794.278	198
796.675	186
799.072	204
801.467	186
803.864	238
806.258	212
808.651	228
811.044	220
813.437	240
815.828	224
818.218	238
820.608	242
822.997	284
825.385	356
827.773	520
830.16	834
832.546	1164
834.931	1126
837.315	658
839.699	410
842.081	300
844.463	278
846.844	294
849.226	266
851.606	264
853.985	268
856.363	240
858.741	250
861.117	256
863.493	236
865.868	222
868.243	192
870.616	216
872.989	206
875.36	210
877.731	196
880.102	186
882.472	190
884.841	196
887.209	180
889.577	194
891.944	186
894.31	192
896.674	180
899.039	196
901.403	186
903.766	188
906.128	176
908.49	182
910.849	188
913.209	184
915.569	204
917.927	192
920.284	202
922.641	198
924.997	196
927.353	196
929.707	214
932.061	208
934.414	208
936.765	212
939.117	226
941.469	248
943.818	258
946.167	280
948.515	352
950.863	448
953.211	546
955.556	728
957.902	878
960.246	966
962.59	890
964.933	772
967.276	644
969.617	564
971.958	458
974.298	366
976.638	314
978.976	294
981.314	238
983.651	234
985.988	248
988.323	228
990.659	238
992.992	248
995.325	222
997.658	220
999.99	208
1002.32	218
1004.65	214
1006.98	208
1009.31	208
1011.64	214
1013.97	244
1016.29	228
1018.62	254
1020.94	254
1023.27	270
1025.59	284
1027.91	250
1030.24	300
1032.56	292
1034.88	298
1037.2	284
1039.52	288
1041.84	264
1044.15	248
1046.47	246
1048.79	236
1051.1	222
1053.42	228
1055.73	210
1058.04	204
1060.36	216
1062.67	200
1064.98	196
1067.29	206
1069.6	224
1071.91	212
1074.22	208
1076.52	204
1078.83	208
1081.14	210
1083.44	192
1085.75	212
1088.05	222
1090.35	222
1092.65	230
1094.95	224
1097.26	240
1099.56	244
1101.86	274
1104.15	300
1106.45	390
1108.75	574
1111.05	834
1113.34	900
1115.64	738
1117.93	508
1120.22	376
1122.52	336
1124.81	288
1127.1	284
1129.39	242
1131.68	258
1133.97	244
1136.26	256
1138.54	266
1140.83	246
1143.12	280
1145.4	244
1147.69	244
1149.97	238
1152.25	244
1154.54	228
1156.82	260
1159.1	276
1161.38	276
1163.66	286
1165.94	262
1168.22	258
1170.49	258
1172.77	274
1175.05	284
1177.32	326
1179.6	352
1181.87	460
1184.14	578
1186.42	662
1188.69	626
1190.96	504
1193.23	482
1195.5	424
1197.77	446
1200.03	454
1202.3	508
1204.57	478
1206.83	434
1209.1	364
1211.36	330
1213.63	274
1215.89	268
1218.15	248
1220.41	260
1222.67	270
1224.93	286
1227.19	336
1229.45	352
1231.71	354
1233.97	318
1236.22	264
1238.48	268
1240.73	258
1242.99	242
1245.24	238
1247.5	254
1249.75	242
1252	242
1254.25	230
1256.5	220
1258.75	232
1261	242
1263.25	246
1265.49	246
1267.74	264
1269.99	266
1272.23	268
1274.48	262
1276.72	306
1278.96	326
1281.21	328
1283.45	368
1285.69	392
1287.93	418
1290.17	442
1292.41	528
1294.64	620
1296.88	804
1299.12	1088
1301.36	1586
1303.59	2128
1305.82	2286
1308.06	1880
1310.29	1346
1312.52	998
1314.76	804
1316.99	616
1319.22	548
1321.45	498
1323.68	488
1325.9	502
1328.13	480
1330.36	456
1332.58	422
1334.81	362
1337.04	356
1339.26	336
1341.48	364
1343.71	350
1345.93	364
1348.15	416
1350.37	410
1352.59	402
1354.81	358
1357.03	346
1359.24	334
1361.46	304
1363.68	300
1365.89	318
1368.11	370
1370.32	406
1372.54	558
1374.75	794
1376.96	1008
1379.17	1080
1381.38	1082
1383.59	938
1385.8	716
1388.01	542
1390.22	418
1392.43	346
1394.63	310
1396.84	290
1399.05	278
1401.25	282
1403.45	276
1405.66	290
1407.86	296
1410.06	290
1412.26	318
1414.46	324
1416.66	344
1418.86	364
1421.06	404
1423.26	408
1425.46	414
1427.65	410
1429.85	432
1432.04	472
1434.24	486
1436.43	502
1438.62	530
1440.82	514
1443.01	506
1445.2	496
1447.39	440
1449.58	432
1451.77	406
1453.95	394
1456.14	400
1458.33	398
1460.52	384
1462.7	366
1464.89	384
1467.07	392
1469.25	374
1471.44	370
1473.62	380
1475.8	386
1477.98	366
1480.16	358
1482.34	348
1484.52	342
1486.7	334
1488.87	318
1491.05	306
1493.23	306
1495.4	306
1497.58	298
1499.75	306
1501.92	306
1504.1	278
1506.27	294
1508.44	284
1510.61	284
1512.78	290
1514.95	286
1517.12	274
1519.28	280
1521.45	280
1523.62	278
1525.78	270
1527.95	292
1530.11	274
1532.28	278
1534.44	290
1536.6	278
1538.76	292
1540.93	294
1543.09	296
1545.25	278
1547.41	282
1549.56	280
1551.72	320
1553.88	288
1556.03	296
1558.19	290
1560.35	314
1562.5	302
1564.65	326
1566.81	318
1568.96	340
1571.11	346
1573.26	372
1575.41	394
1577.56	420
1579.71	442
1581.86	488
1584.01	534
1586.15	600
1588.3	676
1590.45	798
1592.59	890
1594.74	1098
1596.88	1218
1599.02	1386
1601.17	1536
1603.31	1516
1605.45	1432
1607.59	1392
1609.73	1172
1611.87	1048
1614.01	864
1616.14	782
1618.28	640
1620.42	556
1622.55	470
1624.69	440
1626.82	352
1628.96	346
1631.09	356
1633.22	306
1635.36	298
1637.49	280
1639.62	290
1641.75	294
1643.88	262
1646	272
1648.13	240
1650.26	248
1652.39	236
1654.51	264
1656.64	242
1658.76	248
1660.89	246
1663.01	236
1665.13	264
1667.26	228
1669.38	234
1671.5	252
1673.62	250
1675.74	248
1677.86	232
1679.97	240
1682.09	248
1684.21	236
1686.33	250
1688.44	274
1690.56	246
1692.67	268
1694.78	262
1696.9	276
1699.01	246
1701.12	262
1703.23	248
1705.34	250
1707.45	250
1709.56	248
1711.67	258
1713.78	264
1715.88	230
1717.99	232
1720.1	246
1722.2	226
1724.31	242
1726.41	230
1728.51	236
1730.62	236
1732.72	210
1734.82	242
1736.92	220
1739.02	224
1741.12	220
1743.22	234
1745.32	224
1747.42	236
1749.51	206
1751.61	218
1753.7	210
1755.8	226
1757.89	216
1759.99	224
1762.08	220
1764.17	232
1766.26	216
1768.36	234
1770.45	212
1772.54	246
1774.62	230
1776.71	208
1778.8	244
1780.89	218
1782.98	228
1785.06	222
1787.15	218
1789.23	216
1791.32	222
1793.4	216
1795.48	220
1797.56	224
1799.65	230
1801.73	234
1803.81	232
1805.89	206
1807.97	220
1810.04	234
1812.12	212
1814.2	226
1816.28	232
1818.35	226
1820.43	232
1822.5	222
1824.58	230
1826.65	218
1828.72	222
1830.79	238
1832.86	216
1834.94	230
1837.01	226
1839.08	228
1841.15	228
1843.21	232
1845.28	224
1847.35	222
1849.41	224
1851.48	224
1853.55	220
1855.61	212
1857.67	234
1859.74	228
1861.8	236
1863.86	216
1865.92	216
1867.98	232
1870.05	224
1872.1	238
1874.16	236
1876.22	224
1878.28	230
1880.34	222
1882.39	232
1884.45	220
1886.5	230
1888.56	236
1890.61	214
1892.67	218
1894.72	220
1896.77	244
1898.82	216
1900.87	224
1902.92	220
1904.97	236
1907.02	200
1909.07	224
1911.12	218
1913.17	214
1915.21	234
1917.26	236
1919.3	220
1921.35	220
1923.39	214
1925.43	224
1927.48	214
1929.52	234
1931.56	210
1933.6	234
1935.64	214
1937.68	230
1939.72	230
1941.76	208
1943.8	236
1945.83	214
1947.87	206
1949.91	220
1951.94	200
1953.98	240
1956.01	214
1958.05	228
1960.08	224
1962.11	220
1964.14	224
1966.17	216
1968.2	208
1970.23	230
1972.26	214
1974.29	212
1976.32	220
1978.35	226
1980.37	220
1982.4	220
1984.43	220
1986.45	228
1988.48	228
1990.5	208
1992.52	218
1994.55	222
1996.57	220
1998.59	232
2000.61	242
2002.63	222
2004.65	238
2006.67	228
2008.69	230
2010.7	238
2012.72	226
2014.74	228
2016.75	234
2018.77	214
2020.78	218
2022.8	234
2024.81	218
2026.83	222
2028.84	210
2030.85	206
2032.86	230
2034.87	216
2036.88	220
2038.89	218
2040.9	236
2042.91	212
2044.91	230
2046.92	234
2048.93	224
2050.93	222
2052.94	228
2054.94	222
2056.95	216
2058.95	226
2060.95	222
2062.95	228
2064.96	226
2066.96	224
2068.96	230
2070.96	214
2072.96	222
2074.95	228
2076.95	226
2078.95	222
2080.95	220
2082.94	224
2084.94	216
2086.93	232
2088.93	218
2090.92	194
2092.91	242
2094.91	212
2096.9	206
2098.89	228
2100.88	230
2102.87	222
2104.86	214
2106.85	226
2108.84	212
2110.83	224
2112.81	232
2114.8	222
2116.78	210
2118.77	228
2120.75	228
2122.74	216
2124.72	218
2126.71	224
2128.69	222
2130.67	230
2132.65	230
2134.63	202
2136.61	222
2138.59	216
2140.57	214
2142.55	216
2144.53	218
2146.5	214
2148.48	236
2150.46	220
2152.43	228
2154.41	210
2156.38	236
2158.35	240
2160.33	220
2162.3	234
2164.27	226
2166.24	210
2168.21	228
2170.18	216
2172.15	188
2174.12	224
2176.09	198
2178.06	206
2180.03	208
2181.99	222
2183.96	198
2185.92	230
2187.89	208
2189.85	214
2191.82	214
2193.78	214
2195.74	212
2197.7	214
2199.67	218
2201.63	220
2203.59	196
2205.55	200
2207.51	202
2209.46	220
2211.42	204
2213.38	222
2215.34	216
2217.29	220
2219.25	226
2221.2	220
2223.16	216
2225.11	234
2227.06	220
2229.02	214
2230.97	218
2232.92	218
2234.87	216
2236.82	216
2238.77	206
2240.72	222
2242.67	230
2244.62	218
2246.57	242
2248.51	218
2250.46	218
2252.4	202
2254.35	220
2256.29	238
2258.24	228
2260.18	226
2262.13	204
2264.07	212
2266.01	226
2267.95	220
2269.89	216
2271.83	218
2273.77	234
2275.71	222
2277.65	212
2279.58	220
2281.52	214
2283.46	210
2285.4	226
2287.33	212
2289.27	224
2291.2	218
2293.13	224
2295.07	218
2297	228
2298.93	216
2300.86	234
2302.79	220
2304.72	224
2306.65	230
2308.58	232
2310.51	220
2312.44	228
2314.37	220
2316.29	230
2318.22	244
2320.15	236
2322.07	206
2324	242
2325.92	238
2327.84	232
2329.77	234
2331.69	234
2333.61	220
2335.53	216
2337.45	226
2339.37	208
2341.29	224
2343.21	252
2345.13	208
2347.05	224
2348.97	218
2350.88	212
2352.8	222
2354.71	216
2356.63	212
2358.54	232
2360.46	228
2362.37	222
2364.28	220
2366.2	230
2368.11	218
2370.02	226
2371.93	220
2373.84	236
2375.75	200
2377.66	232
2379.57	222
2381.47	240
2383.38	216
2385.29	230
2387.2	218
2389.1	228
2391.01	240
2392.91	238
2394.81	234
2396.72	230
2398.62	234
2400.52	210
2402.42	232
2404.33	228
2406.23	234
2408.13	220
2410.03	236
2411.92	236
2413.82	228
2415.72	224
2417.62	220
2419.51	216
2421.41	206
2423.31	212
2425.2	248
2427.1	214
2428.99	214
2430.88	208
2432.78	212
2434.67	222
2436.56	200
2438.45	208
2440.34	224
2442.23	220
2444.12	232
2446.01	216
2447.9	232
2449.79	230