File: Jesse_Dataset_v2/Pure Raman/Polypropylene oxide/633nm/ps-ppo-7jan25-0,0000-map2_Y00_X09.txt
182.393	756
184.993	708
187.593	710
190.193	638
192.79	636
195.387	620
197.983	586
200.578	548
203.174	552
205.766	568
208.36	540
210.951	510
213.542	536
216.131	482
218.721	518
221.309	562
223.897	620
226.483	782
229.069	1016
231.654	1220
234.238	1328
236.821	1294
239.404	1156
241.984	1042
244.566	920
247.145	772
249.723	698
252.302	578
254.878	488
257.455	442
260.03	406
262.604	396
265.178	354
267.75	326
270.322	336
272.893	344
275.463	314
278.032	320
280.601	356
283.168	382
285.734	458
288.301	500
290.866	570
293.429	670
295.992	672
298.556	666
301.117	576
303.677	518
306.236	514
308.795	454
311.354	446
313.911	412
316.467	434
319.022	416
321.577	380
324.13	392
326.684	406
329.236	436
331.787	486
334.337	454
336.887	442
339.435	424
341.983	406
344.529	386
347.075	378
349.621	380
352.165	430
354.708	390
357.251	390
359.793	392
362.334	390
364.874	378
367.413	392
369.951	358
372.489	342
375.026	376
377.562	364
380.097	348
382.631	306
385.164	286
387.697	300
390.229	302
392.76	286
395.29	272
397.819	256
400.346	282
402.873	278
405.4	312
407.926	302
410.451	368
412.976	424
415.499	432
418.02	382
420.542	364
423.063	332
425.583	290
428.101	290
430.619	224
433.137	246
435.654	240
438.169	246
440.684	222
443.198	216
445.712	222
448.223	238
450.735	230
453.246	206
455.755	214
458.264	220
460.771	246
463.279	228
465.786	244
468.291	286
470.796	316
473.301	346
475.803	390
478.306	434
480.807	490
483.308	536
485.807	558
488.307	500
490.804	388
493.302	346
495.798	296
498.294	266
500.788	264
503.283	268
505.775	264
508.269	318
510.759	402
513.251	452
515.74	426
518.23	378
520.718	348
523.204	348
525.692	370
528.177	454
530.663	512
533.147	648
535.629	756
538.113	850
540.594	824
543.074	734
545.555	606
548.034	508
550.512	446
552.989	416
555.467	472
557.942	600
560.417	772
562.892	1074
565.365	1720
567.838	2866
570.309	3792
572.78	3846
575.251	2676
577.72	1512
580.189	982
582.656	752
585.123	664
587.589	638
590.055	608
592.52	578
594.983	548
597.446	496
599.908	444
602.369	380
604.829	296
607.289	274
609.747	268
612.205	252
614.663	264
617.119	258
619.574	266
622.029	296
624.483	274
626.936	296
629.389	346
631.84	346
634.291	380
636.741	364
639.19	338
641.639	354
644.086	292
646.533	292
648.979	266
651.424	284
653.869	226
656.313	240
658.754	260
661.196	232
663.638	218
666.078	222
668.518	228
670.957	202
673.394	226
675.831	210
678.268	216
680.703	216
683.137	218
685.571	206
688.005	216
690.437	218
692.868	200
695.299	210
697.729	222
700.159	232
702.586	220
705.014	218
707.441	234
709.866	286
712.292	264
714.716	278
717.14	294
719.563	266
721.984	244
724.406	242
726.825	246
729.246	252
731.665	236
734.082	272
736.5	258
738.916	274
741.332	282
743.746	312
746.161	370
748.574	364
750.987	346
753.398	336
755.81	328
758.219	278
760.629	274
763.037	250
765.445	242
767.852	242
770.258	246
772.664	236
775.068	268
777.472	262
779.876	266
782.278	294
784.679	256
787.08	238
789.48	260
791.879	252
794.278	236
796.675	242
799.072	244
801.467	240
803.864	258
806.258	252
808.651	254
811.044	266
813.437	254
815.828	264
818.218	244
820.608	296
822.997	328
825.385	410
827.773	550
830.16	872
832.546	1188
834.931	1148
837.315	676
839.699	440
842.081	350
844.463	320
846.844	322
849.226	300
851.606	282
853.985	292
856.363	290
858.741	300
861.117	288
863.493	274
865.868	272
868.243	244
870.616	238
872.989	238
875.36	218
877.731	242
880.102	252
882.472	236
884.841	222
887.209	240
889.577	236
891.944	238
894.31	222
896.674	246
899.039	220
901.403	236
903.766	226
906.128	208
908.49	226
910.849	246
913.209	210
915.569	214
917.927	226
920.284	214
922.641	218
924.997	242
927.353	244
929.707	248
932.061	238
934.414	240
936.765	256
939.117	272
941.469	270
943.818	296
946.167	330
948.515	402
950.863	492
953.211	612
955.556	758
957.902	906
960.246	960
962.59	944
964.933	810
967.276	660
969.617	608
971.958	530
974.298	422
976.638	340
978.976	310
981.314	286
983.651	294
985.988	286
988.323	264
990.659	290
992.992	292
995.325	280
997.658	242
999.99	236
1002.32	248
1004.65	266
1006.98	250
1009.31	248
1011.64	246
1013.97	264
1016.29	258
1018.62	276
1020.94	278
1023.27	320
1025.59	312
1027.91	322
1030.24	350
1032.56	348
1034.88	352
1037.2	334
1039.52	308
1041.84	298
1044.15	290
1046.47	284
1048.79	274
1051.1	266
1053.42	244
1055.73	240
1058.04	226
1060.36	252
1062.67	248
1064.98	262
1067.29	246
1069.6	242
1071.91	258
1074.22	260
1076.52	246
1078.83	234
1081.14	268
1083.44	256
1085.75	256
1088.05	248
1090.35	262
1092.65	254
1094.95	262
1097.26	278
1099.56	288
1101.86	310
1104.15	342
1106.45	418
1108.75	634
1111.05	890
1113.34	952
1115.64	776
1117.93	582
1120.22	426
1122.52	374
1124.81	336
1127.1	332
1129.39	314
1131.68	296
1133.97	288
1136.26	310
1138.54	302
1140.83	304
1143.12	310
1145.4	304
1147.69	272
1149.97	276
1152.25	268
1154.54	284
1156.82	296
1159.1	304
1161.38	336
1163.66	332
1165.94	328
1168.22	322
1170.49	300
1172.77	322
1175.05	320
1177.32	354
1179.6	400
1181.87	524
1184.14	638
1186.42	688
1188.69	642
1190.96	574
1193.23	488
1195.5	488
1197.77	468
1200.03	510
1202.3	512
1204.57	510
1206.83	492
1209.1	414
1211.36	330
1213.63	322
1215.89	308
1218.15	316
1220.41	282
1222.67	328
1224.93	318
1227.19	402
1229.45	396
1231.71	408
1233.97	368
1236.22	320
1238.48	302
1240.73	284
1242.99	294
1245.24	282
1247.5	280
1249.75	280
1252	270
1254.25	284
1256.5	274
1258.75	290
1261	294
1263.25	266
1265.49	294
1267.74	288
1269.99	294
1272.23	312
1274.48	340
1276.72	332
1278.96	368
1281.21	396
1283.45	430
1285.69	422
1287.93	460
1290.17	498
1292.41	560
1294.64	650
1296.88	858
1299.12	1214
1301.36	1682
1303.59	2124
1305.82	2280
1308.06	1882
1310.29	1372
1312.52	1012
1314.76	808
1316.99	690
1319.22	558
1321.45	550
1323.68	518
1325.9	522
1328.13	524
1330.36	492
1332.58	434
1334.81	428
1337.04	386
1339.26	404
1341.48	384
1343.71	416
1345.93	410
1348.15	440
1350.37	446
1352.59	440
1354.81	424
1357.03	404
1359.24	394
1361.46	382
1363.68	372
1365.89	364
1368.11	392
1370.32	464
1372.54	614
1374.75	808
1376.96	1020
1379.17	1140
1381.38	1104
1383.59	984
1385.8	810
1388.01	564
1390.22	462
1392.43	374
1394.63	342
1396.84	338
1399.05	332
1401.25	344
1403.45	338
1405.66	320
1407.86	342
1410.06	338
1412.26	356
1414.46	354
1416.66	388
1418.86	394
1421.06	434
1423.26	478
1425.46	450
1427.65	466
1429.85	472
1432.04	478
1434.24	506
1436.43	560
1438.62	552
1440.82	572
1443.01	574
1445.2	528
1447.39	486
1449.58	482
1451.77	438
1453.95	456
1456.14	454
1458.33	448
1460.52	428
1462.7	414
1464.89	436
1467.07	398
1469.25	426
1471.44	406
1473.62	428
1475.8	396
1477.98	408
1480.16	404
1482.34	382
1484.52	364
1486.7	382
1488.87	344
1491.05	322
1493.23	336
1495.4	342
1497.58	342
1499.75	334
1501.92	342
1504.1	344
1506.27	350
1508.44	334
1510.61	316
1512.78	324
1514.95	322
1517.12	310
1519.28	306
1521.45	346
1523.62	326
1525.78	318
1527.95	306
1530.11	324
1532.28	350
1534.44	324
1536.6	328
1538.76	340
1540.93	330
1543.09	342
1545.25	322
1547.41	350
1549.56	348
1551.72	350
1553.88	332
1556.03	366
1558.19	340
1560.35	354
1562.5	354
1564.65	348
1566.81	366
1568.96	374
1571.11	378
1573.26	370
1575.41	418
1577.56	458
1579.71	468
1581.86	486
1584.01	578
1586.15	632
1588.3	708
1590.45	802
1592.59	986
1594.74	1104
1596.88	1274
1599.02	1402
1601.17	1536
1603.31	1520
1605.45	1494
1607.59	1356
1609.73	1160
1611.87	1056
1614.01	912
1616.14	774
1618.28	692
1620.42	598
1622.55	492
1624.69	458
1626.82	406
1628.96	380
1631.09	370
1633.22	344
1635.36	334
1637.49	332
1639.62	320
1641.75	298
1643.88	294
1646	300
1648.13	316
1650.26	282
1652.39	268
1654.51	298
1656.64	288
1658.76	294
1660.89	296
1663.01	298
1665.13	288
1667.26	286
1669.38	302
1671.5	268
1673.62	300
1675.74	286
1677.86	292
1679.97	264
1682.09	268
1684.21	282
1686.33	278
1688.44	310
1690.56	310
1692.67	312
1694.78	324
1696.9	292
1699.01	304
1701.12	318
1703.23	296
1705.34	274
1707.45	310
1709.56	290
1711.67	262
1713.78	262
1715.88	296
1717.99	290
1720.1	264
1722.2	274
1724.31	280
1726.41	270
1728.51	274
1730.62	270
1732.72	264
1734.82	266
1736.92	280
1739.02	280
1741.12	266
1743.22	278
1745.32	274
1747.42	276
1749.51	240
1751.61	276
1753.7	272
1755.8	250
1757.89	246
1759.99	264
1762.08	270
1764.17	256
1766.26	258
1768.36	260
1770.45	260
1772.54	272
1774.62	274
1776.71	268
1778.8	254
1780.89	266
1782.98	264
1785.06	264
1787.15	258
1789.23	262
1791.32	284
1793.4	274
1795.48	274
1797.56	282
1799.65	260
1801.73	264
1803.81	246
1805.89	244
1807.97	262
1810.04	270
1812.12	264
1814.2	278
1816.28	254
1818.35	258
1820.43	268
1822.5	270
1824.58	244
1826.65	290
1828.72	252
1830.79	256
1832.86	276
1834.94	254
1837.01	260
1839.08	272
1841.15	252
1843.21	252
1845.28	264
1847.35	260
1849.41	262
1851.48	264
1853.55	262
1855.61	274
1857.67	274
1859.74	244
1861.8	262
1863.86	252
1865.92	288
1867.98	260
1870.05	272
1872.1	260
1874.16	250
1876.22	262
1878.28	264
1880.34	258
1882.39	250
1884.45	284
1886.5	264
1888.56	280
1890.61	258
1892.67	266
1894.72	268
1896.77	248
1898.82	254
1900.87	260
1902.92	240
1904.97	244
1907.02	236
1909.07	272
1911.12	252
1913.17	274
1915.21	276
1917.26	278
1919.3	302
1921.35	250
1923.39	262
1925.43	260
1927.48	258
1929.52	266
1931.56	274
1933.6	264
1935.64	258
1937.68	282
1939.72	236
1941.76	262
1943.8	252
1945.83	242
1947.87	246
1949.91	250
1951.94	268
1953.98	252
1956.01	228
1958.05	248
1960.08	262
1962.11	250
1964.14	280
1966.17	264
1968.2	246
1970.23	274
1972.26	256
1974.29	244
1976.32	240
1978.35	260
1980.37	254
1982.4	268
1984.43	264
1986.45	252
1988.48	264
1990.5	260
1992.52	248
1994.55	262
1996.57	262
1998.59	280
2000.61	252
2002.63	246
2004.65	246
2006.67	240
2008.69	248
2010.7	276
2012.72	248
2014.74	240
2016.75	256
2018.77	264
2020.78	272
2022.8	248
2024.81	266
2026.83	252
2028.84	264
2030.85	266
2032.86	242
2034.87	254
2036.88	244
2038.89	260
2040.9	258
2042.91	260
2044.91	258
2046.92	254
2048.93	258
2050.93	246
2052.94	252
2054.94	252
2056.95	250
2058.95	250
2060.95	246
2062.95	242
2064.96	256
2066.96	274
2068.96	258
2070.96	248
2072.96	280
2074.95	252
2076.95	262
2078.95	270
2080.95	256
2082.94	262
2084.94	258
2086.93	242
2088.93	266
2090.92	244
2092.91	254
2094.91	276
2096.9	266
2098.89	248
2100.88	252
2102.87	264
2104.86	256
2106.85	256
2108.84	260
2110.83	258
2112.81	246
2114.8	256
2116.78	246
2118.77	258
2120.75	248
2122.74	246
2124.72	252
2126.71	248
2128.69	264
2130.67	260
2132.65	236
2134.63	244
2136.61	262
2138.59	248
2140.57	252
2142.55	274
2144.53	254
2146.5	264
2148.48	244
2150.46	260
2152.43	256
2154.41	240
2156.38	254
2158.35	248
2160.33	240
2162.3	244
2164.27	262
2166.24	246
2168.21	252
2170.18	266
2172.15	240
2174.12	262
2176.09	256
2178.06	248
2180.03	268
2181.99	256
2183.96	242
2185.92	254
2187.89	250
2189.85	258
2191.82	270
2193.78	242
2195.74	252
2197.7	256
2199.67	270
2201.63	248
2203.59	254
2205.55	260
2207.51	250
2209.46	242
2211.42	250
2213.38	238
2215.34	268
2217.29	244
2219.25	242
2221.2	246
2223.16	242
2225.11	252
2227.06	232
2229.02	252
2230.97	254
2232.92	250
2234.87	276
2236.82	228
2238.77	244
2240.72	252
2242.67	256
2244.62	240
2246.57	244
2248.51	234
2250.46	228
2252.4	254
2254.35	236
2256.29	272
2258.24	240
2260.18	246
2262.13	268
2264.07	240
2266.01	246
2267.95	262
2269.89	254
2271.83	256
2273.77	254
2275.71	242
2277.65	246
2279.58	250
2281.52	262
2283.46	262
2285.4	240
2287.33	240
2289.27	252
2291.2	244
2293.13	270
2295.07	240
2297	254
2298.93	262
2300.86	232
2302.79	258
2304.72	254
2306.65	246
2308.58	248
2310.51	256
2312.44	258
2314.37	264
2316.29	268
2318.22	260
2320.15	252
2322.07	258
2324	258
2325.92	262
2327.84	252
2329.77	248
2331.69	240
2333.61	248
2335.53	232
2337.45	250
2339.37	260
2341.29	242
2343.21	250
2345.13	244
2347.05	234
2348.97	246
2350.88	254
2352.8	246
2354.71	236
2356.63	272
2358.54	256
2360.46	236
2362.37	254
2364.28	260
2366.2	246
2368.11	244
2370.02	252
2371.93	266
2373.84	258
2375.75	262
2377.66	258
2379.57	254
2381.47	242
2383.38	262
2385.29	224
2387.2	272
2389.1	258
2391.01	246
2392.91	250
2394.81	260
2396.72	262
2398.62	256
2400.52	252
2402.42	248
2404.33	238
2406.23	264
2408.13	232
2410.03	262
2411.92	272
2413.82	260
2415.72	250
2417.62	260
2419.51	258
2421.41	230
2423.31	234
2425.2	244
2427.1	238
2428.99	234
2430.88	258
2432.78	254
2434.67	250
2436.56	248
2438.45	246
2440.34	236
2442.23	234
2444.12	252
2446.01	242
2447.9	258
2449.79	242