File: Jesse_Dataset_v2/Pure Raman/Polypropylene oxide/633nm/ps-ppo-7jan25-0,0000-map2_Y06_X06.txt
182.393	704
184.993	652
187.593	646
190.193	620
192.79	582
195.387	576
197.983	538
200.578	512
203.174	506
205.766	508
208.36	506
210.951	460
213.542	450
216.131	458
218.721	472
221.309	516
223.897	554
226.483	708
229.069	922
231.654	1130
234.238	1248
236.821	1204
239.404	1106
241.984	1038
244.566	866
247.145	740
249.723	638
252.302	524
254.878	458
257.455	408
260.03	376
262.604	324
265.178	304
267.75	290
270.322	284
272.893	260
275.463	278
278.032	280
280.601	288
283.168	324
285.734	400
288.301	436
290.866	518
293.429	606
295.992	608
298.556	630
301.117	546
303.677	468
306.236	452
308.795	434
311.354	384
313.911	366
316.467	352
319.022	354
321.577	358
324.13	346
326.684	368
329.236	366
331.787	398
334.337	392
336.887	382
339.435	374
341.983	382
344.529	340
347.075	342
349.621	330
352.165	352
354.708	334
357.251	350
359.793	344
362.334	312
364.874	298
367.413	330
369.951	324
372.489	318
375.026	342
377.562	294
380.097	284
382.631	266
385.164	232
387.697	242
390.229	212
392.76	232
395.29	228
397.819	232
400.346	210
402.873	232
405.4	230
407.926	258
410.451	300
412.976	356
415.499	364
418.02	334
420.542	300
423.063	256
425.583	228
428.101	228
430.619	200
433.137	190
435.654	178
438.169	172
440.684	162
443.198	174
445.712	178
448.223	166
450.735	158
453.246	176
455.755	174
458.264	146
460.771	162
463.279	188
465.786	194
468.291	230
470.796	252
473.301	290
475.803	324
478.306	364
480.807	442
483.308	470
485.807	490
488.307	428
490.804	368
493.302	292
495.798	252
498.294	226
500.788	212
503.283	208
505.775	222
508.269	230
510.759	320
513.251	402
515.74	360
518.23	308
520.718	274
523.204	302
525.692	318
528.177	358
530.663	460
533.147	546
535.629	694
538.113	730
540.594	784
543.074	674
545.555	550
548.034	446
550.512	404
552.989	392
555.467	410
557.942	490
560.417	622
562.892	998
565.365	1576
567.838	2654
570.309	3676
572.78	3674
575.251	2592
577.72	1506
580.189	968
582.656	706
585.123	622
587.589	590
590.055	558
592.52	500
594.983	496
597.446	430
599.908	360
602.369	310
604.829	256
607.289	236
609.747	220
612.205	230
614.663	196
617.119	216
619.574	214
622.029	234
624.483	236
626.936	278
629.389	250
631.84	288
634.291	294
636.741	296
639.19	304
641.639	288
644.086	256
646.533	260
648.979	208
651.424	212
653.869	186
656.313	188
658.754	190
661.196	168
663.638	170
666.078	162
668.518	168
670.957	156
673.394	160
675.831	144
678.268	156
680.703	144
683.137	150
685.571	150
688.005	158
690.437	152
692.868	148
695.299	160
697.729	154
700.159	152
702.586	170
705.014	152
707.441	164
709.866	172
712.292	200
714.716	222
717.14	214
719.563	202
721.984	190
724.406	208
726.825	182
729.246	196
731.665	192
734.082	184
736.5	202
738.916	204
741.332	210
743.746	258
746.161	300
748.574	322
750.987	282
753.398	274
755.81	250
758.219	238
760.629	210
763.037	194
765.445	192
767.852	174
770.258	190
772.664	170
775.068	190
777.472	192
779.876	212
782.278	214
784.679	182
787.08	206
789.48	178
791.879	164
794.278	180
796.675	182
799.072	178
801.467	170
803.864	186
806.258	182
808.651	204
811.044	188
813.437	194
815.828	202
818.218	228
820.608	236
822.997	258
825.385	326
827.773	450
830.16	776
832.546	1154
834.931	1082
837.315	662
839.699	368
842.081	298
844.463	252
846.844	246
849.226	262
851.606	254
853.985	240
856.363	226
858.741	226
861.117	224
863.493	180
865.868	200
868.243	198
870.616	186
872.989	184
875.36	174
877.731	190
880.102	170
882.472	182
884.841	156
887.209	164
889.577	152
891.944	156
894.31	178
896.674	162
899.039	150
901.403	160
903.766	160
906.128	156
908.49	154
910.849	164
913.209	168
915.569	156
917.927	166
920.284	160
922.641	168
924.997	180
927.353	172
929.707	166
932.061	182
934.414	174
936.765	178
939.117	192
941.469	220
943.818	238
946.167	264
948.515	320
950.863	384
953.211	528
955.556	678
957.902	840
960.246	912
962.59	888
964.933	752
967.276	638
969.617	538
971.958	412
974.298	346
976.638	288
978.976	248
981.314	234
983.651	198
985.988	214
988.323	206
990.659	204
992.992	200
995.325	204
997.658	196
999.99	182
1002.32	172
1004.65	194
1006.98	200
1009.31	186
1011.64	190
1013.97	172
1016.29	210
1018.62	216
1020.94	210
1023.27	222
1025.59	232
1027.91	230
1030.24	270
1032.56	278
1034.88	258
1037.2	264
1039.52	262
1041.84	242
1044.15	232
1046.47	220
1048.79	192
1051.1	198
1053.42	198
1055.73	180
1058.04	182
1060.36	196
1062.67	180
1064.98	186
1067.29	186
1069.6	170
1071.91	172
1074.22	180
1076.52	180
1078.83	180
1081.14	188
1083.44	190
1085.75	180
1088.05	190
1090.35	188
1092.65	200
1094.95	202
1097.26	196
1099.56	212
1101.86	244
1104.15	278
1106.45	368
1108.75	564
1111.05	794
1113.34	928
1115.64	674
1117.93	506
1120.22	366
1122.52	314
1124.81	250
1127.1	248
1129.39	232
1131.68	228
1133.97	232
1136.26	238
1138.54	212
1140.83	230
1143.12	226
1145.4	226
1147.69	230
1149.97	206
1152.25	188
1154.54	222
1156.82	224
1159.1	254
1161.38	260
1163.66	262
1165.94	242
1168.22	234
1170.49	242
1172.77	250
1175.05	262
1177.32	296
1179.6	346
1181.87	424
1184.14	528
1186.42	640
1188.69	604
1190.96	488
1193.23	436
1195.5	400
1197.77	422
1200.03	454
1202.3	470
1204.57	462
1206.83	404
1209.1	338
1211.36	292
1213.63	246
1215.89	238
1218.15	226
1220.41	222
1222.67	236
1224.93	248
1227.19	312
1229.45	334
1231.71	300
1233.97	314
1236.22	264
1238.48	258
1240.73	232
1242.99	218
1245.24	204
1247.5	204
1249.75	202
1252	194
1254.25	228
1256.5	204
1258.75	208
1261	228
1263.25	238
1265.49	236
1267.74	232
1269.99	242
1272.23	254
1274.48	246
1276.72	290
1278.96	276
1281.21	294
1283.45	326
1285.69	374
1287.93	374
1290.17	408
1292.41	480
1294.64	584
1296.88	748
1299.12	1096
1301.36	1502
1303.59	1974
1305.82	2162
1308.06	1846
1310.29	1316
1312.52	926
1314.76	758
1316.99	616
1319.22	532
1321.45	480
1323.68	468
1325.9	464
1328.13	418
1330.36	424
1332.58	410
1334.81	338
1337.04	312
1339.26	298
1341.48	318
1343.71	328
1345.93	328
1348.15	354
1350.37	356
1352.59	374
1354.81	334
1357.03	328
1359.24	318
1361.46	284
1363.68	306
1365.89	284
1368.11	326
1370.32	380
1372.54	516
1374.75	740
1376.96	924
1379.17	1058
1381.38	1028
1383.59	882
1385.8	696
1388.01	504
1390.22	404
1392.43	312
1394.63	274
1396.84	276
1399.05	238
1401.25	252
1403.45	246
1405.66	252
1407.86	272
1410.06	274
1412.26	276
1414.46	274
1416.66	294
1418.86	314
1421.06	360
1423.26	396
1425.46	398
1427.65	400
1429.85	416
1432.04	446
1434.24	428
1436.43	472
1438.62	470
1440.82	500
1443.01	440
1445.2	460
1447.39	434
1449.58	396
1451.77	356
1453.95	354
1456.14	366
1458.33	344
1460.52	334
1462.7	374
1464.89	364
1467.07	354
1469.25	344
1471.44	354
1473.62	336
1475.8	318
1477.98	348
1480.16	316
1482.34	324
1484.52	300
1486.7	314
1488.87	258
1491.05	270
1493.23	268
1495.4	254
1497.58	240
1499.75	266
1501.92	264
1504.1	232
1506.27	258
1508.44	250
1510.61	264
1512.78	270
1514.95	258
1517.12	254
1519.28	244
1521.45	232
1523.62	252
1525.78	266
1527.95	242
1530.11	244
1532.28	260
1534.44	266
1536.6	266
1538.76	276
1540.93	248
1543.09	274
1545.25	242
1547.41	242
1549.56	252
1551.72	268
1553.88	278
1556.03	290
1558.19	256
1560.35	272
1562.5	270
1564.65	290
1566.81	302
1568.96	308
1571.11	326
1573.26	302
1575.41	342
1577.56	394
1579.71	410
1581.86	448
1584.01	512
1586.15	540
1588.3	656
1590.45	746
1592.59	866
1594.74	1028
1596.88	1198
1599.02	1340
1601.17	1470
1603.31	1494
1605.45	1382
1607.59	1270
1609.73	1122
1611.87	994
1614.01	856
1616.14	722
1618.28	628
1620.42	524
1622.55	436
1624.69	372
1626.82	352
1628.96	324
1631.09	282
1633.22	260
1635.36	274
1637.49	258
1639.62	262
1641.75	262
1643.88	254
1646	228
1648.13	234
1650.26	224
1652.39	222
1654.51	216
1656.64	226
1658.76	218
1660.89	220
1663.01	214
1665.13	216
1667.26	226
1669.38	222
1671.5	212
1673.62	206
1675.74	210
1677.86	206
1679.97	202
1682.09	214
1684.21	214
1686.33	228
1688.44	230
1690.56	222
1692.67	226
1694.78	234
1696.9	228
1699.01	230
1701.12	242
1703.23	202
1705.34	216
1707.45	218
1709.56	216
1711.67	220
1713.78	220
1715.88	218
1717.99	200
1720.1	194
1722.2	208
1724.31	200
1726.41	214
1728.51	206
1730.62	200
1732.72	210
1734.82	190
1736.92	208
1739.02	176
1741.12	206
1743.22	200
1745.32	194
1747.42	202
1749.51	194
1751.61	186
1753.7	184
1755.8	182
1757.89	202
1759.99	198
1762.08	194
1764.17	182
1766.26	176
1768.36	194
1770.45	200
1772.54	194
1774.62	196
1776.71	190
1778.8	200
1780.89	184
1782.98	210
1785.06	188
1787.15	194
1789.23	204
1791.32	190
1793.4	196
1795.48	192
1797.56	198
1799.65	196
1801.73	192
1803.81	178
1805.89	186
1807.97	184
1810.04	194
1812.12	186
1814.2	184
1816.28	188
1818.35	192
1820.43	190
1822.5	206
1824.58	196
1826.65	194
1828.72	198
1830.79	172
1832.86	184
1834.94	176
1837.01	198
1839.08	182
1841.15	194
1843.21	188
1845.28	194
1847.35	198
1849.41	188
1851.48	180
1853.55	182
1855.61	180
1857.67	206
1859.74	192
1861.8	188
1863.86	186
1865.92	190
1867.98	190
1870.05	184
1872.1	186
1874.16	174
1876.22	198
1878.28	194
1880.34	200
1882.39	212
1884.45	212
1886.5	190
1888.56	174
1890.61	190
1892.67	190
1894.72	190
1896.77	192
1898.82	192
1900.87	184
1902.92	190
1904.97	198
1907.02	224
1909.07	194
1911.12	198
1913.17	180
1915.21	184
1917.26	180
1919.3	216
1921.35	186
1923.39	188
1925.43	200
1927.48	184
1929.52	194
1931.56	174
1933.6	198
1935.64	198
1937.68	194
1939.72	194
1941.76	212
1943.8	200
1945.83	194
1947.87	194
1949.91	192
1951.94	178
1953.98	190
1956.01	188
1958.05	202
1960.08	194
1962.11	194
1964.14	182
1966.17	196
1968.2	194
1970.23	196
1972.26	198
1974.29	200
1976.32	200
1978.35	202
1980.37	202
1982.4	192
1984.43	196
1986.45	192
1988.48	198
1990.5	196
1992.52	180
1994.55	186
1996.57	204
1998.59	202
2000.61	194
2002.63	196
2004.65	198
2006.67	202
2008.69	194
2010.7	200
2012.72	190
2014.74	194
2016.75	184
2018.77	198
2020.78	196
2022.8	210
2024.81	182
2026.83	202
2028.84	190
2030.85	196
2032.86	196
2034.87	208
2036.88	196
2038.89	188
2040.9	200
2042.91	210
2044.91	180
2046.92	200
2048.93	188
2050.93	184
2052.94	190
2054.94	174
2056.95	202
2058.95	186
2060.95	192
2062.95	196
2064.96	198
2066.96	196
2068.96	192
2070.96	196
2072.96	188
2074.95	190
2076.95	186
2078.95	192
2080.95	216
2082.94	198
2084.94	188
2086.93	200
2088.93	188
2090.92	200
2092.91	190
2094.91	184
2096.9	202
2098.89	204
2100.88	192
2102.87	200
2104.86	178
2106.85	190
2108.84	184
2110.83	188
2112.81	192
2114.8	182
2116.78	210
2118.77	176
2120.75	176
2122.74	204
2124.72	180
2126.71	194
2128.69	178
2130.67	196
2132.65	198
2134.63	196
2136.61	188
2138.59	194
2140.57	204
2142.55	190
2144.53	216
2146.5	192
2148.48	194
2150.46	188
2152.43	214
2154.41	216
2156.38	194
2158.35	180
2160.33	200
2162.3	196
2164.27	186
2166.24	184
2168.21	202
2170.18	190
2172.15	188
2174.12	194
2176.09	186
2178.06	184
2180.03	202
2181.99	178
2183.96	192
2185.92	188
2187.89	188
2189.85	190
2191.82	188
2193.78	206
2195.74	194
2197.7	198
2199.67	206
2201.63	174
2203.59	216
2205.55	180
2207.51	180
2209.46	178
2211.42	194
2213.38	188
2215.34	186
2217.29	180
2219.25	182
2221.2	208
2223.16	196
2225.11	188
2227.06	196
2229.02	188
2230.97	206
2232.92	208
2234.87	190
2236.82	194
2238.77	184
2240.72	186
2242.67	190
2244.62	192
2246.57	208
2248.51	198
2250.46	190
2252.4	190
2254.35	192
2256.29	192
2258.24	180
2260.18	204
2262.13	218
2264.07	202
2266.01	184
2267.95	184
2269.89	206
2271.83	200
2273.77	184
2275.71	208
2277.65	192
2279.58	198
2281.52	186
2283.46	186
2285.4	214
2287.33	192
2289.27	194
2291.2	214
2293.13	202
2295.07	184
2297	208
2298.93	182
2300.86	198
2302.79	206
2304.72	194
2306.65	190
2308.58	202
2310.51	184
2312.44	208
2314.37	220
2316.29	212
2318.22	206
2320.15	222
2322.07	208
2324	202
2325.92	198
2327.84	210
2329.77	202
2331.69	200
2333.61	220
2335.53	202
2337.45	218
2339.37	196
2341.29	206
2343.21	212
2345.13	202
2347.05	188
2348.97	210
2350.88	212
2352.8	202
2354.71	186
2356.63	190
2358.54	188
2360.46	220
2362.37	194
2364.28	200
2366.2	180
2368.11	196
2370.02	194
2371.93	206
2373.84	206
2375.75	208
2377.66	204
2379.57	218
2381.47	186
2383.38	188
2385.29	210
2387.2	198
2389.1	196
2391.01	204
2392.91	194
2394.81	218
2396.72	214
2398.62	204
2400.52	206
2402.42	206
2404.33	210
2406.23	206
2408.13	204
2410.03	204
2411.92	204
2413.82	184
2415.72	212
2417.62	202
2419.51	212
2421.41	182
2423.31	196
2425.2	208
2427.1	196
2428.99	198
2430.88	188
2432.78	186
2434.67	190
2436.56	190
2438.45	200
2440.34	202
2442.23	200
2444.12	190
2446.01	206
2447.9	188
2449.79	204