File: Jesse_Dataset_v2/Pure Raman/Polypropylene oxide/633nm/ps-ppo-7jan25-0,0000-map2_Y09_X00.txt
182.393	712
184.993	642
187.593	624
190.193	618
192.79	570
195.387	550
197.983	558
200.578	516
203.174	528
205.766	516
208.36	472
210.951	510
213.542	460
216.131	466
218.721	496
221.309	528
223.897	608
226.483	728
229.069	878
231.654	1146
234.238	1274
236.821	1218
239.404	1096
241.984	1054
244.566	876
247.145	760
249.723	624
252.302	540
254.878	478
257.455	402
260.03	390
262.604	358
265.178	314
267.75	296
270.322	278
272.893	288
275.463	292
278.032	268
280.601	318
283.168	348
285.734	364
288.301	442
290.866	522
293.429	596
295.992	630
298.556	638
301.117	576
303.677	532
306.236	462
308.795	448
311.354	426
313.911	378
316.467	376
319.022	384
321.577	386
324.13	364
326.684	398
329.236	408
331.787	416
334.337	436
336.887	410
339.435	408
341.983	362
344.529	372
347.075	362
349.621	346
352.165	362
354.708	386
357.251	360
359.793	384
362.334	330
364.874	352
367.413	342
369.951	344
372.489	342
375.026	356
377.562	310
380.097	308
382.631	276
385.164	284
387.697	248
390.229	254
392.76	256
395.29	264
397.819	272
400.346	242
402.873	258
405.4	290
407.926	282
410.451	352
412.976	362
415.499	364
418.02	332
420.542	342
423.063	274
425.583	264
428.101	248
430.619	232
433.137	234
435.654	206
438.169	192
440.684	190
443.198	196
445.712	188
448.223	178
450.735	186
453.246	180
455.755	200
458.264	212
460.771	212
463.279	208
465.786	228
468.291	250
470.796	288
473.301	318
475.803	366
478.306	416
480.807	452
483.308	464
485.807	510
488.307	478
490.804	372
493.302	318
495.798	280
498.294	256
500.788	238
503.283	222
505.775	256
508.269	276
510.759	324
513.251	420
515.74	400
518.23	330
520.718	308
523.204	314
525.692	362
528.177	400
530.663	466
533.147	558
535.629	734
538.113	772
540.594	744
543.074	672
545.555	608
548.034	472
550.512	410
552.989	400
555.467	426
557.942	506
560.417	672
562.892	978
565.365	1528
567.838	2496
570.309	3522
572.78	3668
575.251	2604
577.72	1568
580.189	960
582.656	722
585.123	656
587.589	598
590.055	580
592.52	490
594.983	502
597.446	478
599.908	420
602.369	344
604.829	298
607.289	248
609.747	250
612.205	232
614.663	244
617.119	254
619.574	254
622.029	276
624.483	270
626.936	288
629.389	304
631.84	356
634.291	310
636.741	344
639.19	324
641.639	302
644.086	282
646.533	276
648.979	258
651.424	240
653.869	228
656.313	240
658.754	226
661.196	210
663.638	198
666.078	212
668.518	186
670.957	206
673.394	182
675.831	190
678.268	190
680.703	188
683.137	202
685.571	186
688.005	204
690.437	180
692.868	180
695.299	202
697.729	200
700.159	194
702.586	190
705.014	204
707.441	204
709.866	230
712.292	258
714.716	276
717.14	258
719.563	244
721.984	246
724.406	228
726.825	230
729.246	228
731.665	228
734.082	244
736.5	232
738.916	246
741.332	254
743.746	292
746.161	330
748.574	368
750.987	348
753.398	304
755.81	312
758.219	254
760.629	250
763.037	232
765.445	226
767.852	204
770.258	208
772.664	212
775.068	238
777.472	250
779.876	244
782.278	246
784.679	236
787.08	238
789.48	240
791.879	226
794.278	218
796.675	202
799.072	224
801.467	222
803.864	222
806.258	238
808.651	242
811.044	248
813.437	222
815.828	226
818.218	254
820.608	244
822.997	294
825.385	358
827.773	496
830.16	772
832.546	1132
834.931	1104
837.315	656
839.699	420
842.081	310
844.463	300
846.844	296
849.226	276
851.606	276
853.985	260
856.363	260
858.741	260
861.117	248
863.493	240
865.868	228
868.243	230
870.616	216
872.989	208
875.36	238
877.731	190
880.102	204
882.472	202
884.841	204
887.209	196
889.577	202
891.944	200
894.31	202
896.674	196
899.039	206
901.403	206
903.766	208
906.128	202
908.49	208
910.849	216
913.209	192
915.569	192
917.927	202
920.284	196
922.641	200
924.997	222
927.353	194
929.707	194
932.061	212
934.414	230
936.765	222
939.117	244
941.469	240
943.818	280
946.167	300
948.515	352
950.863	410
953.211	540
955.556	706
957.902	870
960.246	902
962.59	876
964.933	776
967.276	640
969.617	556
971.958	452
974.298	372
976.638	318
978.976	296
981.314	288
983.651	262
985.988	268
988.323	258
990.659	246
992.992	256
995.325	226
997.658	230
999.99	224
1002.32	238
1004.65	238
1006.98	236
1009.31	208
1011.64	242
1013.97	234
1016.29	246
1018.62	246
1020.94	240
1023.27	264
1025.59	272
1027.91	268
1030.24	292
1032.56	306
1034.88	298
1037.2	304
1039.52	300
1041.84	294
1044.15	282
1046.47	252
1048.79	242
1051.1	244
1053.42	236
1055.73	256
1058.04	228
1060.36	236
1062.67	248
1064.98	234
1067.29	218
1069.6	234
1071.91	226
1074.22	228
1076.52	228
1078.83	226
1081.14	230
1083.44	230
1085.75	224
1088.05	242
1090.35	232
1092.65	240
1094.95	238
1097.26	248
1099.56	264
1101.86	272
1104.15	314
1106.45	370
1108.75	554
1111.05	818
1113.34	874
1115.64	752
1117.93	544
1120.22	410
1122.52	320
1124.81	324
1127.1	298
1129.39	294
1131.68	270
1133.97	272
1136.26	262
1138.54	282
1140.83	266
1143.12	292
1145.4	272
1147.69	260
1149.97	248
1152.25	252
1154.54	262
1156.82	264
1159.1	268
1161.38	308
1163.66	318
1165.94	284
1168.22	294
1170.49	280
1172.77	284
1175.05	302
1177.32	336
1179.6	398
1181.87	482
1184.14	576
1186.42	640
1188.69	608
1190.96	554
1193.23	482
1195.5	430
1197.77	462
1200.03	472
1202.3	498
1204.57	496
1206.83	434
1209.1	384
1211.36	314
1213.63	306
1215.89	284
1218.15	252
1220.41	286
1222.67	288
1224.93	338
1227.19	328
1229.45	398
1231.71	370
1233.97	330
1236.22	296
1238.48	258
1240.73	286
1242.99	240
1245.24	254
1247.5	248
1249.75	244
1252	254
1254.25	252
1256.5	242
1258.75	244
1261	248
1263.25	276
1265.49	290
1267.74	258
1269.99	280
1272.23	280
1274.48	290
1276.72	306
1278.96	328
1281.21	368
1283.45	376
1285.69	392
1287.93	430
1290.17	450
1292.41	510
1294.64	604
1296.88	790
1299.12	1062
1301.36	1478
1303.59	1972
1305.82	2184
1308.06	1886
1310.29	1340
1312.52	1012
1314.76	772
1316.99	684
1319.22	568
1321.45	526
1323.68	508
1325.9	514
1328.13	484
1330.36	456
1332.58	440
1334.81	396
1337.04	372
1339.26	336
1341.48	366
1343.71	366
1345.93	386
1348.15	414
1350.37	398
1352.59	428
1354.81	392
1357.03	350
1359.24	348
1361.46	354
1363.68	334
1365.89	358
1368.11	358
1370.32	438
1372.54	546
1374.75	768
1376.96	944
1379.17	1094
1381.38	1084
1383.59	920
1385.8	740
1388.01	550
1390.22	408
1392.43	352
1394.63	326
1396.84	290
1399.05	312
1401.25	302
1403.45	310
1405.66	290
1407.86	306
1410.06	322
1412.26	298
1414.46	312
1416.66	330
1418.86	362
1421.06	378
1423.26	386
1425.46	456
1427.65	432
1429.85	430
1432.04	484
1434.24	468
1436.43	498
1438.62	494
1440.82	512
1443.01	526
1445.2	496
1447.39	460
1449.58	442
1451.77	442
1453.95	432
1456.14	398
1458.33	396
1460.52	396
1462.7	378
1464.89	390
1467.07	392
1469.25	402
1471.44	376
1473.62	378
1475.8	364
1477.98	376
1480.16	364
1482.34	370
1484.52	334
1486.7	312
1488.87	348
1491.05	322
1493.23	320
1495.4	298
1497.58	308
1499.75	310
1501.92	306
1504.1	318
1506.27	294
1508.44	316
1510.61	302
1512.78	304
1514.95	318
1517.12	308
1519.28	310
1521.45	268
1523.62	304
1525.78	288
1527.95	284
1530.11	298
1532.28	296
1534.44	292
1536.6	304
1538.76	280
1540.93	318
1543.09	316
1545.25	290
1547.41	318
1549.56	292
1551.72	310
1553.88	300
1556.03	320
1558.19	298
1560.35	302
1562.5	320
1564.65	320
1566.81	332
1568.96	328
1571.11	372
1573.26	366
1575.41	388
1577.56	394
1579.71	444
1581.86	474
1584.01	530
1586.15	594
1588.3	662
1590.45	784
1592.59	870
1594.74	1024
1596.88	1186
1599.02	1352
1601.17	1456
1603.31	1426
1605.45	1434
1607.59	1290
1609.73	1158
1611.87	986
1614.01	874
1616.14	744
1618.28	644
1620.42	556
1622.55	476
1624.69	418
1626.82	380
1628.96	362
1631.09	322
1633.22	344
1635.36	340
1637.49	298
1639.62	302
1641.75	300
1643.88	290
1646	282
1648.13	266
1650.26	268
1652.39	256
1654.51	270
1656.64	262
1658.76	258
1660.89	258
1663.01	252
1665.13	252
1667.26	264
1669.38	258
1671.5	234
1673.62	260
1675.74	260
1677.86	248
1679.97	274
1682.09	256
1684.21	236
1686.33	258
1688.44	264
1690.56	266
1692.67	284
1694.78	276
1696.9	282
1699.01	284
1701.12	282
1703.23	272
1705.34	274
1707.45	278
1709.56	262
1711.67	258
1713.78	262
1715.88	266
1717.99	260
1720.1	240
1722.2	252
1724.31	236
1726.41	258
1728.51	246
1730.62	264
1732.72	252
1734.82	246
1736.92	234
1739.02	240
1741.12	234
1743.22	248
1745.32	216
1747.42	262
1749.51	226
1751.61	250
1753.7	242
1755.8	226
1757.89	234
1759.99	242
1762.08	258
1764.17	236
1766.26	246
1768.36	244
1770.45	238
1772.54	244
1774.62	232
1776.71	244
1778.8	226
1780.89	216
1782.98	232
1785.06	230
1787.15	246
1789.23	226
1791.32	234
1793.4	226
1795.48	234
1797.56	250
1799.65	242
1801.73	248
1803.81	222
1805.89	226
1807.97	244
1810.04	238
1812.12	226
1814.2	230
1816.28	230
1818.35	258
1820.43	242
1822.5	256
1824.58	226
1826.65	246
1828.72	240
1830.79	226
1832.86	226
1834.94	242
1837.01	234
1839.08	222
1841.15	234
1843.21	240
1845.28	240
1847.35	218
1849.41	254
1851.48	240
1853.55	246
1855.61	242
1857.67	254
1859.74	232
1861.8	236
1863.86	222
1865.92	240
1867.98	242
1870.05	250
1872.1	226
1874.16	246
1876.22	226
1878.28	232
1880.34	242
1882.39	222
1884.45	244
1886.5	244
1888.56	250
1890.61	226
1892.67	224
1894.72	220
1896.77	242
1898.82	232
1900.87	238
1902.92	238
1904.97	240
1907.02	218
1909.07	226
1911.12	244
1913.17	238
1915.21	248
1917.26	258
1919.3	252
1921.35	252
1923.39	242
1925.43	224
1927.48	234
1929.52	244
1931.56	236
1933.6	240
1935.64	232
1937.68	230
1939.72	220
1941.76	232
1943.8	244
1945.83	242
1947.87	240
1949.91	238
1951.94	230
1953.98	242
1956.01	244
1958.05	230
1960.08	232
1962.11	226
1964.14	240
1966.17	228
1968.2	232
1970.23	222
1972.26	222
1974.29	230
1976.32	226
1978.35	254
1980.37	238
1982.4	246
1984.43	240
1986.45	226
1988.48	232
1990.5	234
1992.52	240
1994.55	248
1996.57	224
1998.59	236
2000.61	246
2002.63	244
2004.65	248
2006.67	228
2008.69	240
2010.7	232
2012.72	238
2014.74	244
2016.75	236
2018.77	232
2020.78	234
2022.8	238
2024.81	226
2026.83	250
2028.84	224
2030.85	226
2032.86	254
2034.87	234
2036.88	234
2038.89	240
2040.9	228
2042.91	240
2044.91	244
2046.92	244
2048.93	248
2050.93	226
2052.94	226
2054.94	238
2056.95	242
2058.95	224
2060.95	244
2062.95	250
2064.96	224
2066.96	230
2068.96	242
2070.96	230
2072.96	224
2074.95	226
2076.95	236
2078.95	222
2080.95	226
2082.94	238
2084.94	236
2086.93	250
2088.93	234
2090.92	218
2092.91	242
2094.91	244
2096.9	228
2098.89	258
2100.88	234
2102.87	256
2104.86	254
2106.85	230
2108.84	230
2110.83	240
2112.81	212
2114.8	224
2116.78	234
2118.77	236
2120.75	222
2122.74	222
2124.72	214
2126.71	224
2128.69	224
2130.67	252
2132.65	224
2134.63	240
2136.61	226
2138.59	226
2140.57	240
2142.55	232
2144.53	218
2146.5	238
2148.48	214
2150.46	238
2152.43	220
2154.41	228
2156.38	240
2158.35	220
2160.33	218
2162.3	238
2164.27	236
2166.24	222
2168.21	246
2170.18	226
2172.15	222
2174.12	242
2176.09	228
2178.06	222
2180.03	228
2181.99	224
2183.96	236
2185.92	244
2187.89	248
2189.85	222
2191.82	224
2193.78	228
2195.74	226
2197.7	226
2199.67	236
2201.63	230
2203.59	226
2205.55	250
2207.51	216
2209.46	230
2211.42	228
2213.38	246
2215.34	210
2217.29	234
2219.25	246
2221.2	220
2223.16	238
2225.11	226
2227.06	220
2229.02	214
2230.97	236
2232.92	220
2234.87	230
2236.82	246
2238.77	224
2240.72	238
2242.67	226
2244.62	220
2246.57	236
2248.51	234
2250.46	240
2252.4	242
2254.35	230
2256.29	236
2258.24	226
2260.18	218
2262.13	232
2264.07	250
2266.01	226
2267.95	226
2269.89	238
2271.83	228
2273.77	232
2275.71	232
2277.65	230
2279.58	244
2281.52	226
2283.46	244
2285.4	208
2287.33	222
2289.27	218
2291.2	230
2293.13	228
2295.07	238
2297	216
2298.93	230
2300.86	238
2302.79	230
2304.72	230
2306.65	242
2308.58	232
2310.51	220
2312.44	238
2314.37	262
2316.29	264
2318.22	238
2320.15	260
2322.07	244
2324	242
2325.92	240
2327.84	226
2329.77	240
2331.69	228
2333.61	234
2335.53	232
2337.45	242
2339.37	236
2341.29	228
2343.21	230
2345.13	236
2347.05	234
2348.97	228
2350.88	236
2352.8	220
2354.71	218
2356.63	238
2358.54	230
2360.46	210
2362.37	222
2364.28	216
2366.2	228
2368.11	240
2370.02	224
2371.93	226
2373.84	236
2375.75	228
2377.66	234
2379.57	226
2381.47	238
2383.38	240
2385.29	230
2387.2	242
2389.1	230
2391.01	236
2392.91	246
2394.81	232
2396.72	244
2398.62	248
2400.52	242
2402.42	252
2404.33	252
2406.23	270
2408.13	244
2410.03	242
2411.92	260
2413.82	246
2415.72	216
2417.62	224
2419.51	256
2421.41	244
2423.31	220
2425.2	232
2427.1	218
2428.99	226
2430.88	230
2432.78	220
2434.67	212
2436.56	228
2438.45	228
2440.34	226
2442.23	218
2444.12	220
2446.01	234
2447.9	222
2449.79	230