File: Jesse_Dataset_v2/Pure Raman/Polypropylene oxide/633nm/ps-ppo-7jan25-0,0000-map2_Y00_X10.txt
182.393	720
184.993	764
187.593	678
190.193	704
192.79	658
195.387	618
197.983	620
200.578	572
203.174	560
205.766	538
208.36	536
210.951	508
213.542	510
216.131	492
218.721	514
221.309	580
223.897	664
226.483	802
229.069	1034
231.654	1274
234.238	1364
236.821	1320
239.404	1234
241.984	1058
244.566	960
247.145	806
249.723	698
252.302	572
254.878	522
257.455	470
260.03	406
262.604	364
265.178	376
267.75	330
270.322	322
272.893	340
275.463	330
278.032	324
280.601	360
283.168	360
285.734	408
288.301	490
290.866	604
293.429	646
295.992	680
298.556	658
301.117	616
303.677	560
306.236	508
308.795	502
311.354	444
313.911	428
316.467	418
319.022	402
321.577	400
324.13	408
326.684	428
329.236	392
331.787	448
334.337	448
336.887	454
339.435	416
341.983	410
344.529	402
347.075	384
349.621	376
352.165	436
354.708	414
357.251	416
359.793	400
362.334	374
364.874	378
367.413	370
369.951	380
372.489	384
375.026	384
377.562	358
380.097	330
382.631	302
385.164	308
387.697	296
390.229	284
392.76	304
395.29	276
397.819	298
400.346	282
402.873	290
405.4	324
407.926	318
410.451	362
412.976	428
415.499	424
418.02	392
420.542	354
423.063	306
425.583	284
428.101	274
430.619	246
433.137	244
435.654	252
438.169	246
440.684	236
443.198	216
445.712	212
448.223	216
450.735	208
453.246	220
455.755	210
458.264	234
460.771	222
463.279	242
465.786	260
468.291	282
470.796	324
473.301	372
475.803	406
478.306	460
480.807	516
483.308	566
485.807	574
488.307	490
490.804	398
493.302	352
495.798	310
498.294	268
500.788	274
503.283	248
505.775	270
508.269	296
510.759	382
513.251	464
515.74	406
518.23	342
520.718	336
523.204	360
525.692	392
528.177	448
530.663	552
533.147	646
535.629	756
538.113	850
540.594	824
543.074	744
545.555	644
548.034	478
550.512	458
552.989	456
555.467	478
557.942	590
560.417	772
562.892	1112
565.365	1758
567.838	2882
570.309	3976
572.78	3820
575.251	2676
577.72	1584
580.189	984
582.656	764
585.123	692
587.589	676
590.055	622
592.52	574
594.983	546
597.446	514
599.908	428
602.369	352
604.829	316
607.289	272
609.747	272
612.205	262
614.663	258
617.119	268
619.574	274
622.029	268
624.483	298
626.936	330
629.389	346
631.84	366
634.291	370
636.741	378
639.19	370
641.639	358
644.086	318
646.533	308
648.979	294
651.424	266
653.869	250
656.313	242
658.754	242
661.196	234
663.638	224
666.078	204
668.518	228
670.957	216
673.394	198
675.831	212
678.268	230
680.703	208
683.137	220
685.571	206
688.005	206
690.437	216
692.868	222
695.299	214
697.729	222
700.159	218
702.586	204
705.014	238
707.441	236
709.866	240
712.292	284
714.716	284
717.14	300
719.563	272
721.984	262
724.406	250
726.825	254
729.246	250
731.665	254
734.082	270
736.5	256
738.916	280
741.332	276
743.746	320
746.161	374
748.574	374
750.987	324
753.398	344
755.81	318
758.219	292
760.629	264
763.037	258
765.445	248
767.852	246
770.258	252
772.664	256
775.068	244
777.472	262
779.876	268
782.278	272
784.679	276
787.08	246
789.48	254
791.879	246
794.278	254
796.675	228
799.072	226
801.467	232
803.864	256
806.258	270
808.651	262
811.044	272
813.437	268
815.828	252
818.218	278
820.608	300
822.997	328
825.385	394
827.773	550
830.16	882
832.546	1290
834.931	1152
837.315	698
839.699	444
842.081	340
844.463	318
846.844	312
849.226	306
851.606	324
853.985	314
856.363	306
858.741	302
861.117	266
863.493	268
865.868	262
868.243	264
870.616	260
872.989	238
875.36	252
877.731	244
880.102	234
882.472	252
884.841	234
887.209	230
889.577	234
891.944	234
894.31	206
896.674	244
899.039	234
901.403	218
903.766	222
906.128	248
908.49	234
910.849	230
913.209	212
915.569	214
917.927	230
920.284	226
922.641	234
924.997	238
927.353	240
929.707	234
932.061	248
934.414	258
936.765	256
939.117	264
941.469	272
943.818	306
946.167	376
948.515	388
950.863	476
953.211	626
955.556	756
957.902	940
960.246	1000
962.59	972
964.933	818
967.276	706
969.617	564
971.958	504
974.298	416
976.638	360
978.976	336
981.314	302
983.651	284
985.988	272
988.323	276
990.659	282
992.992	282
995.325	248
997.658	252
999.99	264
1002.32	242
1004.65	242
1006.98	260
1009.31	252
1011.64	258
1013.97	244
1016.29	266
1018.62	290
1020.94	286
1023.27	296
1025.59	300
1027.91	310
1030.24	304
1032.56	342
1034.88	328
1037.2	346
1039.52	316
1041.84	304
1044.15	318
1046.47	284
1048.79	294
1051.1	262
1053.42	250
1055.73	276
1058.04	246
1060.36	260
1062.67	258
1064.98	274
1067.29	254
1069.6	272
1071.91	248
1074.22	242
1076.52	242
1078.83	262
1081.14	244
1083.44	256
1085.75	272
1088.05	244
1090.35	268
1092.65	272
1094.95	258
1097.26	272
1099.56	278
1101.86	290
1104.15	340
1106.45	444
1108.75	634
1111.05	890
1113.34	1034
1115.64	770
1117.93	562
1120.22	434
1122.52	378
1124.81	356
1127.1	320
1129.39	298
1131.68	304
1133.97	296
1136.26	282
1138.54	310
1140.83	310
1143.12	314
1145.4	296
1147.69	294
1149.97	260
1152.25	260
1154.54	306
1156.82	306
1159.1	296
1161.38	362
1163.66	336
1165.94	334
1168.22	304
1170.49	312
1172.77	310
1175.05	352
1177.32	376
1179.6	394
1181.87	496
1184.14	646
1186.42	710
1188.69	664
1190.96	584
1193.23	488
1195.5	482
1197.77	490
1200.03	502
1202.3	550
1204.57	528
1206.83	494
1209.1	400
1211.36	380
1213.63	336
1215.89	304
1218.15	294
1220.41	316
1222.67	308
1224.93	322
1227.19	388
1229.45	398
1231.71	400
1233.97	362
1236.22	350
1238.48	292
1240.73	296
1242.99	282
1245.24	282
1247.5	280
1249.75	300
1252	284
1254.25	266
1256.5	276
1258.75	266
1261	276
1263.25	302
1265.49	310
1267.74	300
1269.99	302
1272.23	310
1274.48	298
1276.72	326
1278.96	366
1281.21	342
1283.45	402
1285.69	432
1287.93	470
1290.17	504
1292.41	564
1294.64	694
1296.88	864
1299.12	1174
1301.36	1672
1303.59	2170
1305.82	2358
1308.06	1964
1310.29	1420
1312.52	1032
1314.76	804
1316.99	684
1319.22	598
1321.45	576
1323.68	530
1325.9	544
1328.13	514
1330.36	498
1332.58	454
1334.81	426
1337.04	372
1339.26	404
1341.48	372
1343.71	404
1345.93	404
1348.15	450
1350.37	444
1352.59	408
1354.81	400
1357.03	368
1359.24	372
1361.46	362
1363.68	372
1365.89	384
1368.11	396
1370.32	458
1372.54	616
1374.75	822
1376.96	1028
1379.17	1138
1381.38	1092
1383.59	948
1385.8	770
1388.01	592
1390.22	440
1392.43	404
1394.63	366
1396.84	334
1399.05	318
1401.25	362
1403.45	314
1405.66	326
1407.86	318
1410.06	326
1412.26	354
1414.46	376
1416.66	396
1418.86	412
1421.06	442
1423.26	454
1425.46	470
1427.65	476
1429.85	494
1432.04	512
1434.24	520
1436.43	550
1438.62	550
1440.82	588
1443.01	556
1445.2	574
1447.39	514
1449.58	462
1451.77	442
1453.95	436
1456.14	444
1458.33	444
1460.52	446
1462.7	444
1464.89	428
1467.07	458
1469.25	398
1471.44	428
1473.62	432
1475.8	438
1477.98	436
1480.16	388
1482.34	394
1484.52	404
1486.7	366
1488.87	342
1491.05	360
1493.23	346
1495.4	344
1497.58	360
1499.75	328
1501.92	328
1504.1	340
1506.27	352
1508.44	332
1510.61	322
1512.78	344
1514.95	348
1517.12	344
1519.28	332
1521.45	330
1523.62	346
1525.78	314
1527.95	332
1530.11	324
1532.28	336
1534.44	314
1536.6	332
1538.76	322
1540.93	336
1543.09	326
1545.25	326
1547.41	336
1549.56	332
1551.72	338
1553.88	368
1556.03	338
1558.19	338
1560.35	358
1562.5	364
1564.65	350
1566.81	364
1568.96	368
1571.11	392
1573.26	396
1575.41	432
1577.56	460
1579.71	474
1581.86	548
1584.01	592
1586.15	636
1588.3	736
1590.45	828
1592.59	968
1594.74	1114
1596.88	1296
1599.02	1482
1601.17	1504
1603.31	1598
1605.45	1478
1607.59	1366
1609.73	1190
1611.87	1060
1614.01	954
1616.14	804
1618.28	666
1620.42	582
1622.55	514
1624.69	456
1626.82	438
1628.96	408
1631.09	350
1633.22	348
1635.36	332
1637.49	370
1639.62	334
1641.75	346
1643.88	298
1646	306
1648.13	284
1650.26	286
1652.39	302
1654.51	278
1656.64	292
1658.76	272
1660.89	290
1663.01	304
1665.13	300
1667.26	272
1669.38	296
1671.5	296
1673.62	282
1675.74	258
1677.86	280
1679.97	294
1682.09	280
1684.21	300
1686.33	276
1688.44	298
1690.56	312
1692.67	292
1694.78	306
1696.9	304
1699.01	308
1701.12	300
1703.23	296
1705.34	322
1707.45	288
1709.56	308
1711.67	302
1713.78	280
1715.88	296
1717.99	298
1720.1	286
1722.2	272
1724.31	276
1726.41	262
1728.51	278
1730.62	276
1732.72	270
1734.82	268
1736.92	274
1739.02	278
1741.12	266
1743.22	278
1745.32	248
1747.42	280
1749.51	264
1751.61	254
1753.7	260
1755.8	280
1757.89	276
1759.99	260
1762.08	266
1764.17	272
1766.26	290
1768.36	266
1770.45	254
1772.54	258
1774.62	266
1776.71	258
1778.8	260
1780.89	282
1782.98	266
1785.06	280
1787.15	264
1789.23	262
1791.32	264
1793.4	264
1795.48	290
1797.56	272
1799.65	280
1801.73	274
1803.81	264
1805.89	268
1807.97	258
1810.04	262
1812.12	270
1814.2	294
1816.28	288
1818.35	262
1820.43	256
1822.5	254
1824.58	272
1826.65	272
1828.72	266
1830.79	288
1832.86	268
1834.94	264
1837.01	278
1839.08	252
1841.15	248
1843.21	246
1845.28	262
1847.35	250
1849.41	252
1851.48	262
1853.55	270
1855.61	278
1857.67	272
1859.74	278
1861.8	254
1863.86	260
1865.92	272
1867.98	258
1870.05	262
1872.1	260
1874.16	272
1876.22	270
1878.28	260
1880.34	268
1882.39	262
1884.45	256
1886.5	260
1888.56	278
1890.61	262
1892.67	268
1894.72	258
1896.77	264
1898.82	266
1900.87	278
1902.92	266
1904.97	258
1907.02	252
1909.07	268
1911.12	248
1913.17	270
1915.21	262
1917.26	286
1919.3	276
1921.35	284
1923.39	260
1925.43	246
1927.48	272
1929.52	270
1931.56	258
1933.6	256
1935.64	244
1937.68	248
1939.72	284
1941.76	256
1943.8	252
1945.83	270
1947.87	268
1949.91	242
1951.94	274
1953.98	256
1956.01	256
1958.05	262
1960.08	264
1962.11	260
1964.14	256
1966.17	250
1968.2	258
1970.23	248
1972.26	252
1974.29	252
1976.32	260
1978.35	264
1980.37	272
1982.4	264
1984.43	258
1986.45	246
1988.48	260
1990.5	288
1992.52	256
1994.55	258
1996.57	246
1998.59	262
2000.61	260
2002.63	256
2004.65	264
2006.67	276
2008.69	266
2010.7	260
2012.72	264
2014.74	236
2016.75	256
2018.77	272
2020.78	270
2022.8	260
2024.81	268
2026.83	272
2028.84	276
2030.85	254
2032.86	258
2034.87	268
2036.88	252
2038.89	252
2040.9	260
2042.91	248
2044.91	254
2046.92	240
2048.93	272
2050.93	254
2052.94	268
2054.94	266
2056.95	276
2058.95	276
2060.95	268
2062.95	268
2064.96	260
2066.96	260
2068.96	250
2070.96	256
2072.96	260
2074.95	252
2076.95	256
2078.95	264
2080.95	252
2082.94	270
2084.94	252
2086.93	260
2088.93	270
2090.92	254
2092.91	262
2094.91	264
2096.9	248
2098.89	262
2100.88	258
2102.87	250
2104.86	262
2106.85	264
2108.84	266
2110.83	232
2112.81	250
2114.8	248
2116.78	248
2118.77	266
2120.75	248
2122.74	274
2124.72	252
2126.71	236
2128.69	264
2130.67	258
2132.65	248
2134.63	268
2136.61	260
2138.59	248
2140.57	258
2142.55	266
2144.53	252
2146.5	246
2148.48	252
2150.46	270
2152.43	260
2154.41	256
2156.38	266
2158.35	260
2160.33	260
2162.3	270
2164.27	254
2166.24	244
2168.21	236
2170.18	250
2172.15	254
2174.12	240
2176.09	280
2178.06	252
2180.03	252
2181.99	278
2183.96	250
2185.92	246
2187.89	236
2189.85	256
2191.82	258
2193.78	258
2195.74	248
2197.7	244
2199.67	236
2201.63	256
2203.59	248
2205.55	244
2207.51	246
2209.46	256
2211.42	252
2213.38	254
2215.34	248
2217.29	232
2219.25	240
2221.2	266
2223.16	258
2225.11	238
2227.06	242
2229.02	252
2230.97	236
2232.92	248
2234.87	254
2236.82	238
2238.77	256
2240.72	246
2242.67	238
2244.62	270
2246.57	258
2248.51	266
2250.46	262
2252.4	236
2254.35	244
2256.29	266
2258.24	252
2260.18	270
2262.13	246
2264.07	256
2266.01	258
2267.95	252
2269.89	248
2271.83	244
2273.77	228
2275.71	234
2277.65	246
2279.58	240
2281.52	254
2283.46	228
2285.4	244
2287.33	236
2289.27	254
2291.2	254
2293.13	240
2295.07	234
2297	264
2298.93	240
2300.86	252
2302.79	260
2304.72	272
2306.65	240
2308.58	264
2310.51	260
2312.44	264
2314.37	226
2316.29	248
2318.22	256
2320.15	264
2322.07	266
2324	252
2325.92	286
2327.84	246
2329.77	268
2331.69	252
2333.61	244
2335.53	238
2337.45	240
2339.37	264
2341.29	266
2343.21	238
2345.13	258
2347.05	246
2348.97	256
2350.88	256
2352.8	258
2354.71	244
2356.63	240
2358.54	226
2360.46	254
2362.37	250
2364.28	250
2366.2	240
2368.11	252
2370.02	242
2371.93	248
2373.84	244
2375.75	250
2377.66	246
2379.57	246
2381.47	254
2383.38	244
2385.29	248
2387.2	260
2389.1	276
2391.01	256
2392.91	252
2394.81	270
2396.72	246
2398.62	266
2400.52	242
2402.42	272
2404.33	242
2406.23	272
2408.13	260
2410.03	270
2411.92	248
2413.82	242
2415.72	244
2417.62	232
2419.51	262
2421.41	250
2423.31	242
2425.2	226
2427.1	238
2428.99	234
2430.88	248
2432.78	248
2434.67	220
2436.56	250
2438.45	240
2440.34	228
2442.23	246
2444.12	232
2446.01	238
2447.9	240
2449.79	230