File: Jesse_Dataset_v2/Pure Raman/Polypropylene oxide/633nm/ps-ppo-7jan25-0,0000-map2_Y02_X04.txt
182.393	730
184.993	684
187.593	628
190.193	624
192.79	604
195.387	566
197.983	526
200.578	536
203.174	516
205.766	502
208.36	480
210.951	478
213.542	468
216.131	448
218.721	476
221.309	500
223.897	628
226.483	732
229.069	996
231.654	1208
234.238	1264
236.821	1226
239.404	1194
241.984	1014
244.566	876
247.145	772
249.723	606
252.302	562
254.878	472
257.455	408
260.03	366
262.604	334
265.178	314
267.75	304
270.322	294
272.893	272
275.463	288
278.032	304
280.601	302
283.168	328
285.734	372
288.301	458
290.866	542
293.429	626
295.992	628
298.556	618
301.117	562
303.677	536
306.236	468
308.795	442
311.354	394
313.911	382
316.467	380
319.022	372
321.577	380
324.13	364
326.684	368
329.236	398
331.787	404
334.337	422
336.887	406
339.435	376
341.983	380
344.529	366
347.075	344
349.621	326
352.165	344
354.708	340
357.251	368
359.793	358
362.334	318
364.874	328
367.413	326
369.951	318
372.489	332
375.026	348
377.562	320
380.097	298
382.631	292
385.164	238
387.697	258
390.229	250
392.76	238
395.29	230
397.819	230
400.346	244
402.873	236
405.4	262
407.926	280
410.451	320
412.976	360
415.499	376
418.02	344
420.542	308
423.063	264
425.583	238
428.101	230
430.619	222
433.137	218
435.654	200
438.169	198
440.684	178
443.198	180
445.712	166
448.223	186
450.735	170
453.246	162
455.755	176
458.264	174
460.771	196
463.279	196
465.786	214
468.291	250
470.796	266
473.301	312
475.803	372
478.306	402
480.807	440
483.308	502
485.807	500
488.307	448
490.804	348
493.302	318
495.798	268
498.294	244
500.788	210
503.283	230
505.775	220
508.269	268
510.759	332
513.251	394
515.74	398
518.23	310
520.718	294
523.204	302
525.692	350
528.177	418
530.663	470
533.147	564
535.629	704
538.113	760
540.594	790
543.074	696
545.555	566
548.034	442
550.512	370
552.989	382
555.467	422
557.942	524
560.417	680
562.892	1052
565.365	1690
567.838	2690
570.309	3800
572.78	3822
575.251	2590
577.72	1530
580.189	940
582.656	702
585.123	660
587.589	588
590.055	568
592.52	520
594.983	502
597.446	448
599.908	394
602.369	332
604.829	282
607.289	244
609.747	232
612.205	220
614.663	208
617.119	210
619.574	210
622.029	228
624.483	260
626.936	274
629.389	274
631.84	318
634.291	316
636.741	316
639.19	326
641.639	284
644.086	274
646.533	252
648.979	216
651.424	236
653.869	204
656.313	198
658.754	200
661.196	176
663.638	194
666.078	174
668.518	188
670.957	170
673.394	164
675.831	160
678.268	170
680.703	164
683.137	166
685.571	170
688.005	164
690.437	174
692.868	158
695.299	176
697.729	174
700.159	172
702.586	172
705.014	172
707.441	194
709.866	202
712.292	222
714.716	246
717.14	256
719.563	212
721.984	214
724.406	190
726.825	214
729.246	214
731.665	216
734.082	204
736.5	222
738.916	220
741.332	234
743.746	310
746.161	324
748.574	342
750.987	316
753.398	288
755.81	292
758.219	254
760.629	224
763.037	216
765.445	190
767.852	186
770.258	184
772.664	192
775.068	216
777.472	206
779.876	240
782.278	222
784.679	216
787.08	190
789.48	190
791.879	214
794.278	192
796.675	184
799.072	200
801.467	182
803.864	210
806.258	220
808.651	218
811.044	206
813.437	216
815.828	212
818.218	226
820.608	242
822.997	276
825.385	334
827.773	500
830.16	848
832.546	1188
834.931	1082
837.315	660
839.699	414
842.081	292
844.463	276
846.844	274
849.226	244
851.606	250
853.985	232
856.363	252
858.741	232
861.117	230
863.493	222
865.868	210
868.243	186
870.616	194
872.989	208
875.36	212
877.731	198
880.102	184
882.472	192
884.841	180
887.209	186
889.577	168
891.944	190
894.31	184
896.674	178
899.039	194
901.403	180
903.766	174
906.128	184
908.49	180
910.849	174
913.209	176
915.569	190
917.927	174
920.284	178
922.641	186
924.997	188
927.353	172
929.707	206
932.061	180
934.414	204
936.765	220
939.117	204
941.469	236
943.818	268
946.167	284
948.515	330
950.863	416
953.211	534
955.556	696
957.902	850
960.246	954
962.59	918
964.933	762
967.276	640
969.617	510
971.958	462
974.298	388
976.638	280
978.976	256
981.314	238
983.651	228
985.988	220
988.323	224
990.659	222
992.992	246
995.325	212
997.658	206
999.99	200
1002.32	202
1004.65	202
1006.98	190
1009.31	204
1011.64	206
1013.97	200
1016.29	220
1018.62	242
1020.94	258
1023.27	250
1025.59	254
1027.91	260
1030.24	272
1032.56	304
1034.88	284
1037.2	282
1039.52	258
1041.84	260
1044.15	232
1046.47	240
1048.79	228
1051.1	216
1053.42	214
1055.73	192
1058.04	214
1060.36	212
1062.67	198
1064.98	220
1067.29	204
1069.6	198
1071.91	212
1074.22	208
1076.52	202
1078.83	190
1081.14	214
1083.44	210
1085.75	196
1088.05	210
1090.35	198
1092.65	220
1094.95	214
1097.26	230
1099.56	230
1101.86	234
1104.15	282
1106.45	396
1108.75	584
1111.05	854
1113.34	920
1115.64	764
1117.93	512
1120.22	386
1122.52	290
1124.81	302
1127.1	276
1129.39	242
1131.68	260
1133.97	248
1136.26	242
1138.54	254
1140.83	242
1143.12	248
1145.4	242
1147.69	242
1149.97	214
1152.25	224
1154.54	238
1156.82	248
1159.1	274
1161.38	282
1163.66	270
1165.94	268
1168.22	232
1170.49	254
1172.77	248
1175.05	278
1177.32	318
1179.6	340
1181.87	446
1184.14	584
1186.42	652
1188.69	636
1190.96	510
1193.23	466
1195.5	436
1197.77	424
1200.03	454
1202.3	456
1204.57	476
1206.83	434
1209.1	376
1211.36	292
1213.63	266
1215.89	240
1218.15	242
1220.41	238
1222.67	250
1224.93	280
1227.19	322
1229.45	362
1231.71	322
1233.97	306
1236.22	290
1238.48	278
1240.73	246
1242.99	244
1245.24	232
1247.5	220
1249.75	230
1252	218
1254.25	212
1256.5	242
1258.75	242
1261	232
1263.25	240
1265.49	250
1267.74	250
1269.99	254
1272.23	262
1274.48	258
1276.72	294
1278.96	304
1281.21	338
1283.45	358
1285.69	390
1287.93	410
1290.17	448
1292.41	480
1294.64	614
1296.88	810
1299.12	1146
1301.36	1574
1303.59	1986
1305.82	2256
1308.06	1912
1310.29	1370
1312.52	970
1314.76	736
1316.99	610
1319.22	566
1321.45	530
1323.68	482
1325.9	472
1328.13	476
1330.36	442
1332.58	406
1334.81	372
1337.04	350
1339.26	354
1341.48	348
1343.71	354
1345.93	378
1348.15	372
1350.37	400
1352.59	374
1354.81	364
1357.03	330
1359.24	322
1361.46	320
1363.68	312
1365.89	320
1368.11	350
1370.32	384
1372.54	526
1374.75	754
1376.96	982
1379.17	1084
1381.38	1054
1383.59	944
1385.8	748
1388.01	550
1390.22	382
1392.43	326
1394.63	310
1396.84	280
1399.05	276
1401.25	268
1403.45	274
1405.66	286
1407.86	284
1410.06	292
1412.26	280
1414.46	300
1416.66	330
1418.86	342
1421.06	352
1423.26	418
1425.46	418
1427.65	414
1429.85	456
1432.04	448
1434.24	458
1436.43	490
1438.62	528
1440.82	500
1443.01	514
1445.2	478
1447.39	480
1449.58	424
1451.77	404
1453.95	400
1456.14	394
1458.33	402
1460.52	394
1462.7	396
1464.89	382
1467.07	384
1469.25	368
1471.44	380
1473.62	368
1475.8	378
1477.98	356
1480.16	340
1482.34	338
1484.52	354
1486.7	348
1488.87	310
1491.05	310
1493.23	312
1495.4	272
1497.58	284
1499.75	300
1501.92	284
1504.1	276
1506.27	288
1508.44	298
1510.61	306
1512.78	274
1514.95	268
1517.12	276
1519.28	284
1521.45	268
1523.62	262
1525.78	270
1527.95	280
1530.11	290
1532.28	268
1534.44	282
1536.6	284
1538.76	272
1540.93	296
1543.09	262
1545.25	270
1547.41	300
1549.56	300
1551.72	294
1553.88	276
1556.03	294
1558.19	300
1560.35	284
1562.5	302
1564.65	304
1566.81	300
1568.96	300
1571.11	324
1573.26	336
1575.41	376
1577.56	398
1579.71	436
1581.86	460
1584.01	484
1586.15	564
1588.3	700
1590.45	776
1592.59	906
1594.74	1098
1596.88	1218
1599.02	1420
1601.17	1446
1603.31	1540
1605.45	1436
1607.59	1276
1609.73	1136
1611.87	1002
1614.01	872
1616.14	776
1618.28	640
1620.42	562
1622.55	482
1624.69	396
1626.82	360
1628.96	342
1631.09	304
1633.22	304
1635.36	298
1637.49	254
1639.62	268
1641.75	270
1643.88	252
1646	252
1648.13	258
1650.26	242
1652.39	248
1654.51	240
1656.64	258
1658.76	238
1660.89	240
1663.01	234
1665.13	240
1667.26	236
1669.38	238
1671.5	238
1673.62	240
1675.74	224
1677.86	246
1679.97	236
1682.09	250
1684.21	234
1686.33	262
1688.44	232
1690.56	248
1692.67	260
1694.78	266
1696.9	248
1699.01	246
1701.12	242
1703.23	262
1705.34	234
1707.45	240
1709.56	240
1711.67	244
1713.78	244
1715.88	214
1717.99	238
1720.1	222
1722.2	232
1724.31	222
1726.41	222
1728.51	220
1730.62	220
1732.72	216
1734.82	210
1736.92	210
1739.02	234
1741.12	208
1743.22	230
1745.32	222
1747.42	218
1749.51	222
1751.61	216
1753.7	210
1755.8	216
1757.89	214
1759.99	208
1762.08	214
1764.17	206
1766.26	210
1768.36	216
1770.45	214
1772.54	222
1774.62	220
1776.71	204
1778.8	230
1780.89	206
1782.98	214
1785.06	222
1787.15	216
1789.23	212
1791.32	206
1793.4	224
1795.48	210
1797.56	216
1799.65	194
1801.73	232
1803.81	210
1805.89	224
1807.97	210
1810.04	230
1812.12	206
1814.2	210
1816.28	208
1818.35	224
1820.43	212
1822.5	212
1824.58	212
1826.65	208
1828.72	206
1830.79	206
1832.86	222
1834.94	218
1837.01	210
1839.08	222
1841.15	204
1843.21	226
1845.28	204
1847.35	210
1849.41	212
1851.48	206
1853.55	206
1855.61	206
1857.67	196
1859.74	198
1861.8	214
1863.86	212
1865.92	216
1867.98	224
1870.05	206
1872.1	218
1874.16	226
1876.22	218
1878.28	208
1880.34	230
1882.39	228
1884.45	198
1886.5	198
1888.56	216
1890.61	224
1892.67	222
1894.72	220
1896.77	206
1898.82	242
1900.87	216
1902.92	202
1904.97	216
1907.02	212
1909.07	208
1911.12	206
1913.17	210
1915.21	220
1917.26	220
1919.3	222
1921.35	214
1923.39	206
1925.43	220
1927.48	214
1929.52	216
1931.56	220
1933.6	222
1935.64	216
1937.68	194
1939.72	224
1941.76	212
1943.8	226
1945.83	228
1947.87	204
1949.91	208
1951.94	190
1953.98	218
1956.01	202
1958.05	224
1960.08	214
1962.11	190
1964.14	214
1966.17	210
1968.2	208
1970.23	212
1972.26	206
1974.29	212
1976.32	208
1978.35	230
1980.37	216
1982.4	224
1984.43	210
1986.45	220
1988.48	204
1990.5	210
1992.52	224
1994.55	202
1996.57	208
1998.59	206
2000.61	236
2002.63	220
2004.65	208
2006.67	218
2008.69	218
2010.7	218
2012.72	202
2014.74	202
2016.75	208
2018.77	216
2020.78	204
2022.8	214
2024.81	220
2026.83	218
2028.84	214
2030.85	216
2032.86	200
2034.87	212
2036.88	210
2038.89	238
2040.9	216
2042.91	232
2044.91	222
2046.92	218
2048.93	210
2050.93	210
2052.94	230
2054.94	220
2056.95	214
2058.95	216
2060.95	228
2062.95	212
2064.96	208
2066.96	216
2068.96	216
2070.96	218
2072.96	216
2074.95	216
2076.95	218
2078.95	204
2080.95	200
2082.94	208
2084.94	224
2086.93	226
2088.93	220
2090.92	216
2092.91	212
2094.91	210
2096.9	208
2098.89	214
2100.88	208
2102.87	226
2104.86	228
2106.85	192
2108.84	214
2110.83	216
2112.81	194
2114.8	206
2116.78	226
2118.77	210
2120.75	208
2122.74	216
2124.72	204
2126.71	198
2128.69	218
2130.67	206
2132.65	220
2134.63	236
2136.61	210
2138.59	224
2140.57	228
2142.55	216
2144.53	220
2146.5	208
2148.48	232
2150.46	210
2152.43	204
2154.41	210
2156.38	198
2158.35	216
2160.33	210
2162.3	204
2164.27	210
2166.24	204
2168.21	208
2170.18	204
2172.15	204
2174.12	222
2176.09	206
2178.06	210
2180.03	216
2181.99	208
2183.96	204
2185.92	216
2187.89	220
2189.85	222
2191.82	206
2193.78	196
2195.74	222
2197.7	214
2199.67	220
2201.63	210
2203.59	216
2205.55	212
2207.51	214
2209.46	210
2211.42	202
2213.38	212
2215.34	202
2217.29	224
2219.25	220
2221.2	218
2223.16	194
2225.11	216
2227.06	226
2229.02	212
2230.97	222
2232.92	218
2234.87	214
2236.82	218
2238.77	232
2240.72	222
2242.67	234
2244.62	214
2246.57	216
2248.51	212
2250.46	224
2252.4	214
2254.35	232
2256.29	226
2258.24	212
2260.18	216
2262.13	218
2264.07	228
2266.01	202
2267.95	210
2269.89	224
2271.83	236
2273.77	210
2275.71	210
2277.65	218
2279.58	210
2281.52	228
2283.46	212
2285.4	220
2287.33	204
2289.27	232
2291.2	226
2293.13	204
2295.07	230
2297	190
2298.93	216
2300.86	206
2302.79	210
2304.72	220
2306.65	232
2308.58	224
2310.51	214
2312.44	214
2314.37	236
2316.29	216
2318.22	212
2320.15	222
2322.07	234
2324	226
2325.92	234
2327.84	232
2329.77	222
2331.69	212
2333.61	220
2335.53	222
2337.45	232
2339.37	232
2341.29	222
2343.21	230
2345.13	216
2347.05	218
2348.97	216
2350.88	210
2352.8	226
2354.71	216
2356.63	202
2358.54	220
2360.46	230
2362.37	218
2364.28	208
2366.2	222
2368.11	216
2370.02	210
2371.93	208
2373.84	210
2375.75	226
2377.66	210
2379.57	232
2381.47	212
2383.38	232
2385.29	224
2387.2	208
2389.1	230
2391.01	206
2392.91	244
2394.81	216
2396.72	236
2398.62	210
2400.52	206
2402.42	226
2404.33	220
2406.23	228
2408.13	222
2410.03	218
2411.92	210
2413.82	212
2415.72	230
2417.62	234
2419.51	210
2421.41	218
2423.31	200
2425.2	210
2427.1	216
2428.99	212
2430.88	210
2432.78	216
2434.67	212
2436.56	216
2438.45	204
2440.34	204
2442.23	218
2444.12	210
2446.01	208
2447.9	194
2449.79	220