File: Jesse_Dataset_v2/Pure Raman/Polypropylene oxide/633nm/ps-ppo-7jan25-0,0000-map2_Y02_X10.txt
182.393	712
184.993	698
187.593	640
190.193	648
192.79	616
195.387	572
197.983	538
200.578	520
203.174	540
205.766	554
208.36	508
210.951	492
213.542	460
216.131	520
218.721	486
221.309	566
223.897	652
226.483	794
229.069	1012
231.654	1212
234.238	1358
236.821	1292
239.404	1206
241.984	1078
244.566	920
247.145	798
249.723	664
252.302	578
254.878	480
257.455	416
260.03	372
262.604	354
265.178	330
267.75	312
270.322	292
272.893	310
275.463	302
278.032	296
280.601	320
283.168	380
285.734	386
288.301	484
290.866	552
293.429	638
295.992	656
298.556	610
301.117	576
303.677	564
306.236	498
308.795	474
311.354	440
313.911	420
316.467	396
319.022	404
321.577	348
324.13	378
326.684	406
329.236	420
331.787	414
334.337	460
336.887	420
339.435	398
341.983	386
344.529	384
347.075	378
349.621	350
352.165	372
354.708	378
357.251	366
359.793	384
362.334	356
364.874	354
367.413	350
369.951	350
372.489	386
375.026	350
377.562	322
380.097	336
382.631	290
385.164	286
387.697	250
390.229	254
392.76	244
395.29	262
397.819	252
400.346	246
402.873	266
405.4	278
407.926	286
410.451	326
412.976	374
415.499	398
418.02	380
420.542	322
423.063	318
425.583	296
428.101	246
430.619	234
433.137	232
435.654	212
438.169	196
440.684	208
443.198	198
445.712	198
448.223	180
450.735	190
453.246	196
455.755	190
458.264	188
460.771	198
463.279	224
465.786	226
468.291	266
470.796	302
473.301	320
475.803	386
478.306	430
480.807	490
483.308	526
485.807	522
488.307	460
490.804	378
493.302	312
495.798	286
498.294	258
500.788	248
503.283	232
505.775	264
508.269	266
510.759	344
513.251	414
515.74	418
518.23	338
520.718	332
523.204	322
525.692	382
528.177	412
530.663	476
533.147	606
535.629	734
538.113	818
540.594	834
543.074	730
545.555	600
548.034	466
550.512	422
552.989	408
555.467	452
557.942	552
560.417	708
562.892	1056
565.365	1722
567.838	2742
570.309	3806
572.78	3824
575.251	2668
577.72	1602
580.189	946
582.656	752
585.123	642
587.589	628
590.055	588
592.52	528
594.983	502
597.446	482
599.908	426
602.369	356
604.829	270
607.289	248
609.747	242
612.205	238
614.663	250
617.119	212
619.574	230
622.029	262
624.483	268
626.936	288
629.389	326
631.84	358
634.291	338
636.741	354
639.19	332
641.639	286
644.086	296
646.533	268
648.979	266
651.424	256
653.869	226
656.313	210
658.754	230
661.196	210
663.638	202
666.078	186
668.518	194
670.957	184
673.394	188
675.831	190
678.268	192
680.703	188
683.137	194
685.571	184
688.005	172
690.437	198
692.868	194
695.299	186
697.729	192
700.159	188
702.586	186
705.014	198
707.441	230
709.866	246
712.292	246
714.716	264
717.14	262
719.563	240
721.984	234
724.406	230
726.825	210
729.246	224
731.665	222
734.082	252
736.5	242
738.916	250
741.332	270
743.746	282
746.161	324
748.574	348
750.987	318
753.398	316
755.81	316
758.219	268
760.629	240
763.037	218
765.445	224
767.852	208
770.258	222
772.664	244
775.068	246
777.472	232
779.876	240
782.278	240
784.679	226
787.08	212
789.48	214
791.879	222
794.278	208
796.675	218
799.072	214
801.467	204
803.864	224
806.258	234
808.651	246
811.044	210
813.437	216
815.828	226
818.218	244
820.608	272
822.997	290
825.385	366
827.773	530
830.16	828
832.546	1214
834.931	1122
837.315	674
839.699	422
842.081	328
844.463	284
846.844	306
849.226	290
851.606	282
853.985	274
856.363	266
858.741	260
861.117	240
863.493	238
865.868	242
868.243	224
870.616	202
872.989	216
875.36	216
877.731	204
880.102	212
882.472	206
884.841	200
887.209	200
889.577	204
891.944	206
894.31	202
896.674	198
899.039	188
901.403	214
903.766	186
906.128	194
908.49	204
910.849	212
913.209	194
915.569	180
917.927	198
920.284	202
922.641	210
924.997	206
927.353	188
929.707	192
932.061	188
934.414	214
936.765	232
939.117	242
941.469	254
943.818	296
946.167	302
948.515	372
950.863	450
953.211	604
955.556	714
957.902	896
960.246	992
962.59	904
964.933	770
967.276	654
969.617	578
971.958	460
974.298	382
976.638	334
978.976	264
981.314	270
983.651	248
985.988	246
988.323	238
990.659	248
992.992	264
995.325	242
997.658	242
999.99	222
1002.32	228
1004.65	236
1006.98	236
1009.31	234
1011.64	224
1013.97	246
1016.29	236
1018.62	250
1020.94	260
1023.27	270
1025.59	292
1027.91	308
1030.24	314
1032.56	296
1034.88	306
1037.2	294
1039.52	286
1041.84	290
1044.15	296
1046.47	252
1048.79	262
1051.1	262
1053.42	250
1055.73	236
1058.04	208
1060.36	212
1062.67	232
1064.98	226
1067.29	224
1069.6	222
1071.91	214
1074.22	238
1076.52	226
1078.83	250
1081.14	222
1083.44	240
1085.75	254
1088.05	240
1090.35	230
1092.65	234
1094.95	242
1097.26	238
1099.56	246
1101.86	264
1104.15	312
1106.45	392
1108.75	612
1111.05	874
1113.34	990
1115.64	774
1117.93	510
1120.22	404
1122.52	336
1124.81	318
1127.1	300
1129.39	274
1131.68	280
1133.97	278
1136.26	276
1138.54	284
1140.83	264
1143.12	278
1145.4	260
1147.69	260
1149.97	228
1152.25	248
1154.54	232
1156.82	278
1159.1	288
1161.38	312
1163.66	306
1165.94	312
1168.22	284
1170.49	262
1172.77	290
1175.05	298
1177.32	330
1179.6	386
1181.87	462
1184.14	602
1186.42	666
1188.69	638
1190.96	510
1193.23	472
1195.5	458
1197.77	466
1200.03	486
1202.3	502
1204.57	460
1206.83	440
1209.1	404
1211.36	340
1213.63	286
1215.89	274
1218.15	264
1220.41	260
1222.67	294
1224.93	318
1227.19	344
1229.45	390
1231.71	374
1233.97	334
1236.22	298
1238.48	282
1240.73	258
1242.99	260
1245.24	240
1247.5	242
1249.75	238
1252	262
1254.25	246
1256.5	238
1258.75	272
1261	270
1263.25	268
1265.49	276
1267.74	278
1269.99	276
1272.23	278
1274.48	290
1276.72	316
1278.96	326
1281.21	370
1283.45	392
1285.69	390
1287.93	478
1290.17	464
1292.41	526
1294.64	644
1296.88	846
1299.12	1154
1301.36	1590
1303.59	2124
1305.82	2276
1308.06	1924
1310.29	1374
1312.52	984
1314.76	774
1316.99	662
1319.22	584
1321.45	548
1323.68	532
1325.9	528
1328.13	494
1330.36	472
1332.58	456
1334.81	404
1337.04	396
1339.26	376
1341.48	368
1343.71	386
1345.93	402
1348.15	450
1350.37	424
1352.59	410
1354.81	406
1357.03	346
1359.24	342
1361.46	364
1363.68	344
1365.89	358
1368.11	374
1370.32	454
1372.54	560
1374.75	816
1376.96	1020
1379.17	1132
1381.38	1086
1383.59	952
1385.8	782
1388.01	542
1390.22	426
1392.43	374
1394.63	332
1396.84	320
1399.05	318
1401.25	294
1403.45	320
1405.66	290
1407.86	308
1410.06	308
1412.26	326
1414.46	336
1416.66	358
1418.86	378
1421.06	420
1423.26	436
1425.46	460
1427.65	442
1429.85	466
1432.04	474
1434.24	502
1436.43	516
1438.62	550
1440.82	528
1443.01	548
1445.2	476
1447.39	458
1449.58	442
1451.77	454
1453.95	428
1456.14	398
1458.33	422
1460.52	412
1462.7	432
1464.89	414
1467.07	420
1469.25	408
1471.44	382
1473.62	426
1475.8	396
1477.98	400
1480.16	390
1482.34	360
1484.52	350
1486.7	308
1488.87	332
1491.05	314
1493.23	330
1495.4	326
1497.58	320
1499.75	304
1501.92	312
1504.1	320
1506.27	314
1508.44	316
1510.61	320
1512.78	314
1514.95	312
1517.12	302
1519.28	266
1521.45	318
1523.62	294
1525.78	302
1527.95	304
1530.11	302
1532.28	304
1534.44	290
1536.6	306
1538.76	308
1540.93	298
1543.09	296
1545.25	314
1547.41	318
1549.56	310
1551.72	320
1553.88	312
1556.03	330
1558.19	310
1560.35	308
1562.5	318
1564.65	326
1566.81	330
1568.96	336
1571.11	350
1573.26	390
1575.41	404
1577.56	402
1579.71	466
1581.86	506
1584.01	556
1586.15	622
1588.3	662
1590.45	764
1592.59	954
1594.74	1122
1596.88	1250
1599.02	1444
1601.17	1562
1603.31	1548
1605.45	1426
1607.59	1346
1609.73	1198
1611.87	1034
1614.01	940
1616.14	778
1618.28	652
1620.42	552
1622.55	470
1624.69	432
1626.82	376
1628.96	354
1631.09	358
1633.22	320
1635.36	314
1637.49	296
1639.62	304
1641.75	274
1643.88	272
1646	284
1648.13	284
1650.26	280
1652.39	264
1654.51	258
1656.64	266
1658.76	254
1660.89	268
1663.01	288
1665.13	262
1667.26	274
1669.38	272
1671.5	254
1673.62	264
1675.74	252
1677.86	250
1679.97	256
1682.09	268
1684.21	260
1686.33	278
1688.44	270
1690.56	274
1692.67	266
1694.78	278
1696.9	276
1699.01	284
1701.12	254
1703.23	258
1705.34	262
1707.45	276
1709.56	284
1711.67	264
1713.78	258
1715.88	276
1717.99	262
1720.1	250
1722.2	254
1724.31	250
1726.41	252
1728.51	230
1730.62	246
1732.72	226
1734.82	250
1736.92	248
1739.02	226
1741.12	246
1743.22	240
1745.32	226
1747.42	242
1749.51	240
1751.61	258
1753.7	234
1755.8	240
1757.89	256
1759.99	244
1762.08	230
1764.17	236
1766.26	240
1768.36	232
1770.45	236
1772.54	232
1774.62	250
1776.71	236
1778.8	244
1780.89	228
1782.98	254
1785.06	250
1787.15	234
1789.23	244
1791.32	234
1793.4	248
1795.48	244
1797.56	236
1799.65	232
1801.73	228
1803.81	232
1805.89	232
1807.97	246
1810.04	236
1812.12	240
1814.2	246
1816.28	246
1818.35	246
1820.43	238
1822.5	232
1824.58	224
1826.65	214
1828.72	230
1830.79	224
1832.86	230
1834.94	246
1837.01	214
1839.08	256
1841.15	246
1843.21	248
1845.28	220
1847.35	230
1849.41	230
1851.48	246
1853.55	232
1855.61	240
1857.67	256
1859.74	214
1861.8	226
1863.86	222
1865.92	236
1867.98	228
1870.05	242
1872.1	234
1874.16	238
1876.22	242
1878.28	252
1880.34	244
1882.39	248
1884.45	234
1886.5	234
1888.56	242
1890.61	224
1892.67	228
1894.72	236
1896.77	242
1898.82	250
1900.87	244
1902.92	226
1904.97	236
1907.02	240
1909.07	232
1911.12	242
1913.17	226
1915.21	258
1917.26	244
1919.3	222
1921.35	234
1923.39	244
1925.43	228
1927.48	260
1929.52	254
1931.56	236
1933.6	228
1935.64	250
1937.68	250
1939.72	228
1941.76	254
1943.8	250
1945.83	244
1947.87	238
1949.91	236
1951.94	234
1953.98	232
1956.01	242
1958.05	232
1960.08	240
1962.11	242
1964.14	236
1966.17	250
1968.2	242
1970.23	226
1972.26	236
1974.29	246
1976.32	220
1978.35	248
1980.37	232
1982.4	234
1984.43	240
1986.45	224
1988.48	246
1990.5	232
1992.52	236
1994.55	226
1996.57	240
1998.59	254
2000.61	230
2002.63	220
2004.65	222
2006.67	236
2008.69	256
2010.7	226
2012.72	256
2014.74	234
2016.75	218
2018.77	230
2020.78	254
2022.8	240
2024.81	252
2026.83	228
2028.84	242
2030.85	226
2032.86	242
2034.87	248
2036.88	218
2038.89	236
2040.9	234
2042.91	236
2044.91	242
2046.92	234
2048.93	232
2050.93	248
2052.94	244
2054.94	234
2056.95	230
2058.95	230
2060.95	238
2062.95	232
2064.96	250
2066.96	224
2068.96	248
2070.96	248
2072.96	248
2074.95	242
2076.95	238
2078.95	218
2080.95	228
2082.94	240
2084.94	242
2086.93	240
2088.93	240
2090.92	240
2092.91	224
2094.91	232
2096.9	236
2098.89	242
2100.88	224
2102.87	234
2104.86	228
2106.85	240
2108.84	248
2110.83	238
2112.81	226
2114.8	252
2116.78	230
2118.77	238
2120.75	228
2122.74	250
2124.72	228
2126.71	240
2128.69	222
2130.67	222
2132.65	238
2134.63	248
2136.61	230
2138.59	232
2140.57	230
2142.55	238
2144.53	252
2146.5	234
2148.48	210
2150.46	226
2152.43	248
2154.41	244
2156.38	244
2158.35	236
2160.33	244
2162.3	238
2164.27	244
2166.24	232
2168.21	218
2170.18	232
2172.15	224
2174.12	252
2176.09	234
2178.06	254
2180.03	230
2181.99	220
2183.96	260
2185.92	234
2187.89	226
2189.85	238
2191.82	230
2193.78	236
2195.74	216
2197.7	228
2199.67	246
2201.63	236
2203.59	212
2205.55	234
2207.51	226
2209.46	224
2211.42	218
2213.38	242
2215.34	232
2217.29	236
2219.25	234
2221.2	232
2223.16	218
2225.11	234
2227.06	216
2229.02	240
2230.97	226
2232.92	234
2234.87	226
2236.82	246
2238.77	236
2240.72	242
2242.67	240
2244.62	224
2246.57	234
2248.51	234
2250.46	240
2252.4	228
2254.35	248
2256.29	250
2258.24	214
2260.18	240
2262.13	232
2264.07	244
2266.01	230
2267.95	222
2269.89	232
2271.83	230
2273.77	246
2275.71	228
2277.65	238
2279.58	230
2281.52	232
2283.46	224
2285.4	234
2287.33	246
2289.27	230
2291.2	226
2293.13	226
2295.07	228
2297	244
2298.93	238
2300.86	232
2302.79	226
2304.72	240
2306.65	230
2308.58	232
2310.51	236
2312.44	252
2314.37	222
2316.29	248
2318.22	226
2320.15	240
2322.07	242
2324	270
2325.92	236
2327.84	248
2329.77	246
2331.69	238
2333.61	240
2335.53	238
2337.45	226
2339.37	230
2341.29	232
2343.21	242
2345.13	224
2347.05	232
2348.97	226
2350.88	248
2352.8	220
2354.71	222
2356.63	242
2358.54	236
2360.46	252
2362.37	244
2364.28	218
2366.2	222
2368.11	222
2370.02	248
2371.93	240
2373.84	240
2375.75	224
2377.66	240
2379.57	224
2381.47	224
2383.38	244
2385.29	228
2387.2	234
2389.1	236
2391.01	228
2392.91	232
2394.81	240
2396.72	248
2398.62	228
2400.52	236
2402.42	244
2404.33	240
2406.23	230
2408.13	242
2410.03	244
2411.92	230
2413.82	230
2415.72	242
2417.62	228
2419.51	224
2421.41	214
2423.31	220
2425.2	222
2427.1	222
2428.99	216
2430.88	222
2432.78	222
2434.67	234
2436.56	224
2438.45	224
2440.34	236
2442.23	226
2444.12	212
2446.01	216
2447.9	224
2449.79	234