File: Jesse_Dataset_v2/Pure Raman/Polypropylene oxide/633nm/ps-ppo-7jan25-0,0000-map2_Y06_X08.txt
182.393	710
184.993	674
187.593	596
190.193	618
192.79	598
195.387	562
197.983	522
200.578	510
203.174	512
205.766	478
208.36	484
210.951	458
213.542	436
216.131	444
218.721	456
221.309	500
223.897	584
226.483	726
229.069	900
231.654	1108
234.238	1254
236.821	1202
239.404	1144
241.984	1006
244.566	844
247.145	726
249.723	612
252.302	524
254.878	454
257.455	404
260.03	362
262.604	316
265.178	304
267.75	294
270.322	290
272.893	286
275.463	284
278.032	270
280.601	292
283.168	342
285.734	366
288.301	448
290.866	490
293.429	600
295.992	626
298.556	598
301.117	556
303.677	490
306.236	446
308.795	416
311.354	404
313.911	364
316.467	364
319.022	356
321.577	364
324.13	356
326.684	368
329.236	378
331.787	402
334.337	394
336.887	400
339.435	362
341.983	366
344.529	366
347.075	324
349.621	342
352.165	370
354.708	356
357.251	336
359.793	354
362.334	322
364.874	304
367.413	316
369.951	320
372.489	304
375.026	320
377.562	318
380.097	284
382.631	254
385.164	258
387.697	224
390.229	238
392.76	244
395.29	220
397.819	232
400.346	238
402.873	232
405.4	242
407.926	268
410.451	310
412.976	350
415.499	372
418.02	312
420.542	302
423.063	264
425.583	252
428.101	214
430.619	212
433.137	208
435.654	200
438.169	194
440.684	186
443.198	170
445.712	166
448.223	162
450.735	152
453.246	178
455.755	180
458.264	182
460.771	188
463.279	186
465.786	194
468.291	230
470.796	258
473.301	308
475.803	334
478.306	390
480.807	442
483.308	510
485.807	496
488.307	434
490.804	334
493.302	316
495.798	276
498.294	226
500.788	208
503.283	214
505.775	208
508.269	250
510.759	338
513.251	392
515.74	366
518.23	320
520.718	294
523.204	312
525.692	322
528.177	392
530.663	462
533.147	582
535.629	712
538.113	792
540.594	772
543.074	698
545.555	576
548.034	440
550.512	380
552.989	372
555.467	412
557.942	510
560.417	690
562.892	976
565.365	1578
567.838	2620
570.309	3660
572.78	3648
575.251	2628
577.72	1518
580.189	910
582.656	694
585.123	608
587.589	602
590.055	560
592.52	526
594.983	496
597.446	450
599.908	398
602.369	318
604.829	274
607.289	252
609.747	212
612.205	202
614.663	202
617.119	226
619.574	212
622.029	240
624.483	252
626.936	274
629.389	294
631.84	298
634.291	302
636.741	324
639.19	318
641.639	272
644.086	270
646.533	238
648.979	228
651.424	216
653.869	220
656.313	200
658.754	172
661.196	178
663.638	190
666.078	174
668.518	170
670.957	164
673.394	176
675.831	152
678.268	172
680.703	166
683.137	170
685.571	168
688.005	164
690.437	166
692.868	164
695.299	154
697.729	164
700.159	172
702.586	164
705.014	186
707.441	198
709.866	212
712.292	244
714.716	244
717.14	230
719.563	228
721.984	208
724.406	200
726.825	206
729.246	194
731.665	206
734.082	212
736.5	206
738.916	234
741.332	222
743.746	282
746.161	314
748.574	350
750.987	298
753.398	286
755.81	286
758.219	254
760.629	220
763.037	202
765.445	170
767.852	204
770.258	196
772.664	190
775.068	188
777.472	216
779.876	210
782.278	222
784.679	214
787.08	188
789.48	198
791.879	190
794.278	194
796.675	206
799.072	198
801.467	192
803.864	202
806.258	208
808.651	208
811.044	202
813.437	208
815.828	216
818.218	200
820.608	248
822.997	252
825.385	342
827.773	472
830.16	822
832.546	1138
834.931	1126
837.315	626
839.699	408
842.081	292
844.463	278
846.844	270
849.226	264
851.606	260
853.985	224
856.363	246
858.741	234
861.117	234
863.493	196
865.868	214
868.243	204
870.616	206
872.989	200
875.36	180
877.731	200
880.102	194
882.472	202
884.841	176
887.209	186
889.577	186
891.944	186
894.31	178
896.674	180
899.039	178
901.403	186
903.766	164
906.128	178
908.49	176
910.849	172
913.209	178
915.569	178
917.927	190
920.284	182
922.641	174
924.997	188
927.353	188
929.707	186
932.061	202
934.414	206
936.765	194
939.117	236
941.469	228
943.818	272
946.167	280
948.515	320
950.863	436
953.211	526
955.556	710
957.902	818
960.246	928
962.59	852
964.933	752
967.276	636
969.617	536
971.958	444
974.298	368
976.638	304
978.976	262
981.314	242
983.651	234
985.988	230
988.323	220
990.659	224
992.992	218
995.325	218
997.658	214
999.99	220
1002.32	208
1004.65	194
1006.98	192
1009.31	196
1011.64	190
1013.97	212
1016.29	214
1018.62	230
1020.94	242
1023.27	236
1025.59	232
1027.91	248
1030.24	276
1032.56	286
1034.88	268
1037.2	276
1039.52	276
1041.84	274
1044.15	242
1046.47	226
1048.79	228
1051.1	232
1053.42	216
1055.73	204
1058.04	208
1060.36	200
1062.67	194
1064.98	194
1067.29	204
1069.6	206
1071.91	194
1074.22	200
1076.52	200
1078.83	194
1081.14	204
1083.44	204
1085.75	198
1088.05	204
1090.35	210
1092.65	204
1094.95	226
1097.26	204
1099.56	230
1101.86	252
1104.15	278
1106.45	366
1108.75	570
1111.05	818
1113.34	920
1115.64	696
1117.93	534
1120.22	398
1122.52	312
1124.81	304
1127.1	284
1129.39	268
1131.68	252
1133.97	250
1136.26	260
1138.54	248
1140.83	254
1143.12	246
1145.4	248
1147.69	228
1149.97	226
1152.25	218
1154.54	232
1156.82	232
1159.1	266
1161.38	260
1163.66	292
1165.94	258
1168.22	276
1170.49	254
1172.77	264
1175.05	266
1177.32	286
1179.6	340
1181.87	438
1184.14	556
1186.42	620
1188.69	614
1190.96	488
1193.23	452
1195.5	426
1197.77	440
1200.03	448
1202.3	494
1204.57	462
1206.83	408
1209.1	370
1211.36	296
1213.63	272
1215.89	242
1218.15	232
1220.41	246
1222.67	270
1224.93	264
1227.19	316
1229.45	342
1231.71	356
1233.97	314
1236.22	272
1238.48	250
1240.73	234
1242.99	230
1245.24	244
1247.5	230
1249.75	230
1252	234
1254.25	214
1256.5	216
1258.75	220
1261	218
1263.25	228
1265.49	252
1267.74	244
1269.99	254
1272.23	238
1274.48	266
1276.72	260
1278.96	322
1281.21	316
1283.45	346
1285.69	416
1287.93	412
1290.17	458
1292.41	502
1294.64	612
1296.88	746
1299.12	1094
1301.36	1594
1303.59	2036
1305.82	2202
1308.06	1888
1310.29	1298
1312.52	964
1314.76	730
1316.99	640
1319.22	546
1321.45	498
1323.68	486
1325.9	510
1328.13	468
1330.36	434
1332.58	398
1334.81	356
1337.04	338
1339.26	324
1341.48	314
1343.71	342
1345.93	378
1348.15	364
1350.37	384
1352.59	364
1354.81	358
1357.03	334
1359.24	308
1361.46	318
1363.68	316
1365.89	336
1368.11	356
1370.32	412
1372.54	562
1374.75	746
1376.96	928
1379.17	1090
1381.38	1060
1383.59	896
1385.8	708
1388.01	530
1390.22	398
1392.43	340
1394.63	298
1396.84	290
1399.05	298
1401.25	266
1403.45	282
1405.66	260
1407.86	268
1410.06	280
1412.26	302
1414.46	312
1416.66	320
1418.86	334
1421.06	376
1423.26	410
1425.46	418
1427.65	400
1429.85	414
1432.04	432
1434.24	472
1436.43	496
1438.62	520
1440.82	514
1443.01	500
1445.2	450
1447.39	430
1449.58	424
1451.77	388
1453.95	380
1456.14	386
1458.33	392
1460.52	366
1462.7	358
1464.89	366
1467.07	370
1469.25	360
1471.44	358
1473.62	378
1475.8	380
1477.98	374
1480.16	338
1482.34	342
1484.52	314
1486.7	308
1488.87	294
1491.05	308
1493.23	292
1495.4	276
1497.58	288
1499.75	260
1501.92	290
1504.1	298
1506.27	276
1508.44	270
1510.61	274
1512.78	262
1514.95	274
1517.12	254
1519.28	258
1521.45	276
1523.62	266
1525.78	270
1527.95	256
1530.11	262
1532.28	262
1534.44	278
1536.6	272
1538.76	276
1540.93	278
1543.09	288
1545.25	276
1547.41	292
1549.56	278
1551.72	272
1553.88	290
1556.03	284
1558.19	306
1560.35	286
1562.5	302
1564.65	304
1566.81	308
1568.96	314
1571.11	332
1573.26	354
1575.41	364
1577.56	394
1579.71	416
1581.86	456
1584.01	522
1586.15	586
1588.3	678
1590.45	750
1592.59	908
1594.74	1028
1596.88	1238
1599.02	1374
1601.17	1460
1603.31	1458
1605.45	1396
1607.59	1276
1609.73	1146
1611.87	1000
1614.01	856
1616.14	714
1618.28	600
1620.42	508
1622.55	454
1624.69	406
1626.82	382
1628.96	344
1631.09	298
1633.22	300
1635.36	292
1637.49	268
1639.62	270
1641.75	272
1643.88	244
1646	254
1648.13	254
1650.26	248
1652.39	254
1654.51	242
1656.64	224
1658.76	250
1660.89	234
1663.01	240
1665.13	224
1667.26	216
1669.38	236
1671.5	232
1673.62	230
1675.74	232
1677.86	230
1679.97	224
1682.09	244
1684.21	236
1686.33	242
1688.44	246
1690.56	256
1692.67	254
1694.78	234
1696.9	270
1699.01	246
1701.12	256
1703.23	240
1705.34	246
1707.45	244
1709.56	232
1711.67	242
1713.78	230
1715.88	224
1717.99	222
1720.1	240
1722.2	226
1724.31	220
1726.41	228
1728.51	216
1730.62	214
1732.72	216
1734.82	208
1736.92	204
1739.02	230
1741.12	222
1743.22	224
1745.32	222
1747.42	226
1749.51	196
1751.61	200
1753.7	198
1755.8	216
1757.89	226
1759.99	218
1762.08	224
1764.17	208
1766.26	222
1768.36	218
1770.45	218
1772.54	196
1774.62	208
1776.71	228
1778.8	206
1780.89	210
1782.98	220
1785.06	212
1787.15	202
1789.23	192
1791.32	206
1793.4	216
1795.48	198
1797.56	224
1799.65	210
1801.73	196
1803.81	202
1805.89	210
1807.97	226
1810.04	202
1812.12	218
1814.2	212
1816.28	200
1818.35	220
1820.43	198
1822.5	216
1824.58	204
1826.65	202
1828.72	200
1830.79	218
1832.86	220
1834.94	206
1837.01	202
1839.08	202
1841.15	208
1843.21	212
1845.28	212
1847.35	216
1849.41	208
1851.48	214
1853.55	214
1855.61	198
1857.67	216
1859.74	204
1861.8	218
1863.86	226
1865.92	228
1867.98	196
1870.05	220
1872.1	208
1874.16	204
1876.22	206
1878.28	208
1880.34	216
1882.39	204
1884.45	196
1886.5	204
1888.56	212
1890.61	202
1892.67	212
1894.72	216
1896.77	210
1898.82	220
1900.87	190
1902.92	210
1904.97	204
1907.02	218
1909.07	220
1911.12	198
1913.17	202
1915.21	230
1917.26	214
1919.3	218
1921.35	226
1923.39	208
1925.43	196
1927.48	206
1929.52	198
1931.56	216
1933.6	222
1935.64	212
1937.68	204
1939.72	216
1941.76	216
1943.8	194
1945.83	212
1947.87	220
1949.91	206
1951.94	196
1953.98	206
1956.01	220
1958.05	218
1960.08	206
1962.11	198
1964.14	206
1966.17	214
1968.2	200
1970.23	216
1972.26	204
1974.29	198
1976.32	222
1978.35	224
1980.37	214
1982.4	222
1984.43	212
1986.45	200
1988.48	214
1990.5	214
1992.52	214
1994.55	212
1996.57	218
1998.59	208
2000.61	204
2002.63	224
2004.65	204
2006.67	212
2008.69	216
2010.7	214
2012.72	208
2014.74	208
2016.75	208
2018.77	206
2020.78	202
2022.8	212
2024.81	216
2026.83	210
2028.84	218
2030.85	212
2032.86	222
2034.87	222
2036.88	208
2038.89	204
2040.9	206
2042.91	202
2044.91	208
2046.92	216
2048.93	210
2050.93	204
2052.94	208
2054.94	222
2056.95	210
2058.95	212
2060.95	202
2062.95	194
2064.96	214
2066.96	198
2068.96	224
2070.96	216
2072.96	216
2074.95	206
2076.95	200
2078.95	220
2080.95	206
2082.94	218
2084.94	222
2086.93	220
2088.93	202
2090.92	208
2092.91	216
2094.91	214
2096.9	198
2098.89	206
2100.88	220
2102.87	204
2104.86	200
2106.85	212
2108.84	200
2110.83	200
2112.81	202
2114.8	220
2116.78	220
2118.77	224
2120.75	202
2122.74	224
2124.72	202
2126.71	202
2128.69	210
2130.67	216
2132.65	198
2134.63	212
2136.61	208
2138.59	214
2140.57	204
2142.55	212
2144.53	202
2146.5	212
2148.48	218
2150.46	206
2152.43	196
2154.41	208
2156.38	204
2158.35	200
2160.33	204
2162.3	198
2164.27	222
2166.24	210
2168.21	212
2170.18	208
2172.15	194
2174.12	194
2176.09	214
2178.06	208
2180.03	210
2181.99	200
2183.96	218
2185.92	192
2187.89	212
2189.85	220
2191.82	208
2193.78	218
2195.74	196
2197.7	222
2199.67	208
2201.63	204
2203.59	210
2205.55	192
2207.51	210
2209.46	210
2211.42	190
2213.38	204
2215.34	222
2217.29	204
2219.25	202
2221.2	214
2223.16	194
2225.11	196
2227.06	204
2229.02	206
2230.97	200
2232.92	220
2234.87	214
2236.82	194
2238.77	208
2240.72	216
2242.67	222
2244.62	222
2246.57	208
2248.51	208
2250.46	218
2252.4	206
2254.35	194
2256.29	220
2258.24	218
2260.18	216
2262.13	202
2264.07	214
2266.01	210
2267.95	218
2269.89	198
2271.83	208
2273.77	216
2275.71	214
2277.65	200
2279.58	208
2281.52	214
2283.46	204
2285.4	190
2287.33	204
2289.27	214
2291.2	200
2293.13	200
2295.07	208
2297	216
2298.93	222
2300.86	222
2302.79	200
2304.72	218
2306.65	200
2308.58	218
2310.51	222
2312.44	208
2314.37	202
2316.29	222
2318.22	234
2320.15	220
2322.07	228
2324	242
2325.92	224
2327.84	214
2329.77	210
2331.69	232
2333.61	218
2335.53	212
2337.45	220
2339.37	212
2341.29	216
2343.21	220
2345.13	212
2347.05	218
2348.97	218
2350.88	210
2352.8	196
2354.71	222
2356.63	220
2358.54	206
2360.46	204
2362.37	206
2364.28	192
2366.2	202
2368.11	214
2370.02	200
2371.93	222
2373.84	214
2375.75	202
2377.66	204
2379.57	220
2381.47	228
2383.38	220
2385.29	214
2387.2	216
2389.1	214
2391.01	214
2392.91	218
2394.81	216
2396.72	218
2398.62	230
2400.52	210
2402.42	222
2404.33	218
2406.23	212
2408.13	214
2410.03	214
2411.92	196
2413.82	208
2415.72	228
2417.62	216
2419.51	208
2421.41	216
2423.31	200
2425.2	214
2427.1	198
2428.99	214
2430.88	210
2432.78	204
2434.67	210
2436.56	206
2438.45	206
2440.34	222
2442.23	188
2444.12	192
2446.01	210
2447.9	222
2449.79	210