File: Jesse_Dataset_v2/Pure Raman/Polypropylene oxide/633nm/ps-ppo-7jan25-0,0000-map2_Y00_X00.txt
182.393	782
184.993	772
187.593	726
190.193	732
192.79	660
195.387	646
197.983	606
200.578	612
203.174	612
205.766	590
208.36	572
210.951	560
213.542	550
216.131	518
218.721	560
221.309	580
223.897	702
226.483	822
229.069	1044
231.654	1254
234.238	1384
236.821	1352
239.404	1262
241.984	1036
244.566	962
247.145	820
249.723	728
252.302	642
254.878	574
257.455	484
260.03	456
262.604	418
265.178	402
267.75	366
270.322	358
272.893	336
275.463	348
278.032	366
280.601	364
283.168	406
285.734	472
288.301	542
290.866	616
293.429	674
295.992	704
298.556	716
301.117	618
303.677	588
306.236	544
308.795	518
311.354	452
313.911	460
316.467	438
319.022	448
321.577	440
324.13	476
326.684	444
329.236	466
331.787	496
334.337	490
336.887	474
339.435	494
341.983	444
344.529	450
347.075	430
349.621	428
352.165	444
354.708	438
357.251	440
359.793	424
362.334	412
364.874	404
367.413	420
369.951	382
372.489	422
375.026	402
377.562	394
380.097	372
382.631	352
385.164	350
387.697	330
390.229	320
392.76	316
395.29	326
397.819	318
400.346	310
402.873	320
405.4	332
407.926	376
410.451	406
412.976	426
415.499	460
418.02	436
420.542	382
423.063	370
425.583	322
428.101	304
430.619	290
433.137	290
435.654	282
438.169	238
440.684	262
443.198	242
445.712	260
448.223	238
450.735	268
453.246	238
455.755	254
458.264	270
460.771	256
463.279	292
465.786	284
468.291	318
470.796	318
473.301	390
475.803	428
478.306	490
480.807	546
483.308	574
485.807	596
488.307	536
490.804	428
493.302	380
495.798	356
498.294	314
500.788	280
503.283	308
505.775	320
508.269	346
510.759	422
513.251	508
515.74	468
518.23	384
520.718	358
523.204	384
525.692	428
528.177	486
530.663	558
533.147	692
535.629	804
538.113	908
540.594	870
543.074	786
545.555	656
548.034	540
550.512	488
552.989	456
555.467	534
557.942	582
560.417	780
562.892	1130
565.365	1774
567.838	2890
570.309	3972
572.78	3886
575.251	2762
577.72	1636
580.189	1020
582.656	796
585.123	752
587.589	700
590.055	642
592.52	574
594.983	554
597.446	514
599.908	454
602.369	384
604.829	328
607.289	332
609.747	318
612.205	286
614.663	262
617.119	320
619.574	304
622.029	318
624.483	344
626.936	350
629.389	374
631.84	358
634.291	400
636.741	392
639.19	410
641.639	360
644.086	354
646.533	328
648.979	304
651.424	310
653.869	268
656.313	306
658.754	268
661.196	244
663.638	264
666.078	258
668.518	260
670.957	260
673.394	254
675.831	258
678.268	250
680.703	250
683.137	240
685.571	268
688.005	264
690.437	266
692.868	256
695.299	248
697.729	262
700.159	258
702.586	260
705.014	262
707.441	274
709.866	292
712.292	302
714.716	324
717.14	310
719.563	310
721.984	308
724.406	292
726.825	296
729.246	300
731.665	312
734.082	292
736.5	314
738.916	304
741.332	334
743.746	368
746.161	422
748.574	448
750.987	396
753.398	380
755.81	362
758.219	358
760.629	320
763.037	296
765.445	282
767.852	270
770.258	274
772.664	308
775.068	302
777.472	310
779.876	320
782.278	300
784.679	294
787.08	302
789.48	294
791.879	274
794.278	262
796.675	292
799.072	274
801.467	282
803.864	292
806.258	272
808.651	310
811.044	286
813.437	340
815.828	284
818.218	324
820.608	322
822.997	358
825.385	448
827.773	602
830.16	890
832.546	1296
834.931	1238
837.315	776
839.699	512
842.081	428
844.463	350
846.844	368
849.226	332
851.606	328
853.985	304
856.363	348
858.741	328
861.117	326
863.493	304
865.868	310
868.243	280
870.616	284
872.989	262
875.36	270
877.731	278
880.102	274
882.472	270
884.841	274
887.209	278
889.577	264
891.944	276
894.31	272
896.674	248
899.039	244
901.403	256
903.766	268
906.128	264
908.49	272
910.849	258
913.209	288
915.569	284
917.927	272
920.284	270
922.641	262
924.997	282
927.353	278
929.707	298
932.061	286
934.414	302
936.765	296
939.117	324
941.469	326
943.818	338
946.167	396
948.515	418
950.863	510
953.211	660
955.556	802
957.902	948
960.246	1042
962.59	1000
964.933	888
967.276	752
969.617	642
971.958	550
974.298	488
976.638	392
978.976	352
981.314	344
983.651	316
985.988	290
988.323	340
990.659	312
992.992	310
995.325	298
997.658	304
999.99	296
1002.32	300
1004.65	286
1006.98	280
1009.31	298
1011.64	278
1013.97	316
1016.29	290
1018.62	328
1020.94	326
1023.27	348
1025.59	342
1027.91	356
1030.24	382
1032.56	390
1034.88	378
1037.2	362
1039.52	384
1041.84	346
1044.15	360
1046.47	320
1048.79	316
1051.1	298
1053.42	302
1055.73	302
1058.04	290
1060.36	300
1062.67	332
1064.98	300
1067.29	298
1069.6	292
1071.91	300
1074.22	290
1076.52	298
1078.83	294
1081.14	304
1083.44	300
1085.75	294
1088.05	296
1090.35	318
1092.65	308
1094.95	308
1097.26	300
1099.56	348
1101.86	332
1104.15	392
1106.45	480
1108.75	692
1111.05	942
1113.34	1036
1115.64	820
1117.93	600
1120.22	464
1122.52	406
1124.81	384
1127.1	364
1129.39	350
1131.68	360
1133.97	326
1136.26	358
1138.54	350
1140.83	344
1143.12	360
1145.4	330
1147.69	316
1149.97	310
1152.25	338
1154.54	336
1156.82	344
1159.1	374
1161.38	374
1163.66	390
1165.94	362
1168.22	372
1170.49	334
1172.77	340
1175.05	390
1177.32	428
1179.6	464
1181.87	560
1184.14	692
1186.42	778
1188.69	714
1190.96	624
1193.23	570
1195.5	530
1197.77	550
1200.03	580
1202.3	566
1204.57	572
1206.83	538
1209.1	428
1211.36	420
1213.63	356
1215.89	366
1218.15	334
1220.41	350
1222.67	336
1224.93	368
1227.19	444
1229.45	440
1231.71	456
1233.97	410
1236.22	382
1238.48	352
1240.73	314
1242.99	326
1245.24	334
1247.5	316
1249.75	308
1252	330
1254.25	326
1256.5	332
1258.75	338
1261	346
1263.25	338
1265.49	340
1267.74	340
1269.99	382
1272.23	368
1274.48	386
1276.72	394
1278.96	416
1281.21	420
1283.45	458
1285.69	482
1287.93	496
1290.17	538
1292.41	612
1294.64	708
1296.88	872
1299.12	1268
1301.36	1770
1303.59	2176
1305.82	2364
1308.06	1984
1310.29	1460
1312.52	1062
1314.76	854
1316.99	744
1319.22	652
1321.45	582
1323.68	590
1325.9	556
1328.13	560
1330.36	540
1332.58	538
1334.81	462
1337.04	460
1339.26	436
1341.48	424
1343.71	426
1345.93	472
1348.15	482
1350.37	494
1352.59	494
1354.81	460
1357.03	438
1359.24	414
1361.46	430
1363.68	422
1365.89	420
1368.11	462
1370.32	494
1372.54	652
1374.75	900
1376.96	1124
1379.17	1242
1381.38	1140
1383.59	1030
1385.8	846
1388.01	662
1390.22	498
1392.43	450
1394.63	394
1396.84	394
1399.05	376
1401.25	350
1403.45	376
1405.66	360
1407.86	374
1410.06	388
1412.26	388
1414.46	414
1416.66	406
1418.86	456
1421.06	456
1423.26	472
1425.46	510
1427.65	518
1429.85	546
1432.04	546
1434.24	572
1436.43	594
1438.62	604
1440.82	616
1443.01	636
1445.2	560
1447.39	550
1449.58	524
1451.77	504
1453.95	484
1456.14	476
1458.33	480
1460.52	466
1462.7	458
1464.89	498
1467.07	470
1469.25	450
1471.44	478
1473.62	470
1475.8	476
1477.98	470
1480.16	464
1482.34	438
1484.52	432
1486.7	406
1488.87	414
1491.05	398
1493.23	392
1495.4	386
1497.58	360
1499.75	358
1501.92	368
1504.1	382
1506.27	378
1508.44	364
1510.61	386
1512.78	396
1514.95	356
1517.12	398
1519.28	358
1521.45	396
1523.62	374
1525.78	366
1527.95	366
1530.11	394
1532.28	348
1534.44	356
1536.6	398
1538.76	382
1540.93	386
1543.09	384
1545.25	368
1547.41	360
1549.56	394
1551.72	410
1553.88	390
1556.03	392
1558.19	390
1560.35	400
1562.5	396
1564.65	402
1566.81	398
1568.96	426
1571.11	422
1573.26	440
1575.41	452
1577.56	500
1579.71	518
1581.86	552
1584.01	598
1586.15	702
1588.3	796
1590.45	892
1592.59	1014
1594.74	1172
1596.88	1374
1599.02	1526
1601.17	1612
1603.31	1628
1605.45	1522
1607.59	1378
1609.73	1288
1611.87	1116
1614.01	996
1616.14	842
1618.28	700
1620.42	644
1622.55	558
1624.69	502
1626.82	466
1628.96	460
1631.09	418
1633.22	382
1635.36	352
1637.49	362
1639.62	368
1641.75	378
1643.88	346
1646	346
1648.13	362
1650.26	354
1652.39	318
1654.51	346
1656.64	324
1658.76	340
1660.89	352
1663.01	338
1665.13	354
1667.26	334
1669.38	314
1671.5	310
1673.62	304
1675.74	316
1677.86	328
1679.97	324
1682.09	326
1684.21	356
1686.33	332
1688.44	340
1690.56	348
1692.67	330
1694.78	338
1696.9	350
1699.01	330
1701.12	324
1703.23	352
1705.34	328
1707.45	322
1709.56	354
1711.67	336
1713.78	308
1715.88	308
1717.99	324
1720.1	312
1722.2	312
1724.31	300
1726.41	316
1728.51	316
1730.62	312
1732.72	334
1734.82	288
1736.92	304
1739.02	316
1741.12	314
1743.22	304
1745.32	312
1747.42	304
1749.51	302
1751.61	326
1753.7	304
1755.8	294
1757.89	294
1759.99	288
1762.08	286
1764.17	318
1766.26	306
1768.36	306
1770.45	324
1772.54	308
1774.62	286
1776.71	302
1778.8	288
1780.89	308
1782.98	318
1785.06	298
1787.15	294
1789.23	310
1791.32	290
1793.4	290
1795.48	280
1797.56	298
1799.65	304
1801.73	290
1803.81	308
1805.89	308
1807.97	296
1810.04	292
1812.12	296
1814.2	320
1816.28	280
1818.35	274
1820.43	304
1822.5	310
1824.58	304
1826.65	282
1828.72	294
1830.79	268
1832.86	320
1834.94	282
1837.01	318
1839.08	290
1841.15	280
1843.21	286
1845.28	318
1847.35	316
1849.41	302
1851.48	292
1853.55	282
1855.61	296
1857.67	302
1859.74	296
1861.8	286
1863.86	312
1865.92	298
1867.98	286
1870.05	306
1872.1	308
1874.16	276
1876.22	284
1878.28	286
1880.34	300
1882.39	298
1884.45	312
1886.5	286
1888.56	310
1890.61	300
1892.67	294
1894.72	298
1896.77	294
1898.82	300
1900.87	306
1902.92	288
1904.97	304
1907.02	302
1909.07	296
1911.12	298
1913.17	314
1915.21	302
1917.26	306
1919.3	292
1921.35	322
1923.39	302
1925.43	292
1927.48	300
1929.52	288
1931.56	312
1933.6	318
1935.64	308
1937.68	300
1939.72	288
1941.76	306
1943.8	302
1945.83	296
1947.87	286
1949.91	298
1951.94	288
1953.98	290
1956.01	286
1958.05	304
1960.08	302
1962.11	288
1964.14	278
1966.17	294
1968.2	274
1970.23	290
1972.26	318
1974.29	274
1976.32	292
1978.35	296
1980.37	290
1982.4	288
1984.43	288
1986.45	286
1988.48	294
1990.5	296
1992.52	314
1994.55	306
1996.57	290
1998.59	314
2000.61	286
2002.63	294
2004.65	300
2006.67	286
2008.69	294
2010.7	282
2012.72	282
2014.74	292
2016.75	314
2018.77	278
2020.78	296
2022.8	304
2024.81	276
2026.83	292
2028.84	296
2030.85	288
2032.86	276
2034.87	278
2036.88	280
2038.89	306
2040.9	284
2042.91	304
2044.91	300
2046.92	282
2048.93	318
2050.93	302
2052.94	302
2054.94	302
2056.95	286
2058.95	304
2060.95	290
2062.95	290
2064.96	280
2066.96	272
2068.96	312
2070.96	300
2072.96	280
2074.95	284
2076.95	296
2078.95	278
2080.95	288
2082.94	304
2084.94	278
2086.93	280
2088.93	278
2090.92	266
2092.91	306
2094.91	294
2096.9	290
2098.89	288
2100.88	290
2102.87	294
2104.86	294
2106.85	298
2108.84	286
2110.83	276
2112.81	274
2114.8	312
2116.78	270
2118.77	286
2120.75	282
2122.74	278
2124.72	270
2126.71	284
2128.69	284
2130.67	270
2132.65	286
2134.63	302
2136.61	300
2138.59	272
2140.57	294
2142.55	282
2144.53	290
2146.5	280
2148.48	276
2150.46	290
2152.43	292
2154.41	282
2156.38	292
2158.35	262
2160.33	270
2162.3	296
2164.27	264
2166.24	284
2168.21	288
2170.18	280
2172.15	272
2174.12	290
2176.09	288
2178.06	272
2180.03	298
2181.99	274
2183.96	264
2185.92	266
2187.89	268
2189.85	294
2191.82	264
2193.78	304
2195.74	260
2197.7	292
2199.67	276
2201.63	282
2203.59	288
2205.55	276
2207.51	276
2209.46	274
2211.42	266
2213.38	288
2215.34	274
2217.29	266
2219.25	286
2221.2	276
2223.16	262
2225.11	258
2227.06	286
2229.02	262
2230.97	276
2232.92	280
2234.87	296
2236.82	288
2238.77	276
2240.72	264
2242.67	268
2244.62	276
2246.57	264
2248.51	272
2250.46	290
2252.4	276
2254.35	256
2256.29	282
2258.24	274
2260.18	270
2262.13	270
2264.07	276
2266.01	278
2267.95	290
2269.89	278
2271.83	286
2273.77	280
2275.71	268
2277.65	286
2279.58	288
2281.52	282
2283.46	290
2285.4	276
2287.33	280
2289.27	280
2291.2	272
2293.13	280
2295.07	278
2297	260
2298.93	282
2300.86	282
2302.79	274
2304.72	290
2306.65	268
2308.58	296
2310.51	272
2312.44	298
2314.37	276
2316.29	278
2318.22	314
2320.15	288
2322.07	298
2324	272
2325.92	284
2327.84	266
2329.77	266
2331.69	296
2333.61	286
2335.53	274
2337.45	278
2339.37	260
2341.29	296
2343.21	282
2345.13	282
2347.05	272
2348.97	282
2350.88	278
2352.8	262
2354.71	292
2356.63	272
2358.54	280
2360.46	268
2362.37	260
2364.28	280
2366.2	266
2368.11	250
2370.02	274
2371.93	272
2373.84	240
2375.75	268
2377.66	280
2379.57	272
2381.47	260
2383.38	264
2385.29	282
2387.2	268
2389.1	276
2391.01	288
2392.91	274
2394.81	278
2396.72	268
2398.62	286
2400.52	292
2402.42	280
2404.33	278
2406.23	286
2408.13	292
2410.03	280
2411.92	300
2413.82	264
2415.72	296
2417.62	260
2419.51	268
2421.41	260
2423.31	268
2425.2	248
2427.1	270
2428.99	280
2430.88	288
2432.78	278
2434.67	268
2436.56	260
2438.45	278
2440.34	264
2442.23	266
2444.12	268
2446.01	264
2447.9	276
2449.79	274