File: Jesse_Dataset_v2/Pure Raman/Polypropylene oxide/633nm/ps-ppo-7jan25-0,0000-map2_Y08_X02.txt
182.393	696
184.993	696
187.593	634
190.193	628
192.79	576
195.387	562
197.983	520
200.578	504
203.174	508
205.766	506
208.36	488
210.951	462
213.542	428
216.131	446
218.721	444
221.309	466
223.897	582
226.483	720
229.069	940
231.654	1114
234.238	1240
236.821	1224
239.404	1124
241.984	964
244.566	864
247.145	726
249.723	628
252.302	538
254.878	460
257.455	398
260.03	358
262.604	342
265.178	306
267.75	276
270.322	284
272.893	282
275.463	272
278.032	276
280.601	288
283.168	328
285.734	374
288.301	444
290.866	548
293.429	588
295.992	618
298.556	604
301.117	562
303.677	504
306.236	450
308.795	418
311.354	390
313.911	376
316.467	352
319.022	348
321.577	374
324.13	372
326.684	376
329.236	374
331.787	402
334.337	414
336.887	384
339.435	374
341.983	354
344.529	364
347.075	348
349.621	342
352.165	350
354.708	348
357.251	350
359.793	338
362.334	340
364.874	342
367.413	314
369.951	328
372.489	340
375.026	320
377.562	294
380.097	276
382.631	268
385.164	250
387.697	252
390.229	240
392.76	230
395.29	236
397.819	232
400.346	240
402.873	250
405.4	258
407.926	252
410.451	290
412.976	364
415.499	362
418.02	338
420.542	294
423.063	266
425.583	234
428.101	216
430.619	190
433.137	196
435.654	182
438.169	190
440.684	170
443.198	168
445.712	180
448.223	174
450.735	168
453.246	168
455.755	184
458.264	184
460.771	172
463.279	192
465.786	212
468.291	222
470.796	252
473.301	296
475.803	348
478.306	374
480.807	418
483.308	460
485.807	518
488.307	458
490.804	366
493.302	300
495.798	246
498.294	248
500.788	224
503.283	210
505.775	210
508.269	242
510.759	318
513.251	410
515.74	378
518.23	310
520.718	276
523.204	306
525.692	326
528.177	384
530.663	458
533.147	572
535.629	666
538.113	796
540.594	778
543.074	678
545.555	540
548.034	478
550.512	380
552.989	380
555.467	428
557.942	498
560.417	672
562.892	1016
565.365	1550
567.838	2610
570.309	3634
572.78	3698
575.251	2642
577.72	1510
580.189	952
582.656	706
585.123	638
587.589	612
590.055	534
592.52	496
594.983	500
597.446	436
599.908	380
602.369	312
604.829	250
607.289	226
609.747	228
612.205	204
614.663	200
617.119	220
619.574	216
622.029	222
624.483	256
626.936	260
629.389	288
631.84	308
634.291	314
636.741	312
639.19	302
641.639	266
644.086	258
646.533	252
648.979	228
651.424	218
653.869	204
656.313	196
658.754	190
661.196	184
663.638	184
666.078	170
668.518	180
670.957	178
673.394	164
675.831	166
678.268	164
680.703	156
683.137	174
685.571	160
688.005	170
690.437	164
692.868	158
695.299	154
697.729	158
700.159	162
702.586	172
705.014	164
707.441	190
709.866	216
712.292	210
714.716	226
717.14	242
719.563	236
721.984	208
724.406	194
726.825	200
729.246	214
731.665	200
734.082	220
736.5	228
738.916	240
741.332	244
743.746	272
746.161	318
748.574	346
750.987	314
753.398	280
755.81	278
758.219	248
760.629	210
763.037	196
765.445	200
767.852	202
770.258	198
772.664	192
775.068	192
777.472	216
779.876	230
782.278	222
784.679	198
787.08	176
789.48	204
791.879	186
794.278	174
796.675	178
799.072	204
801.467	190
803.864	178
806.258	204
808.651	210
811.044	198
813.437	214
815.828	210
818.218	224
820.608	234
822.997	262
825.385	330
827.773	480
830.16	788
832.546	1150
834.931	1136
837.315	648
839.699	410
842.081	316
844.463	282
846.844	264
849.226	268
851.606	244
853.985	238
856.363	242
858.741	234
861.117	218
863.493	200
865.868	192
868.243	212
870.616	206
872.989	170
875.36	190
877.731	190
880.102	180
882.472	188
884.841	192
887.209	178
889.577	184
891.944	166
894.31	174
896.674	190
899.039	172
901.403	194
903.766	202
906.128	166
908.49	174
910.849	168
913.209	172
915.569	174
917.927	182
920.284	186
922.641	166
924.997	184
927.353	184
929.707	184
932.061	190
934.414	200
936.765	202
939.117	200
941.469	214
943.818	250
946.167	280
948.515	338
950.863	410
953.211	524
955.556	676
957.902	862
960.246	888
962.59	898
964.933	742
967.276	608
969.617	542
971.958	462
974.298	360
976.638	294
978.976	256
981.314	244
983.651	230
985.988	220
988.323	210
990.659	238
992.992	220
995.325	218
997.658	198
999.99	196
1002.32	194
1004.65	188
1006.98	194
1009.31	194
1011.64	192
1013.97	202
1016.29	214
1018.62	226
1020.94	234
1023.27	228
1025.59	254
1027.91	246
1030.24	276
1032.56	286
1034.88	276
1037.2	294
1039.52	254
1041.84	242
1044.15	256
1046.47	234
1048.79	206
1051.1	202
1053.42	206
1055.73	204
1058.04	202
1060.36	208
1062.67	194
1064.98	204
1067.29	192
1069.6	190
1071.91	216
1074.22	188
1076.52	212
1078.83	192
1081.14	192
1083.44	192
1085.75	206
1088.05	208
1090.35	226
1092.65	218
1094.95	192
1097.26	200
1099.56	230
1101.86	240
1104.15	292
1106.45	380
1108.75	528
1111.05	832
1113.34	890
1115.64	736
1117.93	492
1120.22	368
1122.52	326
1124.81	278
1127.1	258
1129.39	256
1131.68	254
1133.97	252
1136.26	242
1138.54	250
1140.83	256
1143.12	274
1145.4	240
1147.69	216
1149.97	216
1152.25	210
1154.54	232
1156.82	228
1159.1	252
1161.38	280
1163.66	276
1165.94	288
1168.22	256
1170.49	254
1172.77	252
1175.05	274
1177.32	298
1179.6	366
1181.87	440
1184.14	548
1186.42	648
1188.69	582
1190.96	554
1193.23	432
1195.5	446
1197.77	406
1200.03	412
1202.3	464
1204.57	462
1206.83	388
1209.1	356
1211.36	300
1213.63	292
1215.89	246
1218.15	236
1220.41	236
1222.67	254
1224.93	274
1227.19	310
1229.45	342
1231.71	358
1233.97	286
1236.22	300
1238.48	254
1240.73	224
1242.99	226
1245.24	212
1247.5	216
1249.75	224
1252	224
1254.25	206
1256.5	228
1258.75	222
1261	250
1263.25	238
1265.49	248
1267.74	256
1269.99	238
1272.23	262
1274.48	262
1276.72	278
1278.96	292
1281.21	330
1283.45	364
1285.69	396
1287.93	424
1290.17	428
1292.41	508
1294.64	586
1296.88	760
1299.12	1070
1301.36	1554
1303.59	2056
1305.82	2172
1308.06	1842
1310.29	1284
1312.52	986
1314.76	754
1316.99	614
1319.22	562
1321.45	502
1323.68	460
1325.9	458
1328.13	472
1330.36	466
1332.58	418
1334.81	376
1337.04	344
1339.26	332
1341.48	320
1343.71	352
1345.93	374
1348.15	368
1350.37	374
1352.59	368
1354.81	376
1357.03	338
1359.24	314
1361.46	330
1363.68	312
1365.89	306
1368.11	324
1370.32	386
1372.54	496
1374.75	758
1376.96	954
1379.17	1066
1381.38	1022
1383.59	908
1385.8	730
1388.01	534
1390.22	382
1392.43	332
1394.63	298
1396.84	258
1399.05	274
1401.25	266
1403.45	266
1405.66	266
1407.86	296
1410.06	276
1412.26	300
1414.46	290
1416.66	336
1418.86	330
1421.06	362
1423.26	394
1425.46	400
1427.65	426
1429.85	412
1432.04	424
1434.24	450
1436.43	490
1438.62	502
1440.82	526
1443.01	490
1445.2	478
1447.39	442
1449.58	400
1451.77	400
1453.95	390
1456.14	378
1458.33	370
1460.52	376
1462.7	374
1464.89	368
1467.07	352
1469.25	370
1471.44	348
1473.62	344
1475.8	354
1477.98	372
1480.16	326
1482.34	352
1484.52	332
1486.7	314
1488.87	286
1491.05	294
1493.23	280
1495.4	284
1497.58	300
1499.75	300
1501.92	266
1504.1	290
1506.27	268
1508.44	272
1510.61	276
1512.78	262
1514.95	242
1517.12	266
1519.28	264
1521.45	262
1523.62	280
1525.78	280
1527.95	276
1530.11	266
1532.28	278
1534.44	258
1536.6	268
1538.76	258
1540.93	280
1543.09	282
1545.25	268
1547.41	278
1549.56	280
1551.72	270
1553.88	302
1556.03	266
1558.19	304
1560.35	286
1562.5	288
1564.65	292
1566.81	302
1568.96	326
1571.11	354
1573.26	336
1575.41	332
1577.56	400
1579.71	410
1581.86	454
1584.01	498
1586.15	550
1588.3	626
1590.45	788
1592.59	880
1594.74	1024
1596.88	1168
1599.02	1356
1601.17	1458
1603.31	1468
1605.45	1368
1607.59	1274
1609.73	1156
1611.87	1004
1614.01	842
1616.14	712
1618.28	632
1620.42	528
1622.55	470
1624.69	376
1626.82	368
1628.96	328
1631.09	314
1633.22	288
1635.36	274
1637.49	256
1639.62	272
1641.75	258
1643.88	262
1646	248
1648.13	268
1650.26	234
1652.39	232
1654.51	242
1656.64	230
1658.76	238
1660.89	234
1663.01	248
1665.13	230
1667.26	256
1669.38	230
1671.5	232
1673.62	218
1675.74	228
1677.86	224
1679.97	222
1682.09	226
1684.21	218
1686.33	216
1688.44	248
1690.56	240
1692.67	244
1694.78	238
1696.9	248
1699.01	238
1701.12	240
1703.23	254
1705.34	226
1707.45	242
1709.56	244
1711.67	236
1713.78	238
1715.88	230
1717.99	220
1720.1	222
1722.2	208
1724.31	222
1726.41	226
1728.51	232
1730.62	212
1732.72	194
1734.82	194
1736.92	222
1739.02	220
1741.12	210
1743.22	210
1745.32	214
1747.42	204
1749.51	196
1751.61	202
1753.7	196
1755.8	196
1757.89	220
1759.99	218
1762.08	196
1764.17	214
1766.26	208
1768.36	216
1770.45	226
1772.54	202
1774.62	198
1776.71	198
1778.8	200
1780.89	236
1782.98	210
1785.06	224
1787.15	212
1789.23	194
1791.32	210
1793.4	214
1795.48	200
1797.56	206
1799.65	222
1801.73	206
1803.81	210
1805.89	210
1807.97	202
1810.04	200
1812.12	208
1814.2	210
1816.28	206
1818.35	204
1820.43	220
1822.5	186
1824.58	222
1826.65	208
1828.72	186
1830.79	206
1832.86	200
1834.94	210
1837.01	214
1839.08	204
1841.15	220
1843.21	204
1845.28	210
1847.35	202
1849.41	188
1851.48	212
1853.55	218
1855.61	200
1857.67	216
1859.74	224
1861.8	222
1863.86	208
1865.92	202
1867.98	216
1870.05	196
1872.1	200
1874.16	192
1876.22	218
1878.28	206
1880.34	200
1882.39	208
1884.45	210
1886.5	206
1888.56	214
1890.61	222
1892.67	190
1894.72	194
1896.77	208
1898.82	210
1900.87	194
1902.92	208
1904.97	204
1907.02	208
1909.07	218
1911.12	208
1913.17	204
1915.21	224
1917.26	220
1919.3	192
1921.35	208
1923.39	204
1925.43	196
1927.48	232
1929.52	214
1931.56	206
1933.6	210
1935.64	192
1937.68	198
1939.72	202
1941.76	204
1943.8	196
1945.83	202
1947.87	214
1949.91	206
1951.94	192
1953.98	196
1956.01	200
1958.05	198
1960.08	204
1962.11	210
1964.14	206
1966.17	214
1968.2	218
1970.23	206
1972.26	198
1974.29	202
1976.32	218
1978.35	222
1980.37	212
1982.4	214
1984.43	224
1986.45	202
1988.48	212
1990.5	204
1992.52	206
1994.55	214
1996.57	200
1998.59	214
2000.61	200
2002.63	200
2004.65	218
2006.67	206
2008.69	210
2010.7	214
2012.72	208
2014.74	226
2016.75	202
2018.77	208
2020.78	226
2022.8	216
2024.81	210
2026.83	212
2028.84	216
2030.85	202
2032.86	218
2034.87	208
2036.88	200
2038.89	206
2040.9	204
2042.91	206
2044.91	190
2046.92	206
2048.93	212
2050.93	220
2052.94	198
2054.94	198
2056.95	222
2058.95	212
2060.95	194
2062.95	206
2064.96	212
2066.96	218
2068.96	236
2070.96	198
2072.96	228
2074.95	210
2076.95	206
2078.95	216
2080.95	222
2082.94	212
2084.94	216
2086.93	208
2088.93	202
2090.92	210
2092.91	200
2094.91	202
2096.9	198
2098.89	196
2100.88	200
2102.87	200
2104.86	198
2106.85	220
2108.84	222
2110.83	212
2112.81	214
2114.8	210
2116.78	200
2118.77	216
2120.75	194
2122.74	222
2124.72	206
2126.71	212
2128.69	214
2130.67	204
2132.65	206
2134.63	206
2136.61	206
2138.59	220
2140.57	206
2142.55	216
2144.53	202
2146.5	200
2148.48	220
2150.46	198
2152.43	214
2154.41	208
2156.38	202
2158.35	200
2160.33	220
2162.3	212
2164.27	216
2166.24	210
2168.21	216
2170.18	186
2172.15	212
2174.12	216
2176.09	190
2178.06	218
2180.03	202
2181.99	208
2183.96	196
2185.92	212
2187.89	204
2189.85	210
2191.82	218
2193.78	212
2195.74	192
2197.7	220
2199.67	192
2201.63	182
2203.59	204
2205.55	216
2207.51	204
2209.46	200
2211.42	200
2213.38	194
2215.34	196
2217.29	218
2219.25	190
2221.2	210
2223.16	216
2225.11	206
2227.06	206
2229.02	186
2230.97	198
2232.92	198
2234.87	216
2236.82	214
2238.77	202
2240.72	212
2242.67	208
2244.62	190
2246.57	210
2248.51	208
2250.46	218
2252.4	214
2254.35	204
2256.29	202
2258.24	194
2260.18	200
2262.13	192
2264.07	196
2266.01	196
2267.95	228
2269.89	206
2271.83	198
2273.77	220
2275.71	206
2277.65	226
2279.58	216
2281.52	222
2283.46	220
2285.4	214
2287.33	216
2289.27	220
2291.2	200
2293.13	196
2295.07	204
2297	214
2298.93	224
2300.86	192
2302.79	210
2304.72	218
2306.65	196
2308.58	220
2310.51	220
2312.44	222
2314.37	204
2316.29	216
2318.22	232
2320.15	218
2322.07	226
2324	218
2325.92	210
2327.84	204
2329.77	202
2331.69	212
2333.61	192
2335.53	224
2337.45	204
2339.37	214
2341.29	224
2343.21	224
2345.13	208
2347.05	208
2348.97	202
2350.88	208
2352.8	210
2354.71	206
2356.63	190
2358.54	212
2360.46	206
2362.37	218
2364.28	230
2366.2	206
2368.11	218
2370.02	210
2371.93	222
2373.84	214
2375.75	202
2377.66	218
2379.57	210
2381.47	204
2383.38	208
2385.29	224
2387.2	210
2389.1	230
2391.01	218
2392.91	208
2394.81	216
2396.72	226
2398.62	224
2400.52	232
2402.42	218
2404.33	210
2406.23	228
2408.13	214
2410.03	200
2411.92	224
2413.82	240
2415.72	206
2417.62	214
2419.51	222
2421.41	198
2423.31	220
2425.2	206
2427.1	206
2428.99	214
2430.88	210
2432.78	204
2434.67	210
2436.56	210
2438.45	206
2440.34	188
2442.23	204
2444.12	204
2446.01	194
2447.9	218
2449.79	198