File: Jesse_Dataset_v2/Pure Raman/Polypropylene oxide/633nm/ps-ppo-7jan25-0,0000-map2_Y04_X02.txt
182.393	696
184.993	682
187.593	646
190.193	634
192.79	610
195.387	574
197.983	556
200.578	516
203.174	500
205.766	502
208.36	490
210.951	450
213.542	438
216.131	442
218.721	444
221.309	526
223.897	610
226.483	758
229.069	928
231.654	1154
234.238	1266
236.821	1234
239.404	1122
241.984	1024
244.566	914
247.145	746
249.723	642
252.302	546
254.878	462
257.455	406
260.03	360
262.604	346
265.178	304
267.75	288
270.322	278
272.893	286
275.463	274
278.032	274
280.601	306
283.168	340
285.734	388
288.301	484
290.866	522
293.429	624
295.992	616
298.556	606
301.117	556
303.677	512
306.236	442
308.795	438
311.354	382
313.911	378
316.467	358
319.022	352
321.577	376
324.13	370
326.684	400
329.236	376
331.787	400
334.337	418
336.887	410
339.435	370
341.983	344
344.529	352
347.075	342
349.621	342
352.165	366
354.708	356
357.251	354
359.793	344
362.334	322
364.874	324
367.413	342
369.951	322
372.489	346
375.026	308
377.562	308
380.097	294
382.631	284
385.164	256
387.697	238
390.229	216
392.76	224
395.29	236
397.819	230
400.346	234
402.873	256
405.4	252
407.926	274
410.451	296
412.976	346
415.499	364
418.02	376
420.542	288
423.063	280
425.583	238
428.101	244
430.619	206
433.137	194
435.654	196
438.169	186
440.684	154
443.198	172
445.712	172
448.223	182
450.735	162
453.246	178
455.755	166
458.264	166
460.771	188
463.279	216
465.786	210
468.291	242
470.796	260
473.301	312
475.803	360
478.306	384
480.807	460
483.308	482
485.807	496
488.307	452
490.804	352
493.302	304
495.798	262
498.294	218
500.788	214
503.283	224
505.775	218
508.269	252
510.759	322
513.251	390
515.74	382
518.23	320
520.718	308
523.204	312
525.692	326
528.177	384
530.663	460
533.147	560
535.629	712
538.113	800
540.594	782
543.074	678
545.555	558
548.034	450
550.512	378
552.989	388
555.467	402
557.942	518
560.417	678
562.892	1018
565.365	1646
567.838	2692
570.309	3674
572.78	3718
575.251	2680
577.72	1544
580.189	930
582.656	718
585.123	638
587.589	606
590.055	550
592.52	520
594.983	466
597.446	460
599.908	396
602.369	336
604.829	280
607.289	224
609.747	226
612.205	212
614.663	204
617.119	234
619.574	230
622.029	246
624.483	240
626.936	270
629.389	286
631.84	292
634.291	296
636.741	316
639.19	312
641.639	276
644.086	264
646.533	252
648.979	212
651.424	204
653.869	230
656.313	194
658.754	200
661.196	196
663.638	176
666.078	170
668.518	182
670.957	164
673.394	162
675.831	154
678.268	158
680.703	162
683.137	150
685.571	174
688.005	166
690.437	180
692.868	160
695.299	172
697.729	162
700.159	180
702.586	156
705.014	184
707.441	184
709.866	206
712.292	232
714.716	242
717.14	248
719.563	220
721.984	202
724.406	200
726.825	210
729.246	204
731.665	204
734.082	200
736.5	214
738.916	230
741.332	234
743.746	264
746.161	304
748.574	324
750.987	288
753.398	284
755.81	276
758.219	268
760.629	226
763.037	190
765.445	194
767.852	206
770.258	204
772.664	204
775.068	206
777.472	226
779.876	204
782.278	222
784.679	198
787.08	210
789.48	206
791.879	204
794.278	184
796.675	190
799.072	188
801.467	194
803.864	188
806.258	216
808.651	216
811.044	214
813.437	192
815.828	224
818.218	242
820.608	230
822.997	278
825.385	330
827.773	476
830.16	812
832.546	1178
834.931	1136
837.315	670
839.699	406
842.081	296
844.463	276
846.844	264
849.226	254
851.606	252
853.985	254
856.363	226
858.741	232
861.117	240
863.493	218
865.868	208
868.243	202
870.616	194
872.989	184
875.36	194
877.731	186
880.102	178
882.472	192
884.841	182
887.209	176
889.577	164
891.944	178
894.31	174
896.674	154
899.039	174
901.403	186
903.766	174
906.128	186
908.49	184
910.849	182
913.209	178
915.569	168
917.927	162
920.284	164
922.641	184
924.997	184
927.353	178
929.707	186
932.061	194
934.414	212
936.765	222
939.117	206
941.469	218
943.818	248
946.167	278
948.515	330
950.863	418
953.211	546
955.556	682
957.902	844
960.246	908
962.59	866
964.933	754
967.276	636
969.617	534
971.958	462
974.298	344
976.638	302
978.976	272
981.314	244
983.651	208
985.988	220
988.323	226
990.659	218
992.992	214
995.325	204
997.658	208
999.99	192
1002.32	204
1004.65	202
1006.98	192
1009.31	194
1011.64	210
1013.97	204
1016.29	210
1018.62	230
1020.94	246
1023.27	240
1025.59	256
1027.91	252
1030.24	258
1032.56	290
1034.88	262
1037.2	272
1039.52	274
1041.84	252
1044.15	234
1046.47	234
1048.79	236
1051.1	200
1053.42	208
1055.73	198
1058.04	192
1060.36	204
1062.67	220
1064.98	200
1067.29	206
1069.6	206
1071.91	200
1074.22	194
1076.52	194
1078.83	206
1081.14	214
1083.44	200
1085.75	186
1088.05	220
1090.35	214
1092.65	214
1094.95	218
1097.26	208
1099.56	224
1101.86	250
1104.15	260
1106.45	354
1108.75	558
1111.05	814
1113.34	902
1115.64	720
1117.93	488
1120.22	352
1122.52	296
1124.81	260
1127.1	262
1129.39	258
1131.68	244
1133.97	234
1136.26	238
1138.54	250
1140.83	254
1143.12	244
1145.4	246
1147.69	212
1149.97	234
1152.25	224
1154.54	226
1156.82	248
1159.1	264
1161.38	268
1163.66	266
1165.94	250
1168.22	252
1170.49	248
1172.77	238
1175.05	278
1177.32	322
1179.6	340
1181.87	448
1184.14	564
1186.42	624
1188.69	624
1190.96	520
1193.23	458
1195.5	406
1197.77	422
1200.03	460
1202.3	490
1204.57	466
1206.83	400
1209.1	398
1211.36	308
1213.63	254
1215.89	236
1218.15	240
1220.41	240
1222.67	256
1224.93	284
1227.19	322
1229.45	342
1231.71	350
1233.97	314
1236.22	256
1238.48	248
1240.73	226
1242.99	224
1245.24	234
1247.5	230
1249.75	228
1252	202
1254.25	224
1256.5	234
1258.75	228
1261	230
1263.25	238
1265.49	254
1267.74	254
1269.99	248
1272.23	252
1274.48	258
1276.72	278
1278.96	322
1281.21	318
1283.45	376
1285.69	374
1287.93	380
1290.17	436
1292.41	494
1294.64	584
1296.88	744
1299.12	1126
1301.36	1572
1303.59	2086
1305.82	2222
1308.06	1844
1310.29	1316
1312.52	924
1314.76	768
1316.99	628
1319.22	566
1321.45	488
1323.68	496
1325.9	482
1328.13	446
1330.36	448
1332.58	414
1334.81	372
1337.04	320
1339.26	340
1341.48	332
1343.71	346
1345.93	356
1348.15	362
1350.37	372
1352.59	350
1354.81	342
1357.03	330
1359.24	310
1361.46	294
1363.68	306
1365.89	332
1368.11	340
1370.32	410
1372.54	518
1374.75	748
1376.96	966
1379.17	1096
1381.38	1008
1383.59	902
1385.8	746
1388.01	518
1390.22	418
1392.43	346
1394.63	290
1396.84	284
1399.05	274
1401.25	268
1403.45	254
1405.66	276
1407.86	280
1410.06	274
1412.26	282
1414.46	316
1416.66	328
1418.86	352
1421.06	382
1423.26	386
1425.46	410
1427.65	430
1429.85	444
1432.04	430
1434.24	470
1436.43	490
1438.62	492
1440.82	488
1443.01	512
1445.2	460
1447.39	456
1449.58	408
1451.77	398
1453.95	372
1456.14	356
1458.33	386
1460.52	382
1462.7	368
1464.89	364
1467.07	396
1469.25	378
1471.44	354
1473.62	368
1475.8	342
1477.98	358
1480.16	344
1482.34	340
1484.52	322
1486.7	324
1488.87	310
1491.05	276
1493.23	282
1495.4	282
1497.58	294
1499.75	286
1501.92	294
1504.1	266
1506.27	256
1508.44	292
1510.61	260
1512.78	278
1514.95	266
1517.12	264
1519.28	260
1521.45	292
1523.62	276
1525.78	278
1527.95	274
1530.11	278
1532.28	256
1534.44	262
1536.6	278
1538.76	288
1540.93	274
1543.09	284
1545.25	260
1547.41	286
1549.56	258
1551.72	288
1553.88	268
1556.03	276
1558.19	312
1560.35	278
1562.5	286
1564.65	274
1566.81	300
1568.96	292
1571.11	348
1573.26	332
1575.41	366
1577.56	394
1579.71	430
1581.86	412
1584.01	492
1586.15	544
1588.3	648
1590.45	748
1592.59	900
1594.74	1026
1596.88	1202
1599.02	1356
1601.17	1482
1603.31	1438
1605.45	1392
1607.59	1302
1609.73	1172
1611.87	1010
1614.01	860
1616.14	744
1618.28	610
1620.42	550
1622.55	460
1624.69	364
1626.82	362
1628.96	326
1631.09	302
1633.22	282
1635.36	276
1637.49	262
1639.62	260
1641.75	242
1643.88	242
1646	254
1648.13	258
1650.26	230
1652.39	258
1654.51	232
1656.64	222
1658.76	256
1660.89	240
1663.01	250
1665.13	216
1667.26	232
1669.38	210
1671.5	218
1673.62	232
1675.74	230
1677.86	232
1679.97	222
1682.09	234
1684.21	226
1686.33	242
1688.44	234
1690.56	230
1692.67	248
1694.78	236
1696.9	240
1699.01	234
1701.12	242
1703.23	232
1705.34	240
1707.45	226
1709.56	236
1711.67	238
1713.78	232
1715.88	240
1717.99	228
1720.1	224
1722.2	216
1724.31	216
1726.41	222
1728.51	200
1730.62	196
1732.72	210
1734.82	222
1736.92	218
1739.02	208
1741.12	226
1743.22	218
1745.32	216
1747.42	202
1749.51	212
1751.61	228
1753.7	198
1755.8	198
1757.89	220
1759.99	208
1762.08	228
1764.17	210
1766.26	214
1768.36	202
1770.45	198
1772.54	204
1774.62	224
1776.71	212
1778.8	218
1780.89	208
1782.98	212
1785.06	208
1787.15	216
1789.23	226
1791.32	206
1793.4	200
1795.48	198
1797.56	210
1799.65	214
1801.73	200
1803.81	210
1805.89	202
1807.97	214
1810.04	206
1812.12	208
1814.2	200
1816.28	220
1818.35	208
1820.43	196
1822.5	208
1824.58	192
1826.65	210
1828.72	204
1830.79	192
1832.86	218
1834.94	212
1837.01	228
1839.08	218
1841.15	218
1843.21	208
1845.28	194
1847.35	200
1849.41	214
1851.48	202
1853.55	230
1855.61	216
1857.67	210
1859.74	204
1861.8	208
1863.86	196
1865.92	226
1867.98	212
1870.05	212
1872.1	224
1874.16	222
1876.22	212
1878.28	216
1880.34	206
1882.39	216
1884.45	214
1886.5	208
1888.56	216
1890.61	204
1892.67	200
1894.72	214
1896.77	228
1898.82	194
1900.87	202
1902.92	210
1904.97	202
1907.02	210
1909.07	212
1911.12	212
1913.17	228
1915.21	200
1917.26	202
1919.3	206
1921.35	204
1923.39	214
1925.43	196
1927.48	208
1929.52	208
1931.56	214
1933.6	218
1935.64	214
1937.68	198
1939.72	212
1941.76	200
1943.8	202
1945.83	206
1947.87	214
1949.91	202
1951.94	214
1953.98	206
1956.01	206
1958.05	218
1960.08	198
1962.11	202
1964.14	198
1966.17	218
1968.2	212
1970.23	222
1972.26	196
1974.29	206
1976.32	218
1978.35	204
1980.37	198
1982.4	180
1984.43	214
1986.45	206
1988.48	220
1990.5	214
1992.52	206
1994.55	188
1996.57	210
1998.59	200
2000.61	220
2002.63	220
2004.65	216
2006.67	206
2008.69	200
2010.7	196
2012.72	232
2014.74	212
2016.75	198
2018.77	202
2020.78	206
2022.8	206
2024.81	202
2026.83	202
2028.84	232
2030.85	214
2032.86	216
2034.87	208
2036.88	204
2038.89	218
2040.9	206
2042.91	224
2044.91	222
2046.92	202
2048.93	206
2050.93	198
2052.94	202
2054.94	214
2056.95	208
2058.95	214
2060.95	224
2062.95	206
2064.96	214
2066.96	210
2068.96	212
2070.96	198
2072.96	204
2074.95	202
2076.95	226
2078.95	202
2080.95	218
2082.94	222
2084.94	218
2086.93	224
2088.93	198
2090.92	200
2092.91	212
2094.91	222
2096.9	206
2098.89	200
2100.88	204
2102.87	214
2104.86	214
2106.85	218
2108.84	214
2110.83	202
2112.81	234
2114.8	198
2116.78	208
2118.77	208
2120.75	212
2122.74	206
2124.72	208
2126.71	202
2128.69	204
2130.67	200
2132.65	214
2134.63	192
2136.61	216
2138.59	210
2140.57	194
2142.55	218
2144.53	206
2146.5	188
2148.48	228
2150.46	196
2152.43	198
2154.41	212
2156.38	210
2158.35	198
2160.33	200
2162.3	198
2164.27	230
2166.24	202
2168.21	214
2170.18	198
2172.15	204
2174.12	210
2176.09	202
2178.06	210
2180.03	218
2181.99	208
2183.96	216
2185.92	224
2187.89	200
2189.85	192
2191.82	212
2193.78	202
2195.74	212
2197.7	208
2199.67	212
2201.63	204
2203.59	222
2205.55	210
2207.51	192
2209.46	208
2211.42	190
2213.38	210
2215.34	212
2217.29	216
2219.25	210
2221.2	214
2223.16	208
2225.11	206
2227.06	198
2229.02	206
2230.97	196
2232.92	206
2234.87	188
2236.82	200
2238.77	200
2240.72	216
2242.67	204
2244.62	200
2246.57	196
2248.51	206
2250.46	208
2252.4	220
2254.35	198
2256.29	210
2258.24	212
2260.18	210
2262.13	208
2264.07	190
2266.01	220
2267.95	202
2269.89	216
2271.83	212
2273.77	192
2275.71	210
2277.65	224
2279.58	208
2281.52	218
2283.46	210
2285.4	204
2287.33	204
2289.27	208
2291.2	204
2293.13	214
2295.07	202
2297	202
2298.93	224
2300.86	192
2302.79	220
2304.72	206
2306.65	220
2308.58	218
2310.51	236
2312.44	230
2314.37	210
2316.29	212
2318.22	212
2320.15	220
2322.07	224
2324	220
2325.92	226
2327.84	212
2329.77	206
2331.69	236
2333.61	202
2335.53	220
2337.45	206
2339.37	212
2341.29	224
2343.21	222
2345.13	196
2347.05	216
2348.97	204
2350.88	208
2352.8	222
2354.71	220
2356.63	208
2358.54	202
2360.46	202
2362.37	214
2364.28	200
2366.2	206
2368.11	222
2370.02	210
2371.93	200
2373.84	230
2375.75	218
2377.66	216
2379.57	202
2381.47	222
2383.38	218
2385.29	210
2387.2	216
2389.1	210
2391.01	230
2392.91	214
2394.81	236
2396.72	202
2398.62	212
2400.52	206
2402.42	214
2404.33	220
2406.23	218
2408.13	222
2410.03	210
2411.92	240
2413.82	214
2415.72	210
2417.62	220
2419.51	204
2421.41	206
2423.31	208
2425.2	214
2427.1	204
2428.99	196
2430.88	208
2432.78	204
2434.67	202
2436.56	204
2438.45	210
2440.34	196
2442.23	200
2444.12	208
2446.01	208
2447.9	218
2449.79	216