File: Jesse_Dataset_v2/Pure Raman/Polypropylene oxide/633nm/ps-ppo-7jan25-0,0000-map2_Y04_X08.txt
182.393	690
184.993	640
187.593	628
190.193	634
192.79	616
195.387	564
197.983	552
200.578	532
203.174	526
205.766	488
208.36	484
210.951	472
213.542	448
216.131	466
218.721	462
221.309	500
223.897	582
226.483	730
229.069	942
231.654	1142
234.238	1278
236.821	1290
239.404	1162
241.984	990
244.566	864
247.145	732
249.723	658
252.302	542
254.878	466
257.455	412
260.03	368
262.604	316
265.178	282
267.75	294
270.322	262
272.893	274
275.463	288
278.032	280
280.601	298
283.168	322
285.734	388
288.301	420
290.866	564
293.429	624
295.992	628
298.556	618
301.117	552
303.677	520
306.236	466
308.795	408
311.354	380
313.911	360
316.467	380
319.022	360
321.577	356
324.13	366
326.684	372
329.236	406
331.787	404
334.337	430
336.887	370
339.435	376
341.983	364
344.529	358
347.075	350
349.621	344
352.165	352
354.708	354
357.251	350
359.793	340
362.334	328
364.874	308
367.413	310
369.951	324
372.489	330
375.026	318
377.562	320
380.097	272
382.631	274
385.164	260
387.697	258
390.229	240
392.76	234
395.29	232
397.819	216
400.346	226
402.873	246
405.4	258
407.926	268
410.451	312
412.976	340
415.499	368
418.02	348
420.542	304
423.063	270
425.583	240
428.101	234
430.619	198
433.137	190
435.654	194
438.169	186
440.684	174
443.198	178
445.712	172
448.223	176
450.735	180
453.246	156
455.755	180
458.264	176
460.771	182
463.279	192
465.786	216
468.291	228
470.796	264
473.301	282
475.803	348
478.306	398
480.807	444
483.308	482
485.807	492
488.307	410
490.804	364
493.302	274
495.798	268
498.294	238
500.788	222
503.283	226
505.775	232
508.269	262
510.759	324
513.251	412
515.74	376
518.23	304
520.718	288
523.204	292
525.692	314
528.177	386
530.663	462
533.147	596
535.629	658
538.113	784
540.594	780
543.074	704
545.555	584
548.034	462
550.512	396
552.989	380
555.467	434
557.942	508
560.417	666
562.892	996
565.365	1614
567.838	2668
570.309	3632
572.78	3662
575.251	2620
577.72	1566
580.189	968
582.656	710
585.123	610
587.589	620
590.055	554
592.52	540
594.983	512
597.446	450
599.908	360
602.369	344
604.829	246
607.289	232
609.747	222
612.205	224
614.663	208
617.119	196
619.574	224
622.029	246
624.483	244
626.936	274
629.389	288
631.84	296
634.291	320
636.741	330
639.19	302
641.639	276
644.086	240
646.533	262
648.979	246
651.424	206
653.869	200
656.313	194
658.754	180
661.196	184
663.638	192
666.078	176
668.518	168
670.957	144
673.394	150
675.831	162
678.268	156
680.703	154
683.137	158
685.571	160
688.005	170
690.437	162
692.868	158
695.299	168
697.729	174
700.159	154
702.586	176
705.014	180
707.441	194
709.866	192
712.292	218
714.716	238
717.14	222
719.563	232
721.984	194
724.406	194
726.825	196
729.246	216
731.665	218
734.082	204
736.5	204
738.916	246
741.332	230
743.746	254
746.161	320
748.574	352
750.987	304
753.398	298
755.81	264
758.219	262
760.629	202
763.037	200
765.445	166
767.852	182
770.258	198
772.664	182
775.068	204
777.472	214
779.876	234
782.278	210
784.679	202
787.08	188
789.48	188
791.879	174
794.278	194
796.675	186
799.072	192
801.467	188
803.864	196
806.258	206
808.651	196
811.044	202
813.437	212
815.828	218
818.218	228
820.608	246
822.997	266
825.385	342
827.773	488
830.16	794
832.546	1166
834.931	1126
837.315	654
839.699	358
842.081	300
844.463	264
846.844	268
849.226	250
851.606	252
853.985	258
856.363	234
858.741	236
861.117	232
863.493	208
865.868	212
868.243	196
870.616	182
872.989	198
875.36	206
877.731	192
880.102	174
882.472	188
884.841	180
887.209	180
889.577	182
891.944	194
894.31	170
896.674	172
899.039	178
901.403	170
903.766	170
906.128	174
908.49	172
910.849	164
913.209	162
915.569	174
917.927	174
920.284	182
922.641	162
924.997	174
927.353	178
929.707	186
932.061	180
934.414	206
936.765	196
939.117	216
941.469	230
943.818	240
946.167	294
948.515	340
950.863	406
953.211	544
955.556	708
957.902	836
960.246	916
962.59	888
964.933	750
967.276	614
969.617	538
971.958	444
974.298	346
976.638	324
978.976	274
981.314	240
983.651	228
985.988	212
988.323	212
990.659	212
992.992	208
995.325	218
997.658	186
999.99	196
1002.32	198
1004.65	188
1006.98	192
1009.31	178
1011.64	206
1013.97	198
1016.29	218
1018.62	232
1020.94	236
1023.27	240
1025.59	252
1027.91	264
1030.24	252
1032.56	272
1034.88	274
1037.2	266
1039.52	274
1041.84	258
1044.15	250
1046.47	244
1048.79	212
1051.1	224
1053.42	206
1055.73	196
1058.04	214
1060.36	202
1062.67	210
1064.98	204
1067.29	200
1069.6	186
1071.91	208
1074.22	178
1076.52	194
1078.83	194
1081.14	206
1083.44	204
1085.75	208
1088.05	206
1090.35	202
1092.65	186
1094.95	218
1097.26	226
1099.56	214
1101.86	258
1104.15	274
1106.45	376
1108.75	582
1111.05	802
1113.34	942
1115.64	704
1117.93	528
1120.22	366
1122.52	312
1124.81	278
1127.1	270
1129.39	242
1131.68	226
1133.97	242
1136.26	254
1138.54	242
1140.83	254
1143.12	252
1145.4	242
1147.69	236
1149.97	218
1152.25	226
1154.54	228
1156.82	236
1159.1	262
1161.38	294
1163.66	270
1165.94	268
1168.22	240
1170.49	260
1172.77	254
1175.05	270
1177.32	310
1179.6	364
1181.87	432
1184.14	560
1186.42	620
1188.69	614
1190.96	528
1193.23	456
1195.5	412
1197.77	434
1200.03	430
1202.3	464
1204.57	472
1206.83	418
1209.1	348
1211.36	280
1213.63	270
1215.89	256
1218.15	244
1220.41	244
1222.67	264
1224.93	278
1227.19	324
1229.45	318
1231.71	338
1233.97	314
1236.22	252
1238.48	240
1240.73	218
1242.99	218
1245.24	214
1247.5	218
1249.75	230
1252	214
1254.25	232
1256.5	230
1258.75	208
1261	226
1263.25	228
1265.49	246
1267.74	260
1269.99	252
1272.23	254
1274.48	264
1276.72	282
1278.96	286
1281.21	310
1283.45	356
1285.69	374
1287.93	398
1290.17	450
1292.41	538
1294.64	566
1296.88	792
1299.12	1128
1301.36	1590
1303.59	2074
1305.82	2224
1308.06	1894
1310.29	1286
1312.52	938
1314.76	734
1316.99	628
1319.22	548
1321.45	528
1323.68	474
1325.9	486
1328.13	446
1330.36	438
1332.58	400
1334.81	366
1337.04	348
1339.26	320
1341.48	338
1343.71	330
1345.93	360
1348.15	382
1350.37	412
1352.59	362
1354.81	358
1357.03	338
1359.24	308
1361.46	316
1363.68	308
1365.89	294
1368.11	322
1370.32	404
1372.54	530
1374.75	748
1376.96	982
1379.17	1088
1381.38	1000
1383.59	924
1385.8	714
1388.01	536
1390.22	418
1392.43	312
1394.63	304
1396.84	276
1399.05	258
1401.25	262
1403.45	252
1405.66	262
1407.86	276
1410.06	268
1412.26	276
1414.46	306
1416.66	304
1418.86	362
1421.06	376
1423.26	390
1425.46	404
1427.65	428
1429.85	434
1432.04	430
1434.24	444
1436.43	482
1438.62	504
1440.82	488
1443.01	496
1445.2	450
1447.39	442
1449.58	398
1451.77	398
1453.95	372
1456.14	378
1458.33	386
1460.52	394
1462.7	382
1464.89	384
1467.07	380
1469.25	364
1471.44	358
1473.62	350
1475.8	344
1477.98	354
1480.16	344
1482.34	348
1484.52	328
1486.7	332
1488.87	290
1491.05	280
1493.23	280
1495.4	302
1497.58	280
1499.75	270
1501.92	280
1504.1	260
1506.27	276
1508.44	266
1510.61	274
1512.78	294
1514.95	270
1517.12	280
1519.28	256
1521.45	268
1523.62	260
1525.78	270
1527.95	280
1530.11	302
1532.28	258
1534.44	262
1536.6	274
1538.76	262
1540.93	248
1543.09	272
1545.25	280
1547.41	270
1549.56	268
1551.72	294
1553.88	270
1556.03	300
1558.19	296
1560.35	282
1562.5	290
1564.65	286
1566.81	280
1568.96	318
1571.11	308
1573.26	344
1575.41	376
1577.56	368
1579.71	424
1581.86	444
1584.01	492
1586.15	590
1588.3	668
1590.45	764
1592.59	914
1594.74	1072
1596.88	1218
1599.02	1366
1601.17	1488
1603.31	1520
1605.45	1392
1607.59	1228
1609.73	1150
1611.87	998
1614.01	852
1616.14	764
1618.28	640
1620.42	524
1622.55	450
1624.69	360
1626.82	336
1628.96	346
1631.09	304
1633.22	300
1635.36	266
1637.49	268
1639.62	272
1641.75	266
1643.88	252
1646	230
1648.13	254
1650.26	238
1652.39	244
1654.51	246
1656.64	222
1658.76	236
1660.89	208
1663.01	232
1665.13	220
1667.26	220
1669.38	224
1671.5	232
1673.62	220
1675.74	218
1677.86	232
1679.97	210
1682.09	236
1684.21	234
1686.33	228
1688.44	228
1690.56	230
1692.67	240
1694.78	262
1696.9	240
1699.01	246
1701.12	228
1703.23	242
1705.34	242
1707.45	222
1709.56	220
1711.67	230
1713.78	244
1715.88	218
1717.99	214
1720.1	230
1722.2	232
1724.31	230
1726.41	222
1728.51	218
1730.62	222
1732.72	226
1734.82	216
1736.92	200
1739.02	212
1741.12	214
1743.22	212
1745.32	212
1747.42	206
1749.51	220
1751.61	214
1753.7	222
1755.8	216
1757.89	210
1759.99	208
1762.08	212
1764.17	194
1766.26	212
1768.36	198
1770.45	226
1772.54	198
1774.62	216
1776.71	194
1778.8	208
1780.89	222
1782.98	202
1785.06	206
1787.15	202
1789.23	204
1791.32	208
1793.4	204
1795.48	220
1797.56	214
1799.65	194
1801.73	212
1803.81	190
1805.89	212
1807.97	194
1810.04	214
1812.12	204
1814.2	218
1816.28	196
1818.35	212
1820.43	196
1822.5	204
1824.58	212
1826.65	206
1828.72	208
1830.79	212
1832.86	198
1834.94	210
1837.01	212
1839.08	192
1841.15	234
1843.21	210
1845.28	208
1847.35	198
1849.41	216
1851.48	190
1853.55	208
1855.61	216
1857.67	210
1859.74	202
1861.8	198
1863.86	194
1865.92	202
1867.98	208
1870.05	192
1872.1	202
1874.16	198
1876.22	202
1878.28	208
1880.34	204
1882.39	218
1884.45	210
1886.5	212
1888.56	218
1890.61	210
1892.67	216
1894.72	216
1896.77	224
1898.82	208
1900.87	210
1902.92	208
1904.97	222
1907.02	194
1909.07	212
1911.12	222
1913.17	226
1915.21	198
1917.26	210
1919.3	216
1921.35	228
1923.39	192
1925.43	206
1927.48	216
1929.52	220
1931.56	226
1933.6	196
1935.64	226
1937.68	204
1939.72	216
1941.76	216
1943.8	212
1945.83	216
1947.87	200
1949.91	210
1951.94	224
1953.98	202
1956.01	204
1958.05	212
1960.08	210
1962.11	200
1964.14	200
1966.17	216
1968.2	204
1970.23	192
1972.26	206
1974.29	216
1976.32	196
1978.35	206
1980.37	212
1982.4	226
1984.43	208
1986.45	224
1988.48	202
1990.5	212
1992.52	218
1994.55	210
1996.57	196
1998.59	196
2000.61	214
2002.63	198
2004.65	208
2006.67	212
2008.69	214
2010.7	216
2012.72	212
2014.74	212
2016.75	220
2018.77	214
2020.78	212
2022.8	218
2024.81	208
2026.83	218
2028.84	214
2030.85	224
2032.86	218
2034.87	214
2036.88	192
2038.89	200
2040.9	204
2042.91	218
2044.91	206
2046.92	198
2048.93	208
2050.93	230
2052.94	190
2054.94	220
2056.95	208
2058.95	184
2060.95	206
2062.95	202
2064.96	202
2066.96	190
2068.96	216
2070.96	192
2072.96	214
2074.95	186
2076.95	204
2078.95	210
2080.95	206
2082.94	212
2084.94	210
2086.93	208
2088.93	220
2090.92	226
2092.91	206
2094.91	198
2096.9	206
2098.89	208
2100.88	230
2102.87	206
2104.86	206
2106.85	192
2108.84	214
2110.83	214
2112.81	220
2114.8	206
2116.78	226
2118.77	210
2120.75	200
2122.74	218
2124.72	198
2126.71	208
2128.69	206
2130.67	224
2132.65	210
2134.63	198
2136.61	200
2138.59	204
2140.57	218
2142.55	210
2144.53	204
2146.5	224
2148.48	212
2150.46	188
2152.43	202
2154.41	204
2156.38	212
2158.35	206
2160.33	206
2162.3	206
2164.27	226
2166.24	212
2168.21	210
2170.18	224
2172.15	190
2174.12	198
2176.09	220
2178.06	214
2180.03	200
2181.99	204
2183.96	216
2185.92	220
2187.89	204
2189.85	204
2191.82	206
2193.78	210
2195.74	210
2197.7	202
2199.67	230
2201.63	206
2203.59	198
2205.55	204
2207.51	210
2209.46	196
2211.42	216
2213.38	198
2215.34	210
2217.29	218
2219.25	204
2221.2	196
2223.16	208
2225.11	224
2227.06	218
2229.02	190
2230.97	214
2232.92	212
2234.87	202
2236.82	202
2238.77	214
2240.72	218
2242.67	234
2244.62	204
2246.57	206
2248.51	220
2250.46	200
2252.4	220
2254.35	200
2256.29	192
2258.24	208
2260.18	214
2262.13	210
2264.07	208
2266.01	220
2267.95	204
2269.89	202
2271.83	216
2273.77	202
2275.71	218
2277.65	202
2279.58	202
2281.52	202
2283.46	242
2285.4	210
2287.33	224
2289.27	210
2291.2	192
2293.13	200
2295.07	224
2297	212
2298.93	192
2300.86	200
2302.79	218
2304.72	208
2306.65	210
2308.58	214
2310.51	204
2312.44	212
2314.37	206
2316.29	206
2318.22	212
2320.15	220
2322.07	210
2324	208
2325.92	216
2327.84	224
2329.77	190
2331.69	220
2333.61	200
2335.53	214
2337.45	190
2339.37	208
2341.29	224
2343.21	212
2345.13	226
2347.05	216
2348.97	228
2350.88	216
2352.8	198
2354.71	218
2356.63	210
2358.54	188
2360.46	206
2362.37	208
2364.28	204
2366.2	224
2368.11	208
2370.02	208
2371.93	214
2373.84	206
2375.75	214
2377.66	218
2379.57	212
2381.47	198
2383.38	220
2385.29	222
2387.2	222
2389.1	214
2391.01	210
2392.91	210
2394.81	224
2396.72	214
2398.62	220
2400.52	206
2402.42	216
2404.33	212
2406.23	208
2408.13	220
2410.03	208
2411.92	212
2413.82	216
2415.72	208
2417.62	204
2419.51	218
2421.41	216
2423.31	208
2425.2	214
2427.1	206
2428.99	194
2430.88	206
2432.78	214
2434.67	198
2436.56	220
2438.45	200
2440.34	200
2442.23	226
2444.12	212
2446.01	234
2447.9	212
2449.79	218