File: Jesse_Dataset_v2/Pure Raman/Polypropylene oxide/633nm/ps-ppo-7jan25-0,0000-map2_Y10_X00.txt
182.393	686
184.993	656
187.593	612
190.193	606
192.79	590
195.387	556
197.983	550
200.578	542
203.174	502
205.766	480
208.36	496
210.951	458
213.542	444
216.131	462
218.721	436
221.309	504
223.897	606
226.483	702
229.069	896
231.654	1144
234.238	1244
236.821	1220
239.404	1088
241.984	976
244.566	878
247.145	742
249.723	636
252.302	538
254.878	452
257.455	414
260.03	370
262.604	330
265.178	334
267.75	314
270.322	286
272.893	292
275.463	326
278.032	308
280.601	328
283.168	362
285.734	380
288.301	454
290.866	544
293.429	588
295.992	620
298.556	590
301.117	558
303.677	498
306.236	478
308.795	468
311.354	394
313.911	408
316.467	372
319.022	370
321.577	368
324.13	364
326.684	366
329.236	376
331.787	404
334.337	394
336.887	406
339.435	404
341.983	368
344.529	366
347.075	340
349.621	378
352.165	346
354.708	380
357.251	390
359.793	358
362.334	340
364.874	342
367.413	360
369.951	330
372.489	354
375.026	318
377.562	320
380.097	326
382.631	302
385.164	266
387.697	272
390.229	264
392.76	258
395.29	244
397.819	248
400.346	258
402.873	270
405.4	270
407.926	296
410.451	334
412.976	382
415.499	396
418.02	360
420.542	318
423.063	282
425.583	274
428.101	242
430.619	206
433.137	238
435.654	224
438.169	218
440.684	196
443.198	204
445.712	190
448.223	188
450.735	184
453.246	212
455.755	186
458.264	208
460.771	194
463.279	230
465.786	230
468.291	260
470.796	288
473.301	350
475.803	366
478.306	416
480.807	468
483.308	506
485.807	496
488.307	476
490.804	380
493.302	316
495.798	294
498.294	252
500.788	226
503.283	244
505.775	248
508.269	280
510.759	346
513.251	410
515.74	408
518.23	358
520.718	316
523.204	314
525.692	334
528.177	410
530.663	492
533.147	586
535.629	672
538.113	756
540.594	788
543.074	706
545.555	576
548.034	476
550.512	396
552.989	386
555.467	450
557.942	530
560.417	712
562.892	996
565.365	1530
567.838	2444
570.309	3504
572.78	3578
575.251	2520
577.72	1530
580.189	950
582.656	734
585.123	640
587.589	588
590.055	560
592.52	534
594.983	478
597.446	452
599.908	390
602.369	326
604.829	298
607.289	266
609.747	244
612.205	238
614.663	240
617.119	252
619.574	226
622.029	248
624.483	256
626.936	272
629.389	330
631.84	312
634.291	334
636.741	354
639.19	320
641.639	298
644.086	294
646.533	266
648.979	264
651.424	260
653.869	240
656.313	230
658.754	216
661.196	212
663.638	194
666.078	196
668.518	202
670.957	202
673.394	192
675.831	192
678.268	188
680.703	184
683.137	190
685.571	194
688.005	214
690.437	214
692.868	198
695.299	182
697.729	190
700.159	200
702.586	214
705.014	198
707.441	218
709.866	224
712.292	258
714.716	270
717.14	252
719.563	252
721.984	226
724.406	232
726.825	218
729.246	240
731.665	234
734.082	232
736.5	264
738.916	250
741.332	256
743.746	288
746.161	338
748.574	358
750.987	298
753.398	324
755.81	314
758.219	284
760.629	230
763.037	224
765.445	222
767.852	198
770.258	214
772.664	214
775.068	216
777.472	258
779.876	246
782.278	236
784.679	226
787.08	224
789.48	218
791.879	220
794.278	228
796.675	214
799.072	214
801.467	224
803.864	222
806.258	224
808.651	236
811.044	220
813.437	214
815.828	258
818.218	252
820.608	272
822.997	288
825.385	354
827.773	496
830.16	788
832.546	1124
834.931	1100
837.315	712
839.699	432
842.081	336
844.463	296
846.844	278
849.226	272
851.606	280
853.985	276
856.363	254
858.741	264
861.117	266
863.493	234
865.868	224
868.243	214
870.616	232
872.989	224
875.36	218
877.731	226
880.102	220
882.472	196
884.841	204
887.209	190
889.577	222
891.944	176
894.31	216
896.674	200
899.039	202
901.403	210
903.766	192
906.128	212
908.49	196
910.849	204
913.209	220
915.569	218
917.927	212
920.284	210
922.641	200
924.997	210
927.353	214
929.707	232
932.061	220
934.414	224
936.765	226
939.117	252
941.469	266
943.818	266
946.167	318
948.515	346
950.863	428
953.211	580
955.556	690
957.902	826
960.246	938
962.59	916
964.933	762
967.276	644
969.617	548
971.958	488
974.298	394
976.638	308
978.976	302
981.314	270
983.651	284
985.988	262
988.323	244
990.659	248
992.992	252
995.325	230
997.658	238
999.99	230
1002.32	238
1004.65	224
1006.98	232
1009.31	236
1011.64	220
1013.97	238
1016.29	252
1018.62	240
1020.94	280
1023.27	282
1025.59	266
1027.91	268
1030.24	298
1032.56	302
1034.88	320
1037.2	318
1039.52	290
1041.84	288
1044.15	278
1046.47	246
1048.79	258
1051.1	240
1053.42	230
1055.73	240
1058.04	218
1060.36	222
1062.67	230
1064.98	240
1067.29	232
1069.6	232
1071.91	234
1074.22	228
1076.52	228
1078.83	240
1081.14	238
1083.44	214
1085.75	234
1088.05	236
1090.35	246
1092.65	254
1094.95	240
1097.26	236
1099.56	240
1101.86	272
1104.15	302
1106.45	396
1108.75	590
1111.05	822
1113.34	886
1115.64	722
1117.93	532
1120.22	398
1122.52	342
1124.81	314
1127.1	280
1129.39	284
1131.68	290
1133.97	270
1136.26	262
1138.54	292
1140.83	268
1143.12	278
1145.4	248
1147.69	270
1149.97	260
1152.25	256
1154.54	262
1156.82	262
1159.1	300
1161.38	290
1163.66	300
1165.94	280
1168.22	270
1170.49	270
1172.77	296
1175.05	320
1177.32	324
1179.6	358
1181.87	460
1184.14	556
1186.42	620
1188.69	612
1190.96	488
1193.23	458
1195.5	454
1197.77	438
1200.03	458
1202.3	478
1204.57	484
1206.83	444
1209.1	394
1211.36	324
1213.63	278
1215.89	272
1218.15	280
1220.41	272
1222.67	284
1224.93	312
1227.19	340
1229.45	386
1231.71	376
1233.97	318
1236.22	284
1238.48	282
1240.73	260
1242.99	256
1245.24	266
1247.5	274
1249.75	256
1252	250
1254.25	258
1256.5	280
1258.75	270
1261	246
1263.25	284
1265.49	278
1267.74	280
1269.99	266
1272.23	288
1274.48	284
1276.72	302
1278.96	306
1281.21	342
1283.45	376
1285.69	440
1287.93	402
1290.17	456
1292.41	554
1294.64	618
1296.88	754
1299.12	1064
1301.36	1548
1303.59	2010
1305.82	2130
1308.06	1792
1310.29	1348
1312.52	966
1314.76	762
1316.99	630
1319.22	558
1321.45	522
1323.68	488
1325.9	494
1328.13	494
1330.36	468
1332.58	444
1334.81	406
1337.04	342
1339.26	368
1341.48	358
1343.71	364
1345.93	356
1348.15	420
1350.37	396
1352.59	404
1354.81	376
1357.03	364
1359.24	342
1361.46	344
1363.68	336
1365.89	344
1368.11	368
1370.32	410
1372.54	570
1374.75	760
1376.96	948
1379.17	1066
1381.38	1010
1383.59	894
1385.8	708
1388.01	532
1390.22	442
1392.43	354
1394.63	332
1396.84	330
1399.05	310
1401.25	296
1403.45	306
1405.66	308
1407.86	292
1410.06	310
1412.26	318
1414.46	326
1416.66	334
1418.86	352
1421.06	386
1423.26	408
1425.46	430
1427.65	434
1429.85	452
1432.04	442
1434.24	468
1436.43	482
1438.62	530
1440.82	518
1443.01	534
1445.2	518
1447.39	450
1449.58	454
1451.77	434
1453.95	400
1456.14	418
1458.33	388
1460.52	434
1462.7	404
1464.89	384
1467.07	374
1469.25	380
1471.44	416
1473.62	384
1475.8	368
1477.98	398
1480.16	376
1482.34	386
1484.52	360
1486.7	354
1488.87	346
1491.05	336
1493.23	328
1495.4	314
1497.58	302
1499.75	294
1501.92	316
1504.1	306
1506.27	320
1508.44	302
1510.61	292
1512.78	304
1514.95	292
1517.12	312
1519.28	284
1521.45	296
1523.62	304
1525.78	298
1527.95	288
1530.11	306
1532.28	314
1534.44	300
1536.6	284
1538.76	280
1540.93	294
1543.09	296
1545.25	286
1547.41	318
1549.56	294
1551.72	296
1553.88	332
1556.03	306
1558.19	314
1560.35	324
1562.5	346
1564.65	324
1566.81	334
1568.96	338
1571.11	352
1573.26	374
1575.41	386
1577.56	426
1579.71	448
1581.86	488
1584.01	522
1586.15	614
1588.3	632
1590.45	792
1592.59	918
1594.74	1060
1596.88	1232
1599.02	1372
1601.17	1392
1603.31	1476
1605.45	1366
1607.59	1302
1609.73	1148
1611.87	1006
1614.01	874
1616.14	744
1618.28	620
1620.42	578
1622.55	478
1624.69	420
1626.82	406
1628.96	346
1631.09	348
1633.22	310
1635.36	312
1637.49	288
1639.62	298
1641.75	276
1643.88	318
1646	272
1648.13	292
1650.26	284
1652.39	272
1654.51	260
1656.64	274
1658.76	248
1660.89	254
1663.01	258
1665.13	266
1667.26	262
1669.38	236
1671.5	264
1673.62	260
1675.74	246
1677.86	270
1679.97	260
1682.09	274
1684.21	268
1686.33	266
1688.44	260
1690.56	278
1692.67	292
1694.78	266
1696.9	282
1699.01	276
1701.12	274
1703.23	272
1705.34	266
1707.45	264
1709.56	270
1711.67	272
1713.78	262
1715.88	262
1717.99	254
1720.1	236
1722.2	244
1724.31	252
1726.41	256
1728.51	272
1730.62	246
1732.72	248
1734.82	232
1736.92	250
1739.02	234
1741.12	238
1743.22	242
1745.32	256
1747.42	218
1749.51	238
1751.61	258
1753.7	222
1755.8	252
1757.89	256
1759.99	228
1762.08	246
1764.17	240
1766.26	242
1768.36	234
1770.45	240
1772.54	252
1774.62	252
1776.71	262
1778.8	232
1780.89	262
1782.98	252
1785.06	246
1787.15	250
1789.23	240
1791.32	232
1793.4	240
1795.48	232
1797.56	230
1799.65	240
1801.73	250
1803.81	238
1805.89	250
1807.97	224
1810.04	220
1812.12	232
1814.2	262
1816.28	230
1818.35	246
1820.43	238
1822.5	262
1824.58	246
1826.65	254
1828.72	220
1830.79	234
1832.86	240
1834.94	246
1837.01	230
1839.08	242
1841.15	228
1843.21	234
1845.28	244
1847.35	240
1849.41	242
1851.48	252
1853.55	242
1855.61	244
1857.67	222
1859.74	240
1861.8	224
1863.86	226
1865.92	234
1867.98	228
1870.05	256
1872.1	234
1874.16	232
1876.22	226
1878.28	248
1880.34	220
1882.39	254
1884.45	230
1886.5	246
1888.56	240
1890.61	244
1892.67	244
1894.72	250
1896.77	246
1898.82	232
1900.87	238
1902.92	246
1904.97	240
1907.02	248
1909.07	242
1911.12	232
1913.17	246
1915.21	252
1917.26	258
1919.3	242
1921.35	228
1923.39	230
1925.43	234
1927.48	238
1929.52	230
1931.56	230
1933.6	234
1935.64	236
1937.68	238
1939.72	236
1941.76	246
1943.8	222
1945.83	240
1947.87	248
1949.91	238
1951.94	228
1953.98	236
1956.01	230
1958.05	236
1960.08	228
1962.11	238
1964.14	228
1966.17	240
1968.2	242
1970.23	244
1972.26	234
1974.29	240
1976.32	220
1978.35	266
1980.37	246
1982.4	234
1984.43	238
1986.45	228
1988.48	252
1990.5	244
1992.52	222
1994.55	248
1996.57	242
1998.59	226
2000.61	212
2002.63	246
2004.65	246
2006.67	244
2008.69	208
2010.7	242
2012.72	222
2014.74	234
2016.75	238
2018.77	220
2020.78	226
2022.8	232
2024.81	244
2026.83	228
2028.84	250
2030.85	244
2032.86	242
2034.87	236
2036.88	236
2038.89	228
2040.9	252
2042.91	256
2044.91	232
2046.92	236
2048.93	232
2050.93	238
2052.94	230
2054.94	256
2056.95	234
2058.95	246
2060.95	228
2062.95	250
2064.96	238
2066.96	254
2068.96	248
2070.96	246
2072.96	248
2074.95	248
2076.95	254
2078.95	232
2080.95	226
2082.94	254
2084.94	238
2086.93	242
2088.93	240
2090.92	224
2092.91	234
2094.91	236
2096.9	218
2098.89	232
2100.88	258
2102.87	232
2104.86	226
2106.85	242
2108.84	240
2110.83	238
2112.81	244
2114.8	228
2116.78	226
2118.77	228
2120.75	236
2122.74	238
2124.72	230
2126.71	244
2128.69	232
2130.67	242
2132.65	248
2134.63	248
2136.61	222
2138.59	236
2140.57	226
2142.55	240
2144.53	230
2146.5	252
2148.48	242
2150.46	220
2152.43	250
2154.41	218
2156.38	240
2158.35	228
2160.33	240
2162.3	232
2164.27	238
2166.24	244
2168.21	230
2170.18	248
2172.15	218
2174.12	228
2176.09	238
2178.06	238
2180.03	238
2181.99	246
2183.96	228
2185.92	242
2187.89	246
2189.85	246
2191.82	236
2193.78	222
2195.74	222
2197.7	230
2199.67	220
2201.63	222
2203.59	224
2205.55	226
2207.51	238
2209.46	228
2211.42	220
2213.38	238
2215.34	236
2217.29	216
2219.25	218
2221.2	250
2223.16	210
2225.11	222
2227.06	232
2229.02	228
2230.97	244
2232.92	220
2234.87	234
2236.82	242
2238.77	238
2240.72	236
2242.67	244
2244.62	238
2246.57	240
2248.51	250
2250.46	236
2252.4	242
2254.35	228
2256.29	228
2258.24	242
2260.18	242
2262.13	228
2264.07	240
2266.01	236
2267.95	250
2269.89	210
2271.83	246
2273.77	234
2275.71	212
2277.65	234
2279.58	216
2281.52	238
2283.46	240
2285.4	226
2287.33	242
2289.27	224
2291.2	230
2293.13	228
2295.07	242
2297	224
2298.93	238
2300.86	236
2302.79	226
2304.72	234
2306.65	232
2308.58	242
2310.51	242
2312.44	244
2314.37	230
2316.29	240
2318.22	238
2320.15	246
2322.07	224
2324	244
2325.92	246
2327.84	256
2329.77	238
2331.69	264
2333.61	228
2335.53	236
2337.45	232
2339.37	230
2341.29	236
2343.21	242
2345.13	232
2347.05	226
2348.97	242
2350.88	216
2352.8	238
2354.71	238
2356.63	230
2358.54	232
2360.46	218
2362.37	230
2364.28	230
2366.2	218
2368.11	216
2370.02	242
2371.93	234
2373.84	234
2375.75	234
2377.66	234
2379.57	222
2381.47	234
2383.38	254
2385.29	228
2387.2	242
2389.1	240
2391.01	234
2392.91	226
2394.81	232
2396.72	234
2398.62	238
2400.52	228
2402.42	238
2404.33	250
2406.23	232
2408.13	240
2410.03	258
2411.92	248
2413.82	236
2415.72	244
2417.62	242
2419.51	218
2421.41	214
2423.31	222
2425.2	230
2427.1	228
2428.99	230
2430.88	230
2432.78	220
2434.67	238
2436.56	244
2438.45	212
2440.34	226
2442.23	230
2444.12	238
2446.01	232
2447.9	220
2449.79	232