File: Jesse_Dataset_v2/Pure Raman/Polypropylene oxide/633nm/ps-ppo-7jan25-0,0000-map2_Y07_X09.txt
182.393	678
184.993	650
187.593	626
190.193	584
192.79	572
195.387	564
197.983	520
200.578	494
203.174	486
205.766	516
208.36	492
210.951	472
213.542	446
216.131	452
218.721	458
221.309	500
223.897	564
226.483	722
229.069	900
231.654	1100
234.238	1212
236.821	1198
239.404	1124
241.984	992
244.566	894
247.145	740
249.723	632
252.302	512
254.878	462
257.455	418
260.03	368
262.604	338
265.178	288
267.75	286
270.322	292
272.893	284
275.463	274
278.032	280
280.601	284
283.168	348
285.734	386
288.301	428
290.866	514
293.429	612
295.992	620
298.556	596
301.117	556
303.677	478
306.236	466
308.795	404
311.354	390
313.911	374
316.467	360
319.022	372
321.577	362
324.13	350
326.684	362
329.236	394
331.787	386
334.337	404
336.887	392
339.435	386
341.983	368
344.529	346
347.075	344
349.621	320
352.165	356
354.708	342
357.251	342
359.793	356
362.334	304
364.874	350
367.413	324
369.951	318
372.489	334
375.026	330
377.562	336
380.097	282
382.631	276
385.164	264
387.697	220
390.229	254
392.76	242
395.29	242
397.819	228
400.346	222
402.873	252
405.4	270
407.926	276
410.451	308
412.976	372
415.499	374
418.02	342
420.542	302
423.063	296
425.583	256
428.101	226
430.619	228
433.137	218
435.654	184
438.169	198
440.684	176
443.198	178
445.712	166
448.223	164
450.735	186
453.246	184
455.755	170
458.264	180
460.771	192
463.279	202
465.786	206
468.291	246
470.796	274
473.301	286
475.803	320
478.306	402
480.807	420
483.308	506
485.807	512
488.307	462
490.804	350
493.302	304
495.798	264
498.294	244
500.788	216
503.283	212
505.775	216
508.269	254
510.759	350
513.251	412
515.74	370
518.23	304
520.718	298
523.204	286
525.692	350
528.177	376
530.663	472
533.147	546
535.629	698
538.113	788
540.594	766
543.074	696
545.555	552
548.034	438
550.512	394
552.989	368
555.467	436
557.942	506
560.417	666
562.892	968
565.365	1628
567.838	2608
570.309	3546
572.78	3624
575.251	2606
577.72	1494
580.189	952
582.656	720
585.123	646
587.589	606
590.055	530
592.52	514
594.983	496
597.446	440
599.908	366
602.369	314
604.829	264
607.289	242
609.747	206
612.205	216
614.663	202
617.119	218
619.574	228
622.029	226
624.483	248
626.936	286
629.389	282
631.84	286
634.291	318
636.741	310
639.19	334
641.639	282
644.086	280
646.533	240
648.979	238
651.424	224
653.869	218
656.313	208
658.754	202
661.196	182
663.638	178
666.078	178
668.518	168
670.957	172
673.394	184
675.831	174
678.268	172
680.703	174
683.137	190
685.571	170
688.005	178
690.437	174
692.868	154
695.299	164
697.729	164
700.159	154
702.586	164
705.014	182
707.441	192
709.866	206
712.292	214
714.716	254
717.14	270
719.563	230
721.984	200
724.406	214
726.825	198
729.246	206
731.665	200
734.082	208
736.5	222
738.916	248
741.332	240
743.746	258
746.161	316
748.574	334
750.987	318
753.398	288
755.81	254
758.219	246
760.629	224
763.037	210
765.445	196
767.852	190
770.258	206
772.664	198
775.068	206
777.472	220
779.876	226
782.278	218
784.679	216
787.08	208
789.48	202
791.879	196
794.278	200
796.675	188
799.072	174
801.467	190
803.864	198
806.258	200
808.651	218
811.044	204
813.437	212
815.828	224
818.218	228
820.608	230
822.997	276
825.385	354
827.773	510
830.16	788
832.546	1154
834.931	1102
837.315	670
839.699	416
842.081	278
844.463	266
846.844	254
849.226	260
851.606	250
853.985	268
856.363	232
858.741	244
861.117	236
863.493	220
865.868	218
868.243	206
870.616	198
872.989	188
875.36	184
877.731	204
880.102	192
882.472	196
884.841	192
887.209	192
889.577	190
891.944	176
894.31	174
896.674	160
899.039	180
901.403	172
903.766	188
906.128	180
908.49	176
910.849	184
913.209	170
915.569	176
917.927	182
920.284	184
922.641	198
924.997	184
927.353	190
929.707	202
932.061	208
934.414	192
936.765	202
939.117	226
941.469	232
943.818	268
946.167	274
948.515	324
950.863	414
953.211	516
955.556	690
957.902	856
960.246	914
962.59	882
964.933	750
967.276	622
969.617	520
971.958	416
974.298	342
976.638	288
978.976	280
981.314	256
983.651	222
985.988	238
988.323	214
990.659	240
992.992	224
995.325	214
997.658	206
999.99	192
1002.32	208
1004.65	212
1006.98	224
1009.31	192
1011.64	210
1013.97	210
1016.29	238
1018.62	212
1020.94	256
1023.27	246
1025.59	256
1027.91	248
1030.24	276
1032.56	288
1034.88	280
1037.2	276
1039.52	266
1041.84	250
1044.15	266
1046.47	244
1048.79	228
1051.1	210
1053.42	200
1055.73	202
1058.04	204
1060.36	188
1062.67	196
1064.98	218
1067.29	196
1069.6	202
1071.91	200
1074.22	198
1076.52	200
1078.83	200
1081.14	210
1083.44	200
1085.75	212
1088.05	208
1090.35	206
1092.65	210
1094.95	220
1097.26	204
1099.56	226
1101.86	240
1104.15	282
1106.45	350
1108.75	572
1111.05	788
1113.34	856
1115.64	696
1117.93	508
1120.22	368
1122.52	340
1124.81	292
1127.1	296
1129.39	262
1131.68	254
1133.97	250
1136.26	250
1138.54	246
1140.83	268
1143.12	244
1145.4	234
1147.69	230
1149.97	230
1152.25	214
1154.54	230
1156.82	230
1159.1	240
1161.38	286
1163.66	286
1165.94	258
1168.22	244
1170.49	236
1172.77	246
1175.05	266
1177.32	316
1179.6	348
1181.87	436
1184.14	584
1186.42	650
1188.69	582
1190.96	518
1193.23	444
1195.5	432
1197.77	416
1200.03	432
1202.3	482
1204.57	462
1206.83	420
1209.1	366
1211.36	302
1213.63	252
1215.89	266
1218.15	254
1220.41	242
1222.67	240
1224.93	280
1227.19	334
1229.45	376
1231.71	370
1233.97	308
1236.22	278
1238.48	246
1240.73	238
1242.99	238
1245.24	244
1247.5	216
1249.75	224
1252	246
1254.25	228
1256.5	228
1258.75	250
1261	240
1263.25	252
1265.49	278
1267.74	266
1269.99	244
1272.23	266
1274.48	276
1276.72	304
1278.96	296
1281.21	312
1283.45	342
1285.69	368
1287.93	420
1290.17	452
1292.41	484
1294.64	618
1296.88	804
1299.12	1078
1301.36	1522
1303.59	2026
1305.82	2172
1308.06	1846
1310.29	1328
1312.52	930
1314.76	732
1316.99	632
1319.22	504
1321.45	528
1323.68	454
1325.9	446
1328.13	458
1330.36	468
1332.58	418
1334.81	392
1337.04	338
1339.26	338
1341.48	322
1343.71	344
1345.93	376
1348.15	400
1350.37	396
1352.59	374
1354.81	342
1357.03	340
1359.24	296
1361.46	322
1363.68	304
1365.89	312
1368.11	338
1370.32	408
1372.54	492
1374.75	754
1376.96	958
1379.17	1062
1381.38	998
1383.59	918
1385.8	712
1388.01	514
1390.22	380
1392.43	344
1394.63	294
1396.84	300
1399.05	258
1401.25	292
1403.45	272
1405.66	276
1407.86	274
1410.06	304
1412.26	300
1414.46	302
1416.66	308
1418.86	348
1421.06	358
1423.26	398
1425.46	404
1427.65	420
1429.85	424
1432.04	456
1434.24	452
1436.43	490
1438.62	512
1440.82	524
1443.01	502
1445.2	466
1447.39	460
1449.58	396
1451.77	402
1453.95	390
1456.14	406
1458.33	364
1460.52	372
1462.7	388
1464.89	380
1467.07	342
1469.25	388
1471.44	376
1473.62	364
1475.8	362
1477.98	372
1480.16	366
1482.34	346
1484.52	330
1486.7	306
1488.87	294
1491.05	304
1493.23	282
1495.4	292
1497.58	312
1499.75	268
1501.92	288
1504.1	278
1506.27	286
1508.44	264
1510.61	266
1512.78	266
1514.95	274
1517.12	262
1519.28	258
1521.45	276
1523.62	284
1525.78	266
1527.95	270
1530.11	278
1532.28	276
1534.44	280
1536.6	268
1538.76	304
1540.93	280
1543.09	274
1545.25	274
1547.41	282
1549.56	304
1551.72	298
1553.88	312
1556.03	292
1558.19	286
1560.35	290
1562.5	280
1564.65	308
1566.81	302
1568.96	318
1571.11	324
1573.26	354
1575.41	374
1577.56	376
1579.71	416
1581.86	448
1584.01	492
1586.15	570
1588.3	618
1590.45	760
1592.59	886
1594.74	1018
1596.88	1210
1599.02	1318
1601.17	1410
1603.31	1454
1605.45	1430
1607.59	1306
1609.73	1146
1611.87	964
1614.01	848
1616.14	754
1618.28	598
1620.42	518
1622.55	462
1624.69	396
1626.82	352
1628.96	334
1631.09	318
1633.22	296
1635.36	298
1637.49	272
1639.62	274
1641.75	264
1643.88	248
1646	272
1648.13	254
1650.26	256
1652.39	238
1654.51	246
1656.64	236
1658.76	244
1660.89	230
1663.01	242
1665.13	238
1667.26	238
1669.38	228
1671.5	236
1673.62	222
1675.74	246
1677.86	218
1679.97	230
1682.09	236
1684.21	236
1686.33	240
1688.44	236
1690.56	250
1692.67	256
1694.78	282
1696.9	254
1699.01	246
1701.12	240
1703.23	264
1705.34	252
1707.45	240
1709.56	266
1711.67	236
1713.78	248
1715.88	236
1717.99	238
1720.1	234
1722.2	240
1724.31	234
1726.41	218
1728.51	218
1730.62	220
1732.72	226
1734.82	222
1736.92	218
1739.02	228
1741.12	216
1743.22	224
1745.32	208
1747.42	228
1749.51	226
1751.61	220
1753.7	218
1755.8	214
1757.89	220
1759.99	214
1762.08	222
1764.17	220
1766.26	248
1768.36	214
1770.45	206
1772.54	208
1774.62	216
1776.71	220
1778.8	220
1780.89	222
1782.98	214
1785.06	234
1787.15	234
1789.23	216
1791.32	216
1793.4	212
1795.48	212
1797.56	214
1799.65	210
1801.73	236
1803.81	228
1805.89	236
1807.97	220
1810.04	216
1812.12	222
1814.2	210
1816.28	206
1818.35	216
1820.43	218
1822.5	220
1824.58	212
1826.65	222
1828.72	208
1830.79	214
1832.86	228
1834.94	218
1837.01	220
1839.08	226
1841.15	212
1843.21	228
1845.28	210
1847.35	204
1849.41	214
1851.48	212
1853.55	198
1855.61	212
1857.67	212
1859.74	222
1861.8	216
1863.86	214
1865.92	220
1867.98	212
1870.05	228
1872.1	218
1874.16	224
1876.22	224
1878.28	216
1880.34	218
1882.39	224
1884.45	208
1886.5	220
1888.56	230
1890.61	222
1892.67	226
1894.72	212
1896.77	208
1898.82	210
1900.87	220
1902.92	224
1904.97	196
1907.02	210
1909.07	214
1911.12	220
1913.17	230
1915.21	210
1917.26	222
1919.3	210
1921.35	226
1923.39	214
1925.43	214
1927.48	220
1929.52	226
1931.56	244
1933.6	208
1935.64	222
1937.68	200
1939.72	222
1941.76	228
1943.8	218
1945.83	206
1947.87	206
1949.91	206
1951.94	194
1953.98	218
1956.01	222
1958.05	210
1960.08	214
1962.11	230
1964.14	212
1966.17	216
1968.2	214
1970.23	220
1972.26	222
1974.29	218
1976.32	226
1978.35	204
1980.37	212
1982.4	200
1984.43	242
1986.45	214
1988.48	222
1990.5	214
1992.52	214
1994.55	204
1996.57	228
1998.59	208
2000.61	216
2002.63	220
2004.65	218
2006.67	222
2008.69	228
2010.7	236
2012.72	224
2014.74	206
2016.75	232
2018.77	222
2020.78	206
2022.8	212
2024.81	236
2026.83	204
2028.84	216
2030.85	230
2032.86	210
2034.87	218
2036.88	216
2038.89	214
2040.9	216
2042.91	216
2044.91	224
2046.92	230
2048.93	208
2050.93	210
2052.94	220
2054.94	212
2056.95	212
2058.95	226
2060.95	230
2062.95	204
2064.96	224
2066.96	212
2068.96	224
2070.96	200
2072.96	210
2074.95	214
2076.95	216
2078.95	204
2080.95	214
2082.94	212
2084.94	226
2086.93	224
2088.93	218
2090.92	226
2092.91	206
2094.91	216
2096.9	212
2098.89	210
2100.88	220
2102.87	218
2104.86	220
2106.85	220
2108.84	230
2110.83	220
2112.81	214
2114.8	208
2116.78	220
2118.77	202
2120.75	206
2122.74	206
2124.72	206
2126.71	204
2128.69	216
2130.67	206
2132.65	218
2134.63	222
2136.61	224
2138.59	224
2140.57	210
2142.55	230
2144.53	220
2146.5	202
2148.48	208
2150.46	230
2152.43	226
2154.41	222
2156.38	218
2158.35	204
2160.33	208
2162.3	232
2164.27	216
2166.24	224
2168.21	224
2170.18	228
2172.15	210
2174.12	200
2176.09	216
2178.06	216
2180.03	226
2181.99	232
2183.96	212
2185.92	214
2187.89	216
2189.85	206
2191.82	204
2193.78	236
2195.74	202
2197.7	220
2199.67	218
2201.63	220
2203.59	198
2205.55	208
2207.51	202
2209.46	216
2211.42	208
2213.38	224
2215.34	226
2217.29	218
2219.25	204
2221.2	210
2223.16	226
2225.11	212
2227.06	202
2229.02	198
2230.97	230
2232.92	226
2234.87	226
2236.82	206
2238.77	216
2240.72	238
2242.67	224
2244.62	220
2246.57	226
2248.51	208
2250.46	216
2252.4	218
2254.35	212
2256.29	208
2258.24	222
2260.18	220
2262.13	196
2264.07	214
2266.01	220
2267.95	214
2269.89	210
2271.83	218
2273.77	224
2275.71	214
2277.65	224
2279.58	206
2281.52	218
2283.46	230
2285.4	204
2287.33	202
2289.27	230
2291.2	216
2293.13	220
2295.07	204
2297	216
2298.93	212
2300.86	224
2302.79	224
2304.72	218
2306.65	214
2308.58	226
2310.51	216
2312.44	212
2314.37	212
2316.29	216
2318.22	220
2320.15	228
2322.07	246
2324	228
2325.92	220
2327.84	238
2329.77	222
2331.69	226
2333.61	222
2335.53	210
2337.45	220
2339.37	222
2341.29	216
2343.21	222
2345.13	222
2347.05	228
2348.97	200
2350.88	220
2352.8	216
2354.71	212
2356.63	206
2358.54	202
2360.46	214
2362.37	208
2364.28	218
2366.2	194
2368.11	218
2370.02	218
2371.93	208
2373.84	206
2375.75	230
2377.66	222
2379.57	206
2381.47	220
2383.38	224
2385.29	200
2387.2	224
2389.1	234
2391.01	222
2392.91	238
2394.81	204
2396.72	218
2398.62	232
2400.52	242
2402.42	226
2404.33	224
2406.23	210
2408.13	216
2410.03	240
2411.92	230
2413.82	212
2415.72	228
2417.62	204
2419.51	222
2421.41	230
2423.31	206
2425.2	212
2427.1	214
2428.99	206
2430.88	224
2432.78	206
2434.67	210
2436.56	210
2438.45	210
2440.34	232
2442.23	224
2444.12	208
2446.01	204
2447.9	226
2449.79	232