File: Jesse_Dataset_v2/Pure Raman/Polypropylene oxide/633nm/ps-ppo-7jan25-0,0000-map2_Y10_X05.txt
182.393	656
184.993	658
187.593	620
190.193	594
192.79	576
195.387	548
197.983	514
200.578	500
203.174	486
205.766	502
208.36	472
210.951	434
213.542	452
216.131	456
218.721	456
221.309	498
223.897	532
226.483	722
229.069	910
231.654	1076
234.238	1224
236.821	1194
239.404	1074
241.984	1016
244.566	854
247.145	736
249.723	610
252.302	538
254.878	462
257.455	384
260.03	336
262.604	332
265.178	302
267.75	296
270.322	284
272.893	276
275.463	280
278.032	270
280.601	300
283.168	310
285.734	346
288.301	454
290.866	490
293.429	562
295.992	628
298.556	604
301.117	536
303.677	506
306.236	436
308.795	414
311.354	380
313.911	362
316.467	358
319.022	352
321.577	354
324.13	356
326.684	370
329.236	372
331.787	392
334.337	414
336.887	372
339.435	362
341.983	344
344.529	332
347.075	338
349.621	342
352.165	328
354.708	344
357.251	346
359.793	332
362.334	338
364.874	328
367.413	320
369.951	324
372.489	320
375.026	330
377.562	296
380.097	288
382.631	270
385.164	242
387.697	238
390.229	230
392.76	240
395.29	220
397.819	236
400.346	224
402.873	230
405.4	254
407.926	272
410.451	294
412.976	336
415.499	374
418.02	364
420.542	310
423.063	264
425.583	256
428.101	222
430.619	224
433.137	194
435.654	190
438.169	196
440.684	186
443.198	186
445.712	168
448.223	162
450.735	162
453.246	152
455.755	166
458.264	174
460.771	178
463.279	168
465.786	196
468.291	206
470.796	266
473.301	302
475.803	336
478.306	372
480.807	404
483.308	466
485.807	492
488.307	460
490.804	354
493.302	312
495.798	262
498.294	246
500.788	226
503.283	206
505.775	218
508.269	244
510.759	306
513.251	380
515.74	378
518.23	314
520.718	288
523.204	300
525.692	336
528.177	370
530.663	428
533.147	564
535.629	690
538.113	720
540.594	734
543.074	644
545.555	542
548.034	428
550.512	390
552.989	368
555.467	380
557.942	504
560.417	644
562.892	970
565.365	1558
567.838	2518
570.309	3528
572.78	3592
575.251	2628
577.72	1564
580.189	934
582.656	712
585.123	624
587.589	566
590.055	534
592.52	490
594.983	494
597.446	454
599.908	374
602.369	300
604.829	272
607.289	230
609.747	222
612.205	220
614.663	196
617.119	210
619.574	210
622.029	232
624.483	230
626.936	262
629.389	274
631.84	302
634.291	326
636.741	316
639.19	306
641.639	270
644.086	252
646.533	238
648.979	240
651.424	208
653.869	208
656.313	200
658.754	208
661.196	184
663.638	174
666.078	186
668.518	160
670.957	162
673.394	184
675.831	148
678.268	170
680.703	158
683.137	162
685.571	166
688.005	164
690.437	180
692.868	166
695.299	164
697.729	164
700.159	170
702.586	176
705.014	182
707.441	200
709.866	192
712.292	218
714.716	222
717.14	234
719.563	210
721.984	210
724.406	200
726.825	206
729.246	188
731.665	196
734.082	204
736.5	226
738.916	230
741.332	248
743.746	270
746.161	306
748.574	320
750.987	288
753.398	278
755.81	290
758.219	250
760.629	222
763.037	192
765.445	194
767.852	194
770.258	194
772.664	192
775.068	212
777.472	212
779.876	214
782.278	232
784.679	210
787.08	204
789.48	182
791.879	192
794.278	190
796.675	184
799.072	198
801.467	186
803.864	202
806.258	214
808.651	204
811.044	196
813.437	206
815.828	224
818.218	206
820.608	260
822.997	264
825.385	328
827.773	476
830.16	730
832.546	1072
834.931	1054
837.315	708
839.699	406
842.081	282
844.463	290
846.844	270
849.226	272
851.606	244
853.985	230
856.363	228
858.741	222
861.117	216
863.493	212
865.868	200
868.243	202
870.616	174
872.989	186
875.36	180
877.731	210
880.102	194
882.472	194
884.841	184
887.209	162
889.577	178
891.944	180
894.31	184
896.674	174
899.039	182
901.403	170
903.766	192
906.128	194
908.49	184
910.849	176
913.209	166
915.569	186
917.927	170
920.284	178
922.641	166
924.997	192
927.353	192
929.707	176
932.061	194
934.414	186
936.765	196
939.117	216
941.469	234
943.818	252
946.167	288
948.515	326
950.863	410
953.211	530
955.556	660
957.902	840
960.246	916
962.59	868
964.933	736
967.276	626
969.617	514
971.958	418
974.298	364
976.638	294
978.976	238
981.314	242
983.651	222
985.988	212
988.323	208
990.659	242
992.992	242
995.325	208
997.658	192
999.99	194
1002.32	194
1004.65	196
1006.98	214
1009.31	202
1011.64	190
1013.97	196
1016.29	194
1018.62	222
1020.94	226
1023.27	252
1025.59	266
1027.91	244
1030.24	254
1032.56	270
1034.88	278
1037.2	278
1039.52	264
1041.84	262
1044.15	244
1046.47	214
1048.79	234
1051.1	182
1053.42	212
1055.73	208
1058.04	206
1060.36	206
1062.67	210
1064.98	196
1067.29	192
1069.6	198
1071.91	202
1074.22	196
1076.52	188
1078.83	192
1081.14	202
1083.44	186
1085.75	204
1088.05	200
1090.35	230
1092.65	202
1094.95	214
1097.26	210
1099.56	228
1101.86	242
1104.15	266
1106.45	374
1108.75	534
1111.05	758
1113.34	878
1115.64	756
1117.93	470
1120.22	386
1122.52	328
1124.81	274
1127.1	266
1129.39	276
1131.68	238
1133.97	234
1136.26	222
1138.54	226
1140.83	264
1143.12	248
1145.4	234
1147.69	222
1149.97	214
1152.25	218
1154.54	226
1156.82	240
1159.1	244
1161.38	280
1163.66	264
1165.94	274
1168.22	238
1170.49	236
1172.77	264
1175.05	276
1177.32	294
1179.6	344
1181.87	456
1184.14	542
1186.42	618
1188.69	600
1190.96	496
1193.23	414
1195.5	422
1197.77	444
1200.03	446
1202.3	428
1204.57	452
1206.83	412
1209.1	386
1211.36	302
1213.63	256
1215.89	238
1218.15	244
1220.41	240
1222.67	266
1224.93	260
1227.19	326
1229.45	350
1231.71	342
1233.97	312
1236.22	270
1238.48	238
1240.73	254
1242.99	218
1245.24	228
1247.5	248
1249.75	218
1252	226
1254.25	224
1256.5	222
1258.75	238
1261	218
1263.25	234
1265.49	228
1267.74	258
1269.99	256
1272.23	264
1274.48	262
1276.72	308
1278.96	288
1281.21	306
1283.45	368
1285.69	368
1287.93	418
1290.17	424
1292.41	472
1294.64	594
1296.88	756
1299.12	1052
1301.36	1540
1303.59	1960
1305.82	2192
1308.06	1856
1310.29	1320
1312.52	960
1314.76	738
1316.99	650
1319.22	558
1321.45	482
1323.68	488
1325.9	450
1328.13	464
1330.36	448
1332.58	402
1334.81	360
1337.04	360
1339.26	318
1341.48	342
1343.71	330
1345.93	376
1348.15	376
1350.37	382
1352.59	372
1354.81	362
1357.03	344
1359.24	292
1361.46	300
1363.68	302
1365.89	300
1368.11	344
1370.32	378
1372.54	536
1374.75	722
1376.96	946
1379.17	1012
1381.38	1030
1383.59	946
1385.8	708
1388.01	528
1390.22	412
1392.43	314
1394.63	288
1396.84	278
1399.05	274
1401.25	284
1403.45	262
1405.66	272
1407.86	276
1410.06	268
1412.26	286
1414.46	298
1416.66	312
1418.86	350
1421.06	368
1423.26	384
1425.46	402
1427.65	426
1429.85	398
1432.04	410
1434.24	472
1436.43	482
1438.62	490
1440.82	508
1443.01	496
1445.2	462
1447.39	424
1449.58	414
1451.77	388
1453.95	388
1456.14	378
1458.33	358
1460.52	370
1462.7	360
1464.89	384
1467.07	364
1469.25	352
1471.44	350
1473.62	354
1475.8	356
1477.98	348
1480.16	346
1482.34	326
1484.52	314
1486.7	306
1488.87	300
1491.05	284
1493.23	272
1495.4	282
1497.58	266
1499.75	292
1501.92	274
1504.1	270
1506.27	276
1508.44	280
1510.61	284
1512.78	282
1514.95	278
1517.12	256
1519.28	262
1521.45	256
1523.62	246
1525.78	260
1527.95	268
1530.11	272
1532.28	252
1534.44	278
1536.6	284
1538.76	276
1540.93	266
1543.09	268
1545.25	276
1547.41	288
1549.56	268
1551.72	280
1553.88	296
1556.03	280
1558.19	296
1560.35	308
1562.5	308
1564.65	302
1566.81	308
1568.96	302
1571.11	332
1573.26	334
1575.41	340
1577.56	374
1579.71	414
1581.86	468
1584.01	494
1586.15	576
1588.3	644
1590.45	778
1592.59	904
1594.74	986
1596.88	1184
1599.02	1336
1601.17	1386
1603.31	1404
1605.45	1416
1607.59	1262
1609.73	1108
1611.87	968
1614.01	868
1616.14	744
1618.28	614
1620.42	532
1622.55	456
1624.69	394
1626.82	358
1628.96	324
1631.09	308
1633.22	284
1635.36	280
1637.49	292
1639.62	252
1641.75	242
1643.88	246
1646	260
1648.13	242
1650.26	256
1652.39	248
1654.51	252
1656.64	234
1658.76	230
1660.89	244
1663.01	236
1665.13	246
1667.26	222
1669.38	214
1671.5	254
1673.62	226
1675.74	226
1677.86	228
1679.97	212
1682.09	214
1684.21	212
1686.33	254
1688.44	254
1690.56	254
1692.67	242
1694.78	238
1696.9	258
1699.01	250
1701.12	238
1703.23	252
1705.34	238
1707.45	240
1709.56	228
1711.67	236
1713.78	254
1715.88	242
1717.99	218
1720.1	212
1722.2	214
1724.31	228
1726.41	218
1728.51	210
1730.62	204
1732.72	226
1734.82	208
1736.92	204
1739.02	204
1741.12	208
1743.22	204
1745.32	220
1747.42	210
1749.51	222
1751.61	210
1753.7	226
1755.8	230
1757.89	216
1759.99	202
1762.08	204
1764.17	210
1766.26	220
1768.36	204
1770.45	218
1772.54	222
1774.62	218
1776.71	212
1778.8	210
1780.89	210
1782.98	218
1785.06	218
1787.15	198
1789.23	212
1791.32	194
1793.4	198
1795.48	228
1797.56	226
1799.65	220
1801.73	212
1803.81	208
1805.89	230
1807.97	206
1810.04	208
1812.12	206
1814.2	206
1816.28	232
1818.35	208
1820.43	236
1822.5	194
1824.58	226
1826.65	206
1828.72	186
1830.79	212
1832.86	200
1834.94	208
1837.01	206
1839.08	204
1841.15	208
1843.21	210
1845.28	212
1847.35	206
1849.41	224
1851.48	220
1853.55	212
1855.61	202
1857.67	212
1859.74	194
1861.8	206
1863.86	196
1865.92	226
1867.98	210
1870.05	214
1872.1	214
1874.16	214
1876.22	206
1878.28	210
1880.34	198
1882.39	212
1884.45	204
1886.5	220
1888.56	216
1890.61	208
1892.67	206
1894.72	206
1896.77	218
1898.82	206
1900.87	198
1902.92	224
1904.97	198
1907.02	202
1909.07	204
1911.12	232
1913.17	222
1915.21	200
1917.26	224
1919.3	224
1921.35	224
1923.39	204
1925.43	212
1927.48	222
1929.52	212
1931.56	208
1933.6	216
1935.64	206
1937.68	212
1939.72	208
1941.76	204
1943.8	210
1945.83	218
1947.87	196
1949.91	202
1951.94	218
1953.98	198
1956.01	216
1958.05	228
1960.08	206
1962.11	206
1964.14	202
1966.17	204
1968.2	224
1970.23	220
1972.26	208
1974.29	220
1976.32	226
1978.35	218
1980.37	224
1982.4	214
1984.43	216
1986.45	218
1988.48	210
1990.5	198
1992.52	204
1994.55	212
1996.57	208
1998.59	230
2000.61	222
2002.63	216
2004.65	224
2006.67	192
2008.69	228
2010.7	198
2012.72	204
2014.74	202
2016.75	206
2018.77	206
2020.78	204
2022.8	224
2024.81	218
2026.83	196
2028.84	220
2030.85	218
2032.86	218
2034.87	210
2036.88	216
2038.89	200
2040.9	226
2042.91	198
2044.91	208
2046.92	214
2048.93	202
2050.93	222
2052.94	218
2054.94	196
2056.95	190
2058.95	212
2060.95	218
2062.95	230
2064.96	212
2066.96	208
2068.96	210
2070.96	190
2072.96	200
2074.95	210
2076.95	206
2078.95	204
2080.95	206
2082.94	198
2084.94	214
2086.93	212
2088.93	214
2090.92	182
2092.91	206
2094.91	210
2096.9	216
2098.89	216
2100.88	218
2102.87	216
2104.86	216
2106.85	186
2108.84	198
2110.83	222
2112.81	202
2114.8	214
2116.78	204
2118.77	204
2120.75	200
2122.74	202
2124.72	192
2126.71	196
2128.69	210
2130.67	204
2132.65	212
2134.63	222
2136.61	206
2138.59	218
2140.57	206
2142.55	206
2144.53	200
2146.5	208
2148.48	212
2150.46	216
2152.43	208
2154.41	228
2156.38	226
2158.35	230
2160.33	214
2162.3	210
2164.27	198
2166.24	216
2168.21	240
2170.18	218
2172.15	200
2174.12	208
2176.09	208
2178.06	208
2180.03	214
2181.99	222
2183.96	208
2185.92	214
2187.89	218
2189.85	222
2191.82	188
2193.78	198
2195.74	216
2197.7	194
2199.67	204
2201.63	210
2203.59	202
2205.55	210
2207.51	224
2209.46	208
2211.42	198
2213.38	224
2215.34	186
2217.29	194
2219.25	194
2221.2	230
2223.16	216
2225.11	210
2227.06	200
2229.02	218
2230.97	218
2232.92	226
2234.87	204
2236.82	206
2238.77	208
2240.72	212
2242.67	222
2244.62	216
2246.57	220
2248.51	214
2250.46	208
2252.4	226
2254.35	224
2256.29	202
2258.24	200
2260.18	208
2262.13	210
2264.07	216
2266.01	198
2267.95	216
2269.89	208
2271.83	234
2273.77	212
2275.71	202
2277.65	210
2279.58	218
2281.52	230
2283.46	222
2285.4	200
2287.33	198
2289.27	230
2291.2	216
2293.13	214
2295.07	190
2297	226
2298.93	216
2300.86	208
2302.79	210
2304.72	224
2306.65	208
2308.58	222
2310.51	212
2312.44	204
2314.37	230
2316.29	228
2318.22	224
2320.15	222
2322.07	244
2324	238
2325.92	214
2327.84	204
2329.77	220
2331.69	216
2333.61	214
2335.53	210
2337.45	218
2339.37	216
2341.29	196
2343.21	218
2345.13	234
2347.05	216
2348.97	206
2350.88	222
2352.8	216
2354.71	218
2356.63	212
2358.54	214
2360.46	204
2362.37	208
2364.28	208
2366.2	206
2368.11	220
2370.02	228
2371.93	208
2373.84	204
2375.75	216
2377.66	198
2379.57	208
2381.47	196
2383.38	210
2385.29	208
2387.2	228
2389.1	240
2391.01	220
2392.91	206
2394.81	228
2396.72	204
2398.62	218
2400.52	206
2402.42	220
2404.33	218
2406.23	218
2408.13	230
2410.03	224
2411.92	218
2413.82	210
2415.72	224
2417.62	214
2419.51	194
2421.41	198
2423.31	204
2425.2	218
2427.1	196
2428.99	206
2430.88	204
2432.78	220
2434.67	220
2436.56	204
2438.45	186
2440.34	214
2442.23	222
2444.12	210
2446.01	212
2447.9	202
2449.79	208