File: Jesse_Dataset_v2/Pure Raman/Polypropylene oxide/633nm/ps-ppo-7jan25-0,0000-map2_Y04_X06.txt
182.393	676
184.993	634
187.593	600
190.193	604
192.79	562
195.387	544
197.983	516
200.578	524
203.174	486
205.766	488
208.36	462
210.951	444
213.542	424
216.131	426
218.721	434
221.309	472
223.897	562
226.483	732
229.069	914
231.654	1134
234.238	1250
236.821	1198
239.404	1120
241.984	950
244.566	848
247.145	740
249.723	608
252.302	522
254.878	458
257.455	370
260.03	322
262.604	298
265.178	290
267.75	250
270.322	264
272.893	244
275.463	264
278.032	268
280.601	278
283.168	316
285.734	334
288.301	432
290.866	518
293.429	578
295.992	608
298.556	556
301.117	556
303.677	472
306.236	434
308.795	384
311.354	364
313.911	350
316.467	350
319.022	342
321.577	326
324.13	330
326.684	360
329.236	364
331.787	374
334.337	366
336.887	372
339.435	356
341.983	334
344.529	316
347.075	328
349.621	332
352.165	336
354.708	336
357.251	346
359.793	336
362.334	288
364.874	294
367.413	296
369.951	310
372.489	294
375.026	308
377.562	272
380.097	272
382.631	246
385.164	232
387.697	216
390.229	222
392.76	226
395.29	204
397.819	188
400.346	196
402.873	220
405.4	232
407.926	244
410.451	284
412.976	324
415.499	332
418.02	302
420.542	290
423.063	248
425.583	244
428.101	200
430.619	176
433.137	184
435.654	162
438.169	174
440.684	152
443.198	150
445.712	148
448.223	142
450.735	148
453.246	142
455.755	136
458.264	148
460.771	160
463.279	168
465.786	182
468.291	212
470.796	238
473.301	306
475.803	326
478.306	392
480.807	410
483.308	444
485.807	486
488.307	454
490.804	330
493.302	280
495.798	244
498.294	214
500.788	196
503.283	192
505.775	192
508.269	230
510.759	296
513.251	374
515.74	342
518.23	274
520.718	270
523.204	288
525.692	284
528.177	354
530.663	428
533.147	560
535.629	678
538.113	744
540.594	758
543.074	662
545.555	536
548.034	396
550.512	364
552.989	364
555.467	424
557.942	466
560.417	666
562.892	1002
565.365	1574
567.838	2654
570.309	3668
572.78	3654
575.251	2558
577.72	1478
580.189	886
582.656	668
585.123	592
587.589	568
590.055	544
592.52	480
594.983	468
597.446	424
599.908	346
602.369	288
604.829	260
607.289	212
609.747	192
612.205	172
614.663	178
617.119	182
619.574	198
622.029	196
624.483	220
626.936	222
629.389	266
631.84	266
634.291	298
636.741	274
639.19	272
641.639	260
644.086	252
646.533	228
648.979	202
651.424	192
653.869	178
656.313	158
658.754	150
661.196	150
663.638	148
666.078	150
668.518	144
670.957	150
673.394	142
675.831	134
678.268	134
680.703	130
683.137	136
685.571	142
688.005	132
690.437	136
692.868	134
695.299	134
697.729	138
700.159	144
702.586	146
705.014	152
707.441	166
709.866	180
712.292	198
714.716	212
717.14	204
719.563	178
721.984	172
724.406	162
726.825	170
729.246	164
731.665	174
734.082	182
736.5	186
738.916	210
741.332	206
743.746	240
746.161	284
748.574	298
750.987	268
753.398	250
755.81	254
758.219	232
760.629	186
763.037	172
765.445	168
767.852	150
770.258	154
772.664	172
775.068	170
777.472	176
779.876	188
782.278	182
784.679	182
787.08	180
789.48	152
791.879	174
794.278	156
796.675	160
799.072	172
801.467	164
803.864	178
806.258	166
808.651	174
811.044	172
813.437	172
815.828	164
818.218	192
820.608	206
822.997	264
825.385	290
827.773	462
830.16	758
832.546	1138
834.931	1078
837.315	656
839.699	362
842.081	276
844.463	254
846.844	254
849.226	218
851.606	226
853.985	216
856.363	198
858.741	198
861.117	196
863.493	186
865.868	164
868.243	160
870.616	180
872.989	160
875.36	160
877.731	164
880.102	154
882.472	154
884.841	152
887.209	144
889.577	150
891.944	126
894.31	130
896.674	140
899.039	134
901.403	156
903.766	144
906.128	140
908.49	138
910.849	158
913.209	130
915.569	154
917.927	150
920.284	148
922.641	142
924.997	144
927.353	154
929.707	162
932.061	144
934.414	168
936.765	186
939.117	198
941.469	186
943.818	206
946.167	244
948.515	310
950.863	386
953.211	498
955.556	656
957.902	806
960.246	908
962.59	874
964.933	688
967.276	600
969.617	492
971.958	402
974.298	334
976.638	244
978.976	248
981.314	220
983.651	186
985.988	184
988.323	184
990.659	194
992.992	208
995.325	172
997.658	178
999.99	168
1002.32	170
1004.65	174
1006.98	170
1009.31	172
1011.64	164
1013.97	166
1016.29	192
1018.62	192
1020.94	216
1023.27	232
1025.59	242
1027.91	218
1030.24	234
1032.56	250
1034.88	266
1037.2	234
1039.52	240
1041.84	226
1044.15	218
1046.47	192
1048.79	194
1051.1	186
1053.42	176
1055.73	174
1058.04	172
1060.36	182
1062.67	182
1064.98	176
1067.29	164
1069.6	152
1071.91	158
1074.22	168
1076.52	176
1078.83	164
1081.14	156
1083.44	178
1085.75	174
1088.05	172
1090.35	166
1092.65	166
1094.95	178
1097.26	184
1099.56	198
1101.86	202
1104.15	248
1106.45	346
1108.75	528
1111.05	818
1113.34	858
1115.64	714
1117.93	494
1120.22	360
1122.52	268
1124.81	266
1127.1	234
1129.39	214
1131.68	204
1133.97	214
1136.26	198
1138.54	218
1140.83	224
1143.12	204
1145.4	196
1147.69	198
1149.97	182
1152.25	178
1154.54	204
1156.82	202
1159.1	206
1161.38	234
1163.66	234
1165.94	232
1168.22	226
1170.49	210
1172.77	230
1175.05	236
1177.32	270
1179.6	302
1181.87	410
1184.14	516
1186.42	610
1188.69	566
1190.96	478
1193.23	418
1195.5	394
1197.77	408
1200.03	392
1202.3	468
1204.57	424
1206.83	378
1209.1	338
1211.36	288
1213.63	240
1215.89	212
1218.15	212
1220.41	204
1222.67	242
1224.93	252
1227.19	286
1229.45	304
1231.71	318
1233.97	262
1236.22	226
1238.48	222
1240.73	190
1242.99	186
1245.24	182
1247.5	170
1249.75	188
1252	200
1254.25	176
1256.5	188
1258.75	198
1261	200
1263.25	216
1265.49	206
1267.74	188
1269.99	204
1272.23	220
1274.48	248
1276.72	258
1278.96	254
1281.21	286
1283.45	330
1285.69	344
1287.93	350
1290.17	430
1292.41	464
1294.64	558
1296.88	730
1299.12	1024
1301.36	1522
1303.59	2044
1305.82	2168
1308.06	1788
1310.29	1274
1312.52	932
1314.76	702
1316.99	606
1319.22	502
1321.45	472
1323.68	418
1325.9	430
1328.13	420
1330.36	436
1332.58	396
1334.81	326
1337.04	296
1339.26	306
1341.48	296
1343.71	310
1345.93	344
1348.15	344
1350.37	352
1352.59	348
1354.81	326
1357.03	306
1359.24	298
1361.46	256
1363.68	278
1365.89	286
1368.11	300
1370.32	370
1372.54	518
1374.75	694
1376.96	890
1379.17	1042
1381.38	990
1383.59	894
1385.8	652
1388.01	484
1390.22	368
1392.43	292
1394.63	234
1396.84	268
1399.05	236
1401.25	244
1403.45	236
1405.66	228
1407.86	236
1410.06	244
1412.26	244
1414.46	252
1416.66	298
1418.86	294
1421.06	336
1423.26	380
1425.46	384
1427.65	406
1429.85	384
1432.04	406
1434.24	438
1436.43	440
1438.62	498
1440.82	470
1443.01	454
1445.2	436
1447.39	396
1449.58	380
1451.77	352
1453.95	374
1456.14	338
1458.33	360
1460.52	338
1462.7	356
1464.89	354
1467.07	340
1469.25	344
1471.44	334
1473.62	330
1475.8	336
1477.98	338
1480.16	320
1482.34	312
1484.52	292
1486.7	288
1488.87	278
1491.05	240
1493.23	262
1495.4	250
1497.58	230
1499.75	264
1501.92	246
1504.1	240
1506.27	234
1508.44	236
1510.61	236
1512.78	238
1514.95	242
1517.12	244
1519.28	224
1521.45	246
1523.62	234
1525.78	226
1527.95	228
1530.11	246
1532.28	242
1534.44	238
1536.6	218
1538.76	240
1540.93	232
1543.09	234
1545.25	238
1547.41	234
1549.56	250
1551.72	248
1553.88	230
1556.03	260
1558.19	244
1560.35	258
1562.5	258
1564.65	258
1566.81	270
1568.96	260
1571.11	290
1573.26	284
1575.41	328
1577.56	356
1579.71	384
1581.86	414
1584.01	478
1586.15	528
1588.3	624
1590.45	742
1592.59	888
1594.74	1016
1596.88	1180
1599.02	1324
1601.17	1418
1603.31	1458
1605.45	1378
1607.59	1266
1609.73	1114
1611.87	986
1614.01	826
1616.14	692
1618.28	604
1620.42	474
1622.55	404
1624.69	372
1626.82	316
1628.96	266
1631.09	262
1633.22	254
1635.36	262
1637.49	238
1639.62	218
1641.75	224
1643.88	228
1646	218
1648.13	198
1650.26	212
1652.39	218
1654.51	192
1656.64	202
1658.76	198
1660.89	204
1663.01	190
1665.13	194
1667.26	192
1669.38	192
1671.5	190
1673.62	192
1675.74	200
1677.86	204
1679.97	204
1682.09	184
1684.21	202
1686.33	218
1688.44	200
1690.56	196
1692.67	228
1694.78	218
1696.9	218
1699.01	214
1701.12	214
1703.23	194
1705.34	208
1707.45	200
1709.56	200
1711.67	186
1713.78	174
1715.88	204
1717.99	206
1720.1	194
1722.2	184
1724.31	190
1726.41	188
1728.51	176
1730.62	190
1732.72	180
1734.82	186
1736.92	168
1739.02	188
1741.12	196
1743.22	190
1745.32	176
1747.42	192
1749.51	172
1751.61	176
1753.7	192
1755.8	190
1757.89	164
1759.99	178
1762.08	176
1764.17	182
1766.26	172
1768.36	178
1770.45	174
1772.54	172
1774.62	176
1776.71	162
1778.8	186
1780.89	168
1782.98	182
1785.06	182
1787.15	180
1789.23	162
1791.32	166
1793.4	172
1795.48	172
1797.56	182
1799.65	168
1801.73	196
1803.81	166
1805.89	178
1807.97	170
1810.04	164
1812.12	150
1814.2	174
1816.28	192
1818.35	164
1820.43	156
1822.5	174
1824.58	166
1826.65	174
1828.72	174
1830.79	184
1832.86	184
1834.94	162
1837.01	166
1839.08	180
1841.15	158
1843.21	168
1845.28	178
1847.35	180
1849.41	160
1851.48	152
1853.55	192
1855.61	158
1857.67	160
1859.74	160
1861.8	170
1863.86	186
1865.92	168
1867.98	176
1870.05	186
1872.1	192
1874.16	172
1876.22	162
1878.28	158
1880.34	176
1882.39	184
1884.45	172
1886.5	190
1888.56	164
1890.61	178
1892.67	180
1894.72	168
1896.77	182
1898.82	178
1900.87	184
1902.92	170
1904.97	178
1907.02	186
1909.07	172
1911.12	190
1913.17	188
1915.21	184
1917.26	176
1919.3	190
1921.35	182
1923.39	176
1925.43	174
1927.48	176
1929.52	198
1931.56	180
1933.6	194
1935.64	186
1937.68	174
1939.72	158
1941.76	186
1943.8	176
1945.83	182
1947.87	170
1949.91	162
1951.94	176
1953.98	158
1956.01	170
1958.05	172
1960.08	184
1962.11	172
1964.14	182
1966.17	172
1968.2	166
1970.23	178
1972.26	164
1974.29	176
1976.32	180
1978.35	196
1980.37	180
1982.4	180
1984.43	190
1986.45	190
1988.48	176
1990.5	168
1992.52	182
1994.55	178
1996.57	182
1998.59	178
2000.61	186
2002.63	166
2004.65	176
2006.67	160
2008.69	178
2010.7	180
2012.72	166
2014.74	166
2016.75	186
2018.77	168
2020.78	186
2022.8	172
2024.81	178
2026.83	180
2028.84	184
2030.85	182
2032.86	166
2034.87	178
2036.88	192
2038.89	172
2040.9	168
2042.91	184
2044.91	182
2046.92	174
2048.93	180
2050.93	184
2052.94	182
2054.94	168
2056.95	172
2058.95	176
2060.95	176
2062.95	168
2064.96	182
2066.96	170
2068.96	186
2070.96	178
2072.96	184
2074.95	194
2076.95	178
2078.95	176
2080.95	182
2082.94	172
2084.94	194
2086.93	176
2088.93	190
2090.92	186
2092.91	172
2094.91	180
2096.9	190
2098.89	182
2100.88	186
2102.87	184
2104.86	188
2106.85	170
2108.84	162
2110.83	184
2112.81	178
2114.8	160
2116.78	178
2118.77	176
2120.75	174
2122.74	176
2124.72	172
2126.71	176
2128.69	192
2130.67	188
2132.65	166
2134.63	182
2136.61	182
2138.59	182
2140.57	172
2142.55	172
2144.53	186
2146.5	192
2148.48	162
2150.46	172
2152.43	176
2154.41	170
2156.38	168
2158.35	182
2160.33	190
2162.3	166
2164.27	186
2166.24	188
2168.21	174
2170.18	180
2172.15	188
2174.12	190
2176.09	176
2178.06	192
2180.03	182
2181.99	186
2183.96	186
2185.92	172
2187.89	182
2189.85	192
2191.82	160
2193.78	180
2195.74	172
2197.7	182
2199.67	180
2201.63	180
2203.59	150
2205.55	184
2207.51	180
2209.46	182
2211.42	172
2213.38	192
2215.34	164
2217.29	180
2219.25	170
2221.2	182
2223.16	174
2225.11	182
2227.06	174
2229.02	178
2230.97	186
2232.92	188
2234.87	182
2236.82	178
2238.77	172
2240.72	180
2242.67	180
2244.62	188
2246.57	184
2248.51	180
2250.46	188
2252.4	174
2254.35	170
2256.29	160
2258.24	190
2260.18	182
2262.13	172
2264.07	196
2266.01	194
2267.95	174
2269.89	188
2271.83	174
2273.77	180
2275.71	174
2277.65	182
2279.58	178
2281.52	194
2283.46	198
2285.4	182
2287.33	178
2289.27	218
2291.2	180
2293.13	186
2295.07	178
2297	190
2298.93	178
2300.86	198
2302.79	196
2304.72	178
2306.65	182
2308.58	184
2310.51	188
2312.44	196
2314.37	208
2316.29	186
2318.22	186
2320.15	190
2322.07	190
2324	190
2325.92	196
2327.84	194
2329.77	196
2331.69	172
2333.61	190
2335.53	190
2337.45	198
2339.37	198
2341.29	198
2343.21	202
2345.13	188
2347.05	184
2348.97	188
2350.88	186
2352.8	190
2354.71	188
2356.63	164
2358.54	182
2360.46	184
2362.37	182
2364.28	178
2366.2	190
2368.11	174
2370.02	178
2371.93	214
2373.84	192
2375.75	196
2377.66	206
2379.57	198
2381.47	194
2383.38	192
2385.29	184
2387.2	184
2389.1	184
2391.01	194
2392.91	180
2394.81	190
2396.72	184
2398.62	186
2400.52	188
2402.42	192
2404.33	194
2406.23	182
2408.13	202
2410.03	188
2411.92	190
2413.82	200
2415.72	200
2417.62	194
2419.51	190
2421.41	194
2423.31	182
2425.2	200
2427.1	182
2428.99	194
2430.88	184
2432.78	192
2434.67	182
2436.56	190
2438.45	196
2440.34	180
2442.23	180
2444.12	190
2446.01	186
2447.9	190
2449.79	192