File: Jesse_Dataset_v2/Pure Raman/Polypropylene oxide/633nm/ps-ppo-7jan25-0,0000-map2_Y00_X03.txt
182.393	770
184.993	698
187.593	672
190.193	662
192.79	638
195.387	598
197.983	556
200.578	576
203.174	560
205.766	542
208.36	496
210.951	500
213.542	494
216.131	462
218.721	498
221.309	562
223.897	630
226.483	766
229.069	982
231.654	1226
234.238	1316
236.821	1274
239.404	1198
241.984	1070
244.566	924
247.145	834
249.723	664
252.302	574
254.878	510
257.455	442
260.03	390
262.604	372
265.178	348
267.75	334
270.322	312
272.893	314
275.463	310
278.032	326
280.601	328
283.168	360
285.734	432
288.301	470
290.866	576
293.429	650
295.992	690
298.556	628
301.117	608
303.677	568
306.236	476
308.795	442
311.354	438
313.911	392
316.467	396
319.022	394
321.577	376
324.13	384
326.684	424
329.236	422
331.787	428
334.337	460
336.887	454
339.435	416
341.983	410
344.529	376
347.075	360
349.621	376
352.165	392
354.708	388
357.251	384
359.793	360
362.334	382
364.874	370
367.413	348
369.951	356
372.489	388
375.026	372
377.562	356
380.097	332
382.631	302
385.164	290
387.697	268
390.229	284
392.76	264
395.29	250
397.819	272
400.346	268
402.873	276
405.4	278
407.926	332
410.451	336
412.976	388
415.499	408
418.02	402
420.542	352
423.063	328
425.583	272
428.101	258
430.619	240
433.137	238
435.654	234
438.169	212
440.684	230
443.198	228
445.712	212
448.223	200
450.735	192
453.246	196
455.755	202
458.264	214
460.771	216
463.279	224
465.786	238
468.291	250
470.796	292
473.301	352
475.803	386
478.306	418
480.807	490
483.308	522
485.807	578
488.307	510
490.804	404
493.302	350
495.798	292
498.294	264
500.788	250
503.283	252
505.775	246
508.269	302
510.759	364
513.251	446
515.74	412
518.23	362
520.718	322
523.204	340
525.692	398
528.177	436
530.663	526
533.147	624
535.629	742
538.113	822
540.594	824
543.074	766
545.555	590
548.034	484
550.512	468
552.989	456
555.467	450
557.942	524
560.417	736
562.892	1098
565.365	1726
567.838	2842
570.309	3856
572.78	3822
575.251	2686
577.72	1608
580.189	1006
582.656	718
585.123	690
587.589	654
590.055	604
592.52	558
594.983	548
597.446	494
599.908	416
602.369	340
604.829	314
607.289	260
609.747	256
612.205	256
614.663	260
617.119	244
619.574	250
622.029	276
624.483	306
626.936	308
629.389	318
631.84	332
634.291	356
636.741	342
639.19	344
641.639	334
644.086	312
646.533	290
648.979	266
651.424	246
653.869	254
656.313	264
658.754	222
661.196	222
663.638	224
666.078	210
668.518	210
670.957	210
673.394	214
675.831	194
678.268	202
680.703	208
683.137	204
685.571	210
688.005	194
690.437	206
692.868	196
695.299	196
697.729	214
700.159	204
702.586	200
705.014	220
707.441	222
709.866	238
712.292	272
714.716	274
717.14	288
719.563	242
721.984	256
724.406	240
726.825	232
729.246	238
731.665	234
734.082	240
736.5	270
738.916	252
741.332	274
743.746	306
746.161	374
748.574	366
750.987	354
753.398	360
755.81	300
758.219	302
760.629	246
763.037	228
765.445	236
767.852	222
770.258	244
772.664	234
775.068	252
777.472	240
779.876	256
782.278	264
784.679	260
787.08	248
789.48	238
791.879	218
794.278	240
796.675	244
799.072	212
801.467	232
803.864	228
806.258	252
808.651	252
811.044	238
813.437	246
815.828	256
818.218	258
820.608	268
822.997	308
825.385	390
827.773	524
830.16	880
832.546	1220
834.931	1120
837.315	728
839.699	470
842.081	350
844.463	314
846.844	308
849.226	322
851.606	298
853.985	288
856.363	276
858.741	276
861.117	274
863.493	248
865.868	272
868.243	236
870.616	240
872.989	236
875.36	224
877.731	228
880.102	226
882.472	216
884.841	226
887.209	232
889.577	196
891.944	232
894.31	214
896.674	216
899.039	218
901.403	218
903.766	224
906.128	208
908.49	220
910.849	216
913.209	198
915.569	224
917.927	218
920.284	220
922.641	204
924.997	216
927.353	234
929.707	218
932.061	222
934.414	236
936.765	252
939.117	250
941.469	268
943.818	274
946.167	312
948.515	384
950.863	456
953.211	594
955.556	756
957.902	912
960.246	1020
962.59	956
964.933	782
967.276	678
969.617	582
971.958	492
974.298	416
976.638	336
978.976	320
981.314	278
983.651	278
985.988	266
988.323	256
990.659	272
992.992	286
995.325	240
997.658	248
999.99	248
1002.32	246
1004.65	240
1006.98	254
1009.31	230
1011.64	236
1013.97	236
1016.29	242
1018.62	262
1020.94	294
1023.27	276
1025.59	298
1027.91	298
1030.24	334
1032.56	320
1034.88	322
1037.2	326
1039.52	308
1041.84	310
1044.15	274
1046.47	270
1048.79	276
1051.1	260
1053.42	254
1055.73	258
1058.04	242
1060.36	242
1062.67	238
1064.98	240
1067.29	236
1069.6	244
1071.91	236
1074.22	242
1076.52	240
1078.83	228
1081.14	248
1083.44	234
1085.75	244
1088.05	256
1090.35	232
1092.65	262
1094.95	254
1097.26	272
1099.56	266
1101.86	282
1104.15	304
1106.45	422
1108.75	616
1111.05	890
1113.34	950
1115.64	760
1117.93	542
1120.22	418
1122.52	344
1124.81	340
1127.1	314
1129.39	308
1131.68	284
1133.97	286
1136.26	266
1138.54	282
1140.83	292
1143.12	302
1145.4	274
1147.69	286
1149.97	256
1152.25	250
1154.54	290
1156.82	274
1159.1	290
1161.38	312
1163.66	314
1165.94	318
1168.22	324
1170.49	288
1172.77	292
1175.05	320
1177.32	368
1179.6	402
1181.87	460
1184.14	644
1186.42	682
1188.69	678
1190.96	582
1193.23	484
1195.5	484
1197.77	464
1200.03	494
1202.3	522
1204.57	506
1206.83	438
1209.1	398
1211.36	328
1213.63	294
1215.89	270
1218.15	278
1220.41	282
1222.67	278
1224.93	320
1227.19	376
1229.45	398
1231.71	364
1233.97	352
1236.22	338
1238.48	286
1240.73	270
1242.99	266
1245.24	276
1247.5	274
1249.75	248
1252	250
1254.25	274
1256.5	266
1258.75	266
1261	314
1263.25	270
1265.49	280
1267.74	300
1269.99	288
1272.23	290
1274.48	334
1276.72	326
1278.96	354
1281.21	350
1283.45	400
1285.69	418
1287.93	448
1290.17	490
1292.41	568
1294.64	648
1296.88	872
1299.12	1152
1301.36	1664
1303.59	2206
1305.82	2270
1308.06	1938
1310.29	1396
1312.52	994
1314.76	770
1316.99	674
1319.22	594
1321.45	540
1323.68	522
1325.9	538
1328.13	500
1330.36	490
1332.58	458
1334.81	418
1337.04	398
1339.26	368
1341.48	372
1343.71	396
1345.93	404
1348.15	428
1350.37	436
1352.59	422
1354.81	374
1357.03	378
1359.24	390
1361.46	362
1363.68	354
1365.89	354
1368.11	398
1370.32	456
1372.54	588
1374.75	832
1376.96	1032
1379.17	1098
1381.38	1098
1383.59	944
1385.8	770
1388.01	566
1390.22	444
1392.43	400
1394.63	354
1396.84	314
1399.05	322
1401.25	316
1403.45	316
1405.66	324
1407.86	304
1410.06	310
1412.26	334
1414.46	310
1416.66	368
1418.86	406
1421.06	394
1423.26	436
1425.46	470
1427.65	472
1429.85	488
1432.04	490
1434.24	530
1436.43	548
1438.62	564
1440.82	572
1443.01	540
1445.2	520
1447.39	476
1449.58	478
1451.77	434
1453.95	434
1456.14	422
1458.33	480
1460.52	448
1462.7	420
1464.89	432
1467.07	414
1469.25	416
1471.44	428
1473.62	398
1475.8	414
1477.98	410
1480.16	374
1482.34	374
1484.52	350
1486.7	346
1488.87	346
1491.05	334
1493.23	338
1495.4	314
1497.58	322
1499.75	320
1501.92	336
1504.1	324
1506.27	322
1508.44	302
1510.61	314
1512.78	308
1514.95	308
1517.12	322
1519.28	326
1521.45	312
1523.62	306
1525.78	334
1527.95	322
1530.11	302
1532.28	328
1534.44	338
1536.6	318
1538.76	304
1540.93	316
1543.09	310
1545.25	344
1547.41	348
1549.56	342
1551.72	294
1553.88	338
1556.03	346
1558.19	352
1560.35	344
1562.5	354
1564.65	340
1566.81	372
1568.96	352
1571.11	374
1573.26	380
1575.41	424
1577.56	446
1579.71	460
1581.86	516
1584.01	570
1586.15	604
1588.3	686
1590.45	832
1592.59	996
1594.74	1102
1596.88	1272
1599.02	1408
1601.17	1532
1603.31	1528
1605.45	1438
1607.59	1290
1609.73	1228
1611.87	1072
1614.01	928
1616.14	776
1618.28	688
1620.42	574
1622.55	500
1624.69	468
1626.82	412
1628.96	354
1631.09	358
1633.22	326
1635.36	340
1637.49	328
1639.62	294
1641.75	310
1643.88	310
1646	294
1648.13	302
1650.26	284
1652.39	290
1654.51	290
1656.64	290
1658.76	302
1660.89	270
1663.01	274
1665.13	294
1667.26	254
1669.38	310
1671.5	288
1673.62	264
1675.74	282
1677.86	270
1679.97	290
1682.09	292
1684.21	262
1686.33	308
1688.44	298
1690.56	290
1692.67	306
1694.78	276
1696.9	298
1699.01	306
1701.12	300
1703.23	280
1705.34	280
1707.45	310
1709.56	276
1711.67	294
1713.78	270
1715.88	294
1717.99	266
1720.1	272
1722.2	274
1724.31	274
1726.41	258
1728.51	262
1730.62	262
1732.72	258
1734.82	256
1736.92	262
1739.02	276
1741.12	272
1743.22	244
1745.32	236
1747.42	262
1749.51	250
1751.61	254
1753.7	256
1755.8	242
1757.89	246
1759.99	256
1762.08	254
1764.17	250
1766.26	240
1768.36	260
1770.45	258
1772.54	250
1774.62	276
1776.71	262
1778.8	256
1780.89	248
1782.98	252
1785.06	246
1787.15	258
1789.23	252
1791.32	256
1793.4	272
1795.48	258
1797.56	262
1799.65	240
1801.73	248
1803.81	256
1805.89	270
1807.97	226
1810.04	258
1812.12	262
1814.2	268
1816.28	254
1818.35	262
1820.43	268
1822.5	268
1824.58	266
1826.65	244
1828.72	242
1830.79	244
1832.86	254
1834.94	242
1837.01	266
1839.08	250
1841.15	244
1843.21	262
1845.28	238
1847.35	240
1849.41	242
1851.48	270
1853.55	240
1855.61	228
1857.67	246
1859.74	262
1861.8	248
1863.86	250
1865.92	258
1867.98	242
1870.05	268
1872.1	248
1874.16	248
1876.22	250
1878.28	260
1880.34	252
1882.39	244
1884.45	254
1886.5	258
1888.56	258
1890.61	246
1892.67	252
1894.72	256
1896.77	270
1898.82	236
1900.87	250
1902.92	262
1904.97	262
1907.02	246
1909.07	256
1911.12	240
1913.17	266
1915.21	250
1917.26	248
1919.3	260
1921.35	246
1923.39	250
1925.43	262
1927.48	248
1929.52	248
1931.56	250
1933.6	230
1935.64	260
1937.68	246
1939.72	228
1941.76	244
1943.8	250
1945.83	248
1947.87	246
1949.91	242
1951.94	244
1953.98	244
1956.01	252
1958.05	246
1960.08	240
1962.11	224
1964.14	260
1966.17	244
1968.2	240
1970.23	250
1972.26	260
1974.29	232
1976.32	254
1978.35	244
1980.37	238
1982.4	232
1984.43	244
1986.45	258
1988.48	246
1990.5	250
1992.52	260
1994.55	260
1996.57	274
1998.59	248
2000.61	234
2002.63	260
2004.65	270
2006.67	234
2008.69	246
2010.7	270
2012.72	268
2014.74	250
2016.75	252
2018.77	254
2020.78	250
2022.8	234
2024.81	256
2026.83	256
2028.84	248
2030.85	254
2032.86	260
2034.87	242
2036.88	242
2038.89	254
2040.9	230
2042.91	246
2044.91	246
2046.92	256
2048.93	246
2050.93	248
2052.94	266
2054.94	248
2056.95	258
2058.95	252
2060.95	228
2062.95	234
2064.96	250
2066.96	248
2068.96	260
2070.96	246
2072.96	240
2074.95	258
2076.95	242
2078.95	232
2080.95	236
2082.94	256
2084.94	256
2086.93	240
2088.93	242
2090.92	260
2092.91	258
2094.91	242
2096.9	246
2098.89	254
2100.88	240
2102.87	238
2104.86	266
2106.85	258
2108.84	242
2110.83	238
2112.81	232
2114.8	264
2116.78	254
2118.77	238
2120.75	230
2122.74	258
2124.72	234
2126.71	248
2128.69	266
2130.67	236
2132.65	248
2134.63	242
2136.61	240
2138.59	246
2140.57	240
2142.55	256
2144.53	238
2146.5	240
2148.48	236
2150.46	256
2152.43	250
2154.41	254
2156.38	234
2158.35	242
2160.33	226
2162.3	248
2164.27	250
2166.24	246
2168.21	248
2170.18	242
2172.15	228
2174.12	250
2176.09	252
2178.06	242
2180.03	236
2181.99	240
2183.96	242
2185.92	234
2187.89	244
2189.85	250
2191.82	250
2193.78	246
2195.74	248
2197.7	244
2199.67	260
2201.63	234
2203.59	244
2205.55	242
2207.51	252
2209.46	254
2211.42	234
2213.38	234
2215.34	244
2217.29	252
2219.25	244
2221.2	236
2223.16	232
2225.11	256
2227.06	250
2229.02	238
2230.97	232
2232.92	238
2234.87	246
2236.82	256
2238.77	248
2240.72	250
2242.67	232
2244.62	248
2246.57	242
2248.51	232
2250.46	256
2252.4	240
2254.35	260
2256.29	240
2258.24	236
2260.18	244
2262.13	250
2264.07	248
2266.01	234
2267.95	234
2269.89	258
2271.83	232
2273.77	248
2275.71	240
2277.65	238
2279.58	250
2281.52	240
2283.46	232
2285.4	216
2287.33	248
2289.27	254
2291.2	244
2293.13	244
2295.07	252
2297	254
2298.93	254
2300.86	238
2302.79	240
2304.72	244
2306.65	236
2308.58	264
2310.51	234
2312.44	256
2314.37	260
2316.29	244
2318.22	268
2320.15	260
2322.07	244
2324	256
2325.92	256
2327.84	220
2329.77	248
2331.69	250
2333.61	242
2335.53	244
2337.45	248
2339.37	244
2341.29	250
2343.21	258
2345.13	246
2347.05	246
2348.97	250
2350.88	246
2352.8	230
2354.71	240
2356.63	260
2358.54	240
2360.46	244
2362.37	260
2364.28	232
2366.2	238
2368.11	232
2370.02	240
2371.93	230
2373.84	240
2375.75	246
2377.66	252
2379.57	232
2381.47	246
2383.38	232
2385.29	240
2387.2	258
2389.1	258
2391.01	266
2392.91	254
2394.81	256
2396.72	236
2398.62	256
2400.52	246
2402.42	262
2404.33	258
2406.23	254
2408.13	244
2410.03	248
2411.92	244
2413.82	244
2415.72	246
2417.62	226
2419.51	248
2421.41	248
2423.31	218
2425.2	246
2427.1	238
2428.99	226
2430.88	230
2432.78	226
2434.67	246
2436.56	228
2438.45	234
2440.34	240
2442.23	244
2444.12	234
2446.01	210
2447.9	228
2449.79	238