File: Jesse_Dataset_v2/Pure Raman/Polypropylene oxide/633nm/ps-ppo-7jan25-0,0000-map2_Y08_X01.txt
182.393	698
184.993	654
187.593	672
190.193	648
192.79	574
195.387	584
197.983	550
200.578	564
203.174	538
205.766	524
208.36	486
210.951	460
213.542	446
216.131	464
218.721	474
221.309	500
223.897	596
226.483	702
229.069	972
231.654	1174
234.238	1244
236.821	1234
239.404	1120
241.984	988
244.566	878
247.145	742
249.723	626
252.302	548
254.878	486
257.455	402
260.03	352
262.604	348
265.178	308
267.75	294
270.322	302
272.893	280
275.463	276
278.032	298
280.601	302
283.168	332
285.734	384
288.301	460
290.866	538
293.429	590
295.992	666
298.556	610
301.117	562
303.677	508
306.236	454
308.795	420
311.354	402
313.911	386
316.467	364
319.022	378
321.577	346
324.13	372
326.684	382
329.236	390
331.787	404
334.337	422
336.887	398
339.435	390
341.983	368
344.529	360
347.075	324
349.621	380
352.165	354
354.708	362
357.251	386
359.793	344
362.334	346
364.874	344
367.413	318
369.951	350
372.489	336
375.026	316
377.562	316
380.097	294
382.631	270
385.164	254
387.697	260
390.229	246
392.76	236
395.29	246
397.819	240
400.346	238
402.873	238
405.4	256
407.926	270
410.451	328
412.976	344
415.499	356
418.02	352
420.542	324
423.063	282
425.583	266
428.101	244
430.619	204
433.137	202
435.654	196
438.169	190
440.684	170
443.198	184
445.712	176
448.223	170
450.735	174
453.246	176
455.755	172
458.264	182
460.771	198
463.279	206
465.786	222
468.291	252
470.796	296
473.301	308
475.803	346
478.306	400
480.807	452
483.308	478
485.807	506
488.307	460
490.804	368
493.302	288
495.798	278
498.294	238
500.788	224
503.283	214
505.775	238
508.269	248
510.759	318
513.251	412
515.74	388
518.23	326
520.718	298
523.204	292
525.692	324
528.177	400
530.663	490
533.147	574
535.629	712
538.113	770
540.594	754
543.074	720
545.555	550
548.034	436
550.512	390
552.989	390
555.467	428
557.942	514
560.417	654
562.892	994
565.365	1584
567.838	2608
570.309	3654
572.78	3728
575.251	2758
577.72	1610
580.189	974
582.656	708
585.123	594
587.589	602
590.055	546
592.52	518
594.983	514
597.446	452
599.908	404
602.369	334
604.829	266
607.289	254
609.747	218
612.205	236
614.663	212
617.119	234
619.574	246
622.029	236
624.483	262
626.936	286
629.389	292
631.84	274
634.291	350
636.741	322
639.19	310
641.639	300
644.086	270
646.533	270
648.979	250
651.424	232
653.869	234
656.313	212
658.754	192
661.196	204
663.638	180
666.078	190
668.518	164
670.957	186
673.394	174
675.831	186
678.268	186
680.703	170
683.137	176
685.571	184
688.005	178
690.437	168
692.868	176
695.299	186
697.729	168
700.159	176
702.586	174
705.014	192
707.441	208
709.866	202
712.292	232
714.716	260
717.14	264
719.563	228
721.984	198
724.406	212
726.825	206
729.246	212
731.665	206
734.082	212
736.5	224
738.916	242
741.332	258
743.746	256
746.161	304
748.574	330
750.987	310
753.398	300
755.81	280
758.219	272
760.629	236
763.037	208
765.445	196
767.852	206
770.258	192
772.664	210
775.068	196
777.472	236
779.876	240
782.278	228
784.679	232
787.08	218
789.48	220
791.879	190
794.278	198
796.675	188
799.072	202
801.467	200
803.864	186
806.258	206
808.651	220
811.044	218
813.437	222
815.828	212
818.218	230
820.608	264
822.997	288
825.385	350
827.773	466
830.16	802
832.546	1154
834.931	1120
837.315	694
839.699	438
842.081	316
844.463	272
846.844	276
849.226	278
851.606	250
853.985	256
856.363	258
858.741	238
861.117	238
863.493	240
865.868	218
868.243	214
870.616	198
872.989	192
875.36	220
877.731	182
880.102	194
882.472	216
884.841	202
887.209	192
889.577	180
891.944	188
894.31	176
896.674	178
899.039	194
901.403	198
903.766	172
906.128	198
908.49	186
910.849	166
913.209	180
915.569	188
917.927	184
920.284	180
922.641	186
924.997	192
927.353	204
929.707	196
932.061	184
934.414	206
936.765	230
939.117	214
941.469	226
943.818	256
946.167	312
948.515	334
950.863	420
953.211	546
955.556	686
957.902	832
960.246	942
962.59	902
964.933	784
967.276	662
969.617	522
971.958	460
974.298	382
976.638	320
978.976	286
981.314	262
983.651	256
985.988	226
988.323	222
990.659	224
992.992	240
995.325	218
997.658	214
999.99	218
1002.32	206
1004.65	220
1006.98	208
1009.31	210
1011.64	222
1013.97	220
1016.29	226
1018.62	242
1020.94	260
1023.27	248
1025.59	278
1027.91	256
1030.24	290
1032.56	296
1034.88	304
1037.2	278
1039.52	270
1041.84	274
1044.15	268
1046.47	252
1048.79	242
1051.1	226
1053.42	228
1055.73	218
1058.04	206
1060.36	224
1062.67	214
1064.98	232
1067.29	196
1069.6	234
1071.91	228
1074.22	226
1076.52	212
1078.83	202
1081.14	216
1083.44	186
1085.75	208
1088.05	228
1090.35	220
1092.65	212
1094.95	234
1097.26	236
1099.56	234
1101.86	254
1104.15	300
1106.45	378
1108.75	596
1111.05	818
1113.34	912
1115.64	732
1117.93	504
1120.22	374
1122.52	316
1124.81	296
1127.1	272
1129.39	268
1131.68	242
1133.97	256
1136.26	246
1138.54	238
1140.83	266
1143.12	258
1145.4	248
1147.69	218
1149.97	238
1152.25	234
1154.54	254
1156.82	260
1159.1	254
1161.38	302
1163.66	298
1165.94	284
1168.22	262
1170.49	270
1172.77	270
1175.05	266
1177.32	326
1179.6	348
1181.87	426
1184.14	578
1186.42	666
1188.69	634
1190.96	532
1193.23	458
1195.5	402
1197.77	444
1200.03	460
1202.3	474
1204.57	440
1206.83	428
1209.1	364
1211.36	294
1213.63	270
1215.89	250
1218.15	248
1220.41	246
1222.67	254
1224.93	310
1227.19	324
1229.45	352
1231.71	346
1233.97	314
1236.22	274
1238.48	244
1240.73	242
1242.99	240
1245.24	238
1247.5	232
1249.75	230
1252	244
1254.25	214
1256.5	220
1258.75	262
1261	238
1263.25	236
1265.49	274
1267.74	246
1269.99	248
1272.23	252
1274.48	282
1276.72	316
1278.96	302
1281.21	356
1283.45	364
1285.69	394
1287.93	394
1290.17	456
1292.41	518
1294.64	614
1296.88	766
1299.12	1122
1301.36	1550
1303.59	2048
1305.82	2160
1308.06	1866
1310.29	1374
1312.52	1002
1314.76	760
1316.99	634
1319.22	566
1321.45	518
1323.68	510
1325.9	468
1328.13	482
1330.36	448
1332.58	434
1334.81	376
1337.04	358
1339.26	350
1341.48	320
1343.71	364
1345.93	368
1348.15	384
1350.37	396
1352.59	412
1354.81	368
1357.03	336
1359.24	298
1361.46	320
1363.68	318
1365.89	338
1368.11	370
1370.32	372
1372.54	538
1374.75	726
1376.96	996
1379.17	1090
1381.38	1040
1383.59	932
1385.8	692
1388.01	520
1390.22	414
1392.43	338
1394.63	308
1396.84	292
1399.05	292
1401.25	292
1403.45	278
1405.66	260
1407.86	296
1410.06	288
1412.26	314
1414.46	314
1416.66	336
1418.86	354
1421.06	382
1423.26	400
1425.46	410
1427.65	430
1429.85	440
1432.04	438
1434.24	468
1436.43	502
1438.62	500
1440.82	510
1443.01	510
1445.2	498
1447.39	452
1449.58	430
1451.77	394
1453.95	394
1456.14	388
1458.33	400
1460.52	370
1462.7	388
1464.89	382
1467.07	368
1469.25	360
1471.44	390
1473.62	388
1475.8	368
1477.98	364
1480.16	346
1482.34	348
1484.52	322
1486.7	330
1488.87	320
1491.05	308
1493.23	310
1495.4	288
1497.58	312
1499.75	298
1501.92	294
1504.1	274
1506.27	296
1508.44	270
1510.61	272
1512.78	274
1514.95	294
1517.12	260
1519.28	272
1521.45	274
1523.62	270
1525.78	278
1527.95	274
1530.11	282
1532.28	272
1534.44	294
1536.6	294
1538.76	274
1540.93	276
1543.09	290
1545.25	290
1547.41	292
1549.56	292
1551.72	304
1553.88	288
1556.03	310
1558.19	300
1560.35	302
1562.5	284
1564.65	286
1566.81	304
1568.96	312
1571.11	332
1573.26	348
1575.41	368
1577.56	398
1579.71	426
1581.86	482
1584.01	538
1586.15	580
1588.3	632
1590.45	772
1592.59	884
1594.74	1014
1596.88	1230
1599.02	1402
1601.17	1460
1603.31	1494
1605.45	1408
1607.59	1288
1609.73	1138
1611.87	1020
1614.01	864
1616.14	758
1618.28	640
1620.42	532
1622.55	456
1624.69	394
1626.82	392
1628.96	336
1631.09	344
1633.22	314
1635.36	298
1637.49	310
1639.62	282
1641.75	282
1643.88	266
1646	246
1648.13	256
1650.26	240
1652.39	242
1654.51	246
1656.64	236
1658.76	238
1660.89	240
1663.01	258
1665.13	256
1667.26	242
1669.38	258
1671.5	238
1673.62	256
1675.74	232
1677.86	238
1679.97	224
1682.09	234
1684.21	248
1686.33	226
1688.44	248
1690.56	246
1692.67	280
1694.78	256
1696.9	264
1699.01	258
1701.12	246
1703.23	258
1705.34	234
1707.45	262
1709.56	226
1711.67	242
1713.78	266
1715.88	248
1717.99	240
1720.1	240
1722.2	228
1724.31	224
1726.41	238
1728.51	238
1730.62	224
1732.72	240
1734.82	218
1736.92	226
1739.02	244
1741.12	212
1743.22	210
1745.32	208
1747.42	226
1749.51	226
1751.61	222
1753.7	224
1755.8	234
1757.89	230
1759.99	236
1762.08	218
1764.17	222
1766.26	242
1768.36	220
1770.45	220
1772.54	224
1774.62	222
1776.71	228
1778.8	214
1780.89	208
1782.98	228
1785.06	212
1787.15	216
1789.23	210
1791.32	224
1793.4	238
1795.48	214
1797.56	218
1799.65	214
1801.73	220
1803.81	210
1805.89	222
1807.97	216
1810.04	220
1812.12	226
1814.2	210
1816.28	222
1818.35	238
1820.43	226
1822.5	246
1824.58	208
1826.65	226
1828.72	220
1830.79	216
1832.86	206
1834.94	202
1837.01	218
1839.08	214
1841.15	216
1843.21	218
1845.28	212
1847.35	226
1849.41	210
1851.48	220
1853.55	216
1855.61	218
1857.67	214
1859.74	216
1861.8	216
1863.86	210
1865.92	226
1867.98	218
1870.05	214
1872.1	204
1874.16	212
1876.22	228
1878.28	224
1880.34	214
1882.39	232
1884.45	232
1886.5	224
1888.56	228
1890.61	214
1892.67	216
1894.72	226
1896.77	226
1898.82	222
1900.87	212
1902.92	206
1904.97	228
1907.02	224
1909.07	206
1911.12	228
1913.17	212
1915.21	222
1917.26	218
1919.3	224
1921.35	224
1923.39	210
1925.43	214
1927.48	208
1929.52	220
1931.56	230
1933.6	236
1935.64	218
1937.68	218
1939.72	188
1941.76	198
1943.8	208
1945.83	234
1947.87	220
1949.91	218
1951.94	222
1953.98	220
1956.01	218
1958.05	204
1960.08	212
1962.11	206
1964.14	208
1966.17	216
1968.2	216
1970.23	224
1972.26	208
1974.29	202
1976.32	204
1978.35	220
1980.37	212
1982.4	214
1984.43	216
1986.45	224
1988.48	216
1990.5	210
1992.52	208
1994.55	224
1996.57	236
1998.59	208
2000.61	204
2002.63	234
2004.65	212
2006.67	212
2008.69	222
2010.7	212
2012.72	230
2014.74	220
2016.75	210
2018.77	224
2020.78	214
2022.8	218
2024.81	214
2026.83	210
2028.84	240
2030.85	214
2032.86	212
2034.87	224
2036.88	200
2038.89	220
2040.9	230
2042.91	216
2044.91	204
2046.92	222
2048.93	220
2050.93	214
2052.94	224
2054.94	206
2056.95	220
2058.95	228
2060.95	214
2062.95	236
2064.96	218
2066.96	228
2068.96	216
2070.96	218
2072.96	222
2074.95	232
2076.95	218
2078.95	218
2080.95	216
2082.94	208
2084.94	208
2086.93	224
2088.93	206
2090.92	210
2092.91	228
2094.91	204
2096.9	212
2098.89	204
2100.88	210
2102.87	222
2104.86	216
2106.85	242
2108.84	202
2110.83	214
2112.81	214
2114.8	204
2116.78	222
2118.77	224
2120.75	226
2122.74	224
2124.72	236
2126.71	210
2128.69	210
2130.67	220
2132.65	212
2134.63	230
2136.61	222
2138.59	228
2140.57	208
2142.55	214
2144.53	214
2146.5	206
2148.48	222
2150.46	226
2152.43	212
2154.41	198
2156.38	212
2158.35	216
2160.33	222
2162.3	206
2164.27	212
2166.24	218
2168.21	214
2170.18	216
2172.15	226
2174.12	230
2176.09	224
2178.06	218
2180.03	220
2181.99	222
2183.96	222
2185.92	224
2187.89	214
2189.85	202
2191.82	224
2193.78	196
2195.74	200
2197.7	232
2199.67	216
2201.63	218
2203.59	210
2205.55	214
2207.51	212
2209.46	204
2211.42	200
2213.38	216
2215.34	216
2217.29	212
2219.25	194
2221.2	214
2223.16	210
2225.11	200
2227.06	214
2229.02	210
2230.97	194
2232.92	210
2234.87	194
2236.82	214
2238.77	220
2240.72	210
2242.67	210
2244.62	232
2246.57	224
2248.51	218
2250.46	214
2252.4	216
2254.35	216
2256.29	224
2258.24	224
2260.18	226
2262.13	214
2264.07	216
2266.01	216
2267.95	218
2269.89	218
2271.83	214
2273.77	218
2275.71	218
2277.65	230
2279.58	212
2281.52	214
2283.46	212
2285.4	210
2287.33	222
2289.27	208
2291.2	222
2293.13	200
2295.07	202
2297	210
2298.93	206
2300.86	220
2302.79	212
2304.72	226
2306.65	214
2308.58	202
2310.51	232
2312.44	222
2314.37	226
2316.29	212
2318.22	238
2320.15	222
2322.07	246
2324	208
2325.92	234
2327.84	222
2329.77	224
2331.69	206
2333.61	228
2335.53	228
2337.45	224
2339.37	204
2341.29	208
2343.21	224
2345.13	234
2347.05	212
2348.97	224
2350.88	214
2352.8	206
2354.71	222
2356.63	232
2358.54	210
2360.46	230
2362.37	222
2364.28	206
2366.2	240
2368.11	214
2370.02	224
2371.93	202
2373.84	216
2375.75	212
2377.66	214
2379.57	218
2381.47	194
2383.38	236
2385.29	222
2387.2	222
2389.1	228
2391.01	230
2392.91	232
2394.81	222
2396.72	240
2398.62	214
2400.52	218
2402.42	224
2404.33	234
2406.23	226
2408.13	246
2410.03	222
2411.92	214
2413.82	222
2415.72	218
2417.62	224
2419.51	206
2421.41	242
2423.31	226
2425.2	214
2427.1	232
2428.99	222
2430.88	238
2432.78	226
2434.67	204
2436.56	204
2438.45	206
2440.34	202
2442.23	222
2444.12	206
2446.01	222
2447.9	222
2449.79	218