File: Jesse_Dataset_v2/Pure Raman/Polypropylene oxide/633nm/ps-ppo-7jan25-0,0000-map2_Y07_X06.txt
182.393	654
184.993	666
187.593	634
190.193	624
192.79	604
195.387	574
197.983	544
200.578	546
203.174	528
205.766	526
208.36	496
210.951	442
213.542	460
216.131	444
218.721	450
221.309	506
223.897	602
226.483	750
229.069	942
231.654	1116
234.238	1230
236.821	1240
239.404	1156
241.984	998
244.566	806
247.145	756
249.723	610
252.302	552
254.878	474
257.455	412
260.03	364
262.604	344
265.178	306
267.75	292
270.322	270
272.893	274
275.463	276
278.032	312
280.601	316
283.168	316
285.734	362
288.301	436
290.866	510
293.429	584
295.992	624
298.556	604
301.117	564
303.677	492
306.236	460
308.795	448
311.354	394
313.911	398
316.467	378
319.022	358
321.577	340
324.13	362
326.684	388
329.236	382
331.787	396
334.337	406
336.887	406
339.435	398
341.983	376
344.529	348
347.075	356
349.621	352
352.165	346
354.708	360
357.251	352
359.793	354
362.334	322
364.874	356
367.413	338
369.951	336
372.489	322
375.026	310
377.562	312
380.097	306
382.631	274
385.164	246
387.697	252
390.229	234
392.76	254
395.29	240
397.819	238
400.346	232
402.873	240
405.4	280
407.926	284
410.451	306
412.976	360
415.499	376
418.02	350
420.542	308
423.063	290
425.583	250
428.101	234
430.619	222
433.137	198
435.654	206
438.169	186
440.684	184
443.198	160
445.712	192
448.223	178
450.735	164
453.246	174
455.755	164
458.264	180
460.771	194
463.279	190
465.786	188
468.291	238
470.796	264
473.301	298
475.803	346
478.306	374
480.807	454
483.308	496
485.807	490
488.307	450
490.804	348
493.302	292
495.798	268
498.294	242
500.788	222
503.283	210
505.775	214
508.269	248
510.759	340
513.251	400
515.74	384
518.23	316
520.718	298
523.204	290
525.692	332
528.177	360
530.663	458
533.147	554
535.629	664
538.113	774
540.594	762
543.074	674
545.555	552
548.034	432
550.512	402
552.989	386
555.467	412
557.942	508
560.417	668
562.892	1000
565.365	1608
567.838	2594
570.309	3658
572.78	3670
575.251	2640
577.72	1510
580.189	940
582.656	692
585.123	640
587.589	604
590.055	552
592.52	494
594.983	484
597.446	424
599.908	388
602.369	324
604.829	264
607.289	238
609.747	228
612.205	210
614.663	226
617.119	218
619.574	222
622.029	234
624.483	264
626.936	254
629.389	282
631.84	298
634.291	310
636.741	318
639.19	320
641.639	270
644.086	258
646.533	244
648.979	218
651.424	222
653.869	208
656.313	202
658.754	176
661.196	182
663.638	184
666.078	190
668.518	166
670.957	184
673.394	156
675.831	178
678.268	182
680.703	174
683.137	158
685.571	176
688.005	184
690.437	180
692.868	156
695.299	168
697.729	166
700.159	166
702.586	176
705.014	176
707.441	190
709.866	200
712.292	224
714.716	238
717.14	240
719.563	220
721.984	202
724.406	204
726.825	214
729.246	184
731.665	196
734.082	226
736.5	216
738.916	212
741.332	246
743.746	276
746.161	322
748.574	330
750.987	330
753.398	298
755.81	288
758.219	246
760.629	220
763.037	206
765.445	200
767.852	188
770.258	180
772.664	200
775.068	188
777.472	222
779.876	202
782.278	218
784.679	212
787.08	212
789.48	190
791.879	194
794.278	192
796.675	190
799.072	196
801.467	176
803.864	204
806.258	212
808.651	198
811.044	206
813.437	218
815.828	228
818.218	226
820.608	258
822.997	266
825.385	340
827.773	478
830.16	780
832.546	1104
834.931	1100
837.315	660
839.699	370
842.081	308
844.463	276
846.844	270
849.226	256
851.606	248
853.985	246
856.363	232
858.741	224
861.117	226
863.493	224
865.868	224
868.243	204
870.616	196
872.989	192
875.36	206
877.731	188
880.102	184
882.472	188
884.841	176
887.209	172
889.577	168
891.944	176
894.31	180
896.674	170
899.039	160
901.403	168
903.766	170
906.128	178
908.49	178
910.849	192
913.209	168
915.569	184
917.927	178
920.284	168
922.641	180
924.997	180
927.353	178
929.707	184
932.061	200
934.414	196
936.765	206
939.117	222
941.469	220
943.818	254
946.167	288
948.515	322
950.863	406
953.211	530
955.556	658
957.902	824
960.246	896
962.59	890
964.933	756
967.276	634
969.617	500
971.958	474
974.298	356
976.638	302
978.976	276
981.314	256
983.651	244
985.988	214
988.323	224
990.659	216
992.992	216
995.325	200
997.658	212
999.99	198
1002.32	202
1004.65	190
1006.98	204
1009.31	194
1011.64	186
1013.97	212
1016.29	218
1018.62	242
1020.94	228
1023.27	254
1025.59	244
1027.91	264
1030.24	276
1032.56	276
1034.88	290
1037.2	272
1039.52	282
1041.84	268
1044.15	232
1046.47	228
1048.79	224
1051.1	222
1053.42	224
1055.73	208
1058.04	208
1060.36	206
1062.67	202
1064.98	188
1067.29	184
1069.6	180
1071.91	212
1074.22	188
1076.52	188
1078.83	200
1081.14	194
1083.44	210
1085.75	200
1088.05	196
1090.35	210
1092.65	202
1094.95	210
1097.26	220
1099.56	222
1101.86	254
1104.15	270
1106.45	350
1108.75	548
1111.05	828
1113.34	904
1115.64	716
1117.93	500
1120.22	402
1122.52	322
1124.81	304
1127.1	258
1129.39	250
1131.68	238
1133.97	258
1136.26	238
1138.54	258
1140.83	250
1143.12	264
1145.4	240
1147.69	222
1149.97	220
1152.25	238
1154.54	224
1156.82	242
1159.1	262
1161.38	284
1163.66	286
1165.94	258
1168.22	238
1170.49	244
1172.77	264
1175.05	286
1177.32	296
1179.6	350
1181.87	430
1184.14	522
1186.42	626
1188.69	602
1190.96	536
1193.23	430
1195.5	432
1197.77	420
1200.03	444
1202.3	458
1204.57	466
1206.83	412
1209.1	348
1211.36	296
1213.63	258
1215.89	274
1218.15	256
1220.41	246
1222.67	252
1224.93	274
1227.19	292
1229.45	342
1231.71	342
1233.97	316
1236.22	284
1238.48	250
1240.73	226
1242.99	222
1245.24	214
1247.5	222
1249.75	214
1252	224
1254.25	246
1256.5	232
1258.75	252
1261	248
1263.25	230
1265.49	242
1267.74	248
1269.99	246
1272.23	250
1274.48	262
1276.72	294
1278.96	294
1281.21	322
1283.45	376
1285.69	340
1287.93	418
1290.17	458
1292.41	504
1294.64	596
1296.88	784
1299.12	1066
1301.36	1530
1303.59	1986
1305.82	2216
1308.06	1878
1310.29	1368
1312.52	924
1314.76	750
1316.99	642
1319.22	558
1321.45	486
1323.68	482
1325.9	446
1328.13	456
1330.36	446
1332.58	400
1334.81	376
1337.04	348
1339.26	332
1341.48	340
1343.71	342
1345.93	356
1348.15	382
1350.37	382
1352.59	382
1354.81	362
1357.03	322
1359.24	306
1361.46	278
1363.68	316
1365.89	318
1368.11	340
1370.32	390
1372.54	542
1374.75	762
1376.96	936
1379.17	1026
1381.38	1078
1383.59	882
1385.8	716
1388.01	554
1390.22	386
1392.43	326
1394.63	300
1396.84	284
1399.05	266
1401.25	262
1403.45	266
1405.66	262
1407.86	282
1410.06	276
1412.26	296
1414.46	312
1416.66	330
1418.86	350
1421.06	384
1423.26	366
1425.46	412
1427.65	426
1429.85	416
1432.04	470
1434.24	450
1436.43	480
1438.62	514
1440.82	498
1443.01	490
1445.2	472
1447.39	428
1449.58	396
1451.77	422
1453.95	392
1456.14	380
1458.33	386
1460.52	380
1462.7	374
1464.89	366
1467.07	382
1469.25	372
1471.44	374
1473.62	350
1475.8	356
1477.98	364
1480.16	330
1482.34	308
1484.52	340
1486.7	302
1488.87	314
1491.05	296
1493.23	256
1495.4	276
1497.58	276
1499.75	302
1501.92	276
1504.1	274
1506.27	282
1508.44	258
1510.61	270
1512.78	286
1514.95	302
1517.12	260
1519.28	272
1521.45	260
1523.62	278
1525.78	260
1527.95	306
1530.11	282
1532.28	278
1534.44	266
1536.6	274
1538.76	272
1540.93	270
1543.09	270
1545.25	286
1547.41	278
1549.56	298
1551.72	274
1553.88	294
1556.03	294
1558.19	306
1560.35	286
1562.5	318
1564.65	306
1566.81	282
1568.96	306
1571.11	328
1573.26	352
1575.41	356
1577.56	382
1579.71	408
1581.86	456
1584.01	500
1586.15	568
1588.3	654
1590.45	762
1592.59	894
1594.74	1046
1596.88	1212
1599.02	1340
1601.17	1436
1603.31	1462
1605.45	1396
1607.59	1242
1609.73	1112
1611.87	1000
1614.01	830
1616.14	726
1618.28	598
1620.42	536
1622.55	432
1624.69	388
1626.82	362
1628.96	330
1631.09	320
1633.22	312
1635.36	296
1637.49	280
1639.62	278
1641.75	264
1643.88	242
1646	250
1648.13	240
1650.26	230
1652.39	244
1654.51	240
1656.64	248
1658.76	242
1660.89	240
1663.01	234
1665.13	214
1667.26	244
1669.38	244
1671.5	198
1673.62	232
1675.74	232
1677.86	224
1679.97	224
1682.09	238
1684.21	234
1686.33	244
1688.44	250
1690.56	244
1692.67	270
1694.78	240
1696.9	238
1699.01	250
1701.12	222
1703.23	238
1705.34	256
1707.45	234
1709.56	246
1711.67	240
1713.78	246
1715.88	218
1717.99	236
1720.1	232
1722.2	224
1724.31	228
1726.41	234
1728.51	236
1730.62	212
1732.72	210
1734.82	214
1736.92	208
1739.02	212
1741.12	214
1743.22	228
1745.32	204
1747.42	202
1749.51	206
1751.61	218
1753.7	218
1755.8	212
1757.89	208
1759.99	220
1762.08	220
1764.17	214
1766.26	208
1768.36	222
1770.45	214
1772.54	214
1774.62	204
1776.71	206
1778.8	218
1780.89	214
1782.98	214
1785.06	224
1787.15	216
1789.23	204
1791.32	240
1793.4	230
1795.48	216
1797.56	214
1799.65	194
1801.73	214
1803.81	210
1805.89	226
1807.97	204
1810.04	220
1812.12	212
1814.2	208
1816.28	204
1818.35	210
1820.43	224
1822.5	200
1824.58	212
1826.65	198
1828.72	214
1830.79	222
1832.86	216
1834.94	202
1837.01	200
1839.08	216
1841.15	212
1843.21	228
1845.28	212
1847.35	200
1849.41	218
1851.48	220
1853.55	216
1855.61	216
1857.67	218
1859.74	226
1861.8	222
1863.86	216
1865.92	210
1867.98	202
1870.05	212
1872.1	200
1874.16	220
1876.22	212
1878.28	200
1880.34	216
1882.39	208
1884.45	238
1886.5	200
1888.56	222
1890.61	210
1892.67	212
1894.72	224
1896.77	206
1898.82	226
1900.87	204
1902.92	206
1904.97	216
1907.02	200
1909.07	202
1911.12	216
1913.17	208
1915.21	222
1917.26	190
1919.3	226
1921.35	220
1923.39	218
1925.43	214
1927.48	212
1929.52	216
1931.56	216
1933.6	212
1935.64	206
1937.68	228
1939.72	212
1941.76	210
1943.8	206
1945.83	214
1947.87	192
1949.91	206
1951.94	202
1953.98	192
1956.01	220
1958.05	212
1960.08	226
1962.11	192
1964.14	208
1966.17	216
1968.2	204
1970.23	208
1972.26	210
1974.29	180
1976.32	206
1978.35	212
1980.37	220
1982.4	212
1984.43	220
1986.45	202
1988.48	212
1990.5	212
1992.52	216
1994.55	222
1996.57	232
1998.59	216
2000.61	220
2002.63	204
2004.65	208
2006.67	212
2008.69	214
2010.7	208
2012.72	212
2014.74	198
2016.75	220
2018.77	212
2020.78	206
2022.8	208
2024.81	210
2026.83	208
2028.84	210
2030.85	212
2032.86	206
2034.87	186
2036.88	212
2038.89	212
2040.9	222
2042.91	208
2044.91	200
2046.92	212
2048.93	218
2050.93	222
2052.94	194
2054.94	214
2056.95	202
2058.95	208
2060.95	220
2062.95	204
2064.96	202
2066.96	216
2068.96	202
2070.96	230
2072.96	230
2074.95	214
2076.95	220
2078.95	218
2080.95	218
2082.94	230
2084.94	190
2086.93	190
2088.93	202
2090.92	214
2092.91	218
2094.91	196
2096.9	198
2098.89	216
2100.88	210
2102.87	204
2104.86	200
2106.85	208
2108.84	206
2110.83	206
2112.81	214
2114.8	196
2116.78	212
2118.77	198
2120.75	216
2122.74	212
2124.72	230
2126.71	204
2128.69	210
2130.67	206
2132.65	220
2134.63	220
2136.61	212
2138.59	224
2140.57	206
2142.55	216
2144.53	202
2146.5	198
2148.48	214
2150.46	214
2152.43	206
2154.41	208
2156.38	216
2158.35	216
2160.33	212
2162.3	208
2164.27	206
2166.24	220
2168.21	198
2170.18	216
2172.15	210
2174.12	208
2176.09	202
2178.06	214
2180.03	206
2181.99	198
2183.96	208
2185.92	222
2187.89	216
2189.85	204
2191.82	212
2193.78	202
2195.74	218
2197.7	204
2199.67	212
2201.63	208
2203.59	204
2205.55	210
2207.51	212
2209.46	212
2211.42	202
2213.38	208
2215.34	202
2217.29	206
2219.25	218
2221.2	224
2223.16	206
2225.11	206
2227.06	210
2229.02	194
2230.97	212
2232.92	182
2234.87	198
2236.82	206
2238.77	204
2240.72	210
2242.67	206
2244.62	212
2246.57	204
2248.51	226
2250.46	212
2252.4	210
2254.35	204
2256.29	206
2258.24	214
2260.18	220
2262.13	202
2264.07	212
2266.01	212
2267.95	196
2269.89	198
2271.83	210
2273.77	198
2275.71	216
2277.65	206
2279.58	188
2281.52	202
2283.46	220
2285.4	214
2287.33	212
2289.27	212
2291.2	212
2293.13	216
2295.07	208
2297	194
2298.93	206
2300.86	234
2302.79	210
2304.72	204
2306.65	196
2308.58	224
2310.51	214
2312.44	222
2314.37	220
2316.29	208
2318.22	218
2320.15	244
2322.07	216
2324	220
2325.92	234
2327.84	220
2329.77	210
2331.69	216
2333.61	220
2335.53	234
2337.45	208
2339.37	214
2341.29	224
2343.21	222
2345.13	228
2347.05	226
2348.97	210
2350.88	208
2352.8	212
2354.71	218
2356.63	222
2358.54	214
2360.46	212
2362.37	202
2364.28	216
2366.2	234
2368.11	208
2370.02	220
2371.93	218
2373.84	216
2375.75	232
2377.66	208
2379.57	206
2381.47	220
2383.38	216
2385.29	226
2387.2	220
2389.1	218
2391.01	212
2392.91	212
2394.81	206
2396.72	214
2398.62	232
2400.52	218
2402.42	216
2404.33	224
2406.23	210
2408.13	222
2410.03	226
2411.92	228
2413.82	230
2415.72	212
2417.62	216
2419.51	220
2421.41	206
2423.31	216
2425.2	192
2427.1	214
2428.99	204
2430.88	206
2432.78	214
2434.67	206
2436.56	196
2438.45	224
2440.34	218
2442.23	218
2444.12	212
2446.01	218
2447.9	198
2449.79	226