File: Jesse_Dataset_v2/Pure Raman/Polypropylene oxide/633nm/ps-ppo-7jan25-0,0000-map2_Y02_X08.txt
182.393	708
184.993	674
187.593	640
190.193	636
192.79	606
195.387	608
197.983	570
200.578	532
203.174	518
205.766	530
208.36	528
210.951	484
213.542	454
216.131	464
218.721	506
221.309	534
223.897	594
226.483	776
229.069	974
231.654	1190
234.238	1288
236.821	1284
239.404	1156
241.984	1014
244.566	888
247.145	782
249.723	674
252.302	560
254.878	504
257.455	416
260.03	388
262.604	334
265.178	294
267.75	320
270.322	286
272.893	288
275.463	302
278.032	298
280.601	308
283.168	358
285.734	394
288.301	478
290.866	556
293.429	602
295.992	630
298.556	630
301.117	560
303.677	526
306.236	476
308.795	434
311.354	424
313.911	370
316.467	382
319.022	364
321.577	354
324.13	382
326.684	376
329.236	398
331.787	412
334.337	438
336.887	410
339.435	386
341.983	384
344.529	366
347.075	360
349.621	362
352.165	370
354.708	358
357.251	394
359.793	330
362.334	350
364.874	318
367.413	352
369.951	370
372.489	364
375.026	366
377.562	320
380.097	298
382.631	288
385.164	246
387.697	256
390.229	266
392.76	250
395.29	256
397.819	246
400.346	256
402.873	246
405.4	262
407.926	292
410.451	326
412.976	344
415.499	396
418.02	366
420.542	312
423.063	298
425.583	278
428.101	226
430.619	240
433.137	210
435.654	194
438.169	208
440.684	210
443.198	166
445.712	188
448.223	174
450.735	180
453.246	180
455.755	180
458.264	186
460.771	184
463.279	196
465.786	216
468.291	248
470.796	278
473.301	300
475.803	366
478.306	402
480.807	444
483.308	496
485.807	510
488.307	458
490.804	378
493.302	322
495.798	278
498.294	240
500.788	218
503.283	220
505.775	240
508.269	258
510.759	346
513.251	394
515.74	372
518.23	310
520.718	300
523.204	308
525.692	328
528.177	396
530.663	480
533.147	610
535.629	714
538.113	792
540.594	802
543.074	674
545.555	580
548.034	464
550.512	404
552.989	392
555.467	450
557.942	520
560.417	698
562.892	1070
565.365	1694
567.838	2728
570.309	3780
572.78	3722
575.251	2636
577.72	1560
580.189	924
582.656	710
585.123	640
587.589	582
590.055	568
592.52	542
594.983	502
597.446	442
599.908	398
602.369	334
604.829	280
607.289	246
609.747	224
612.205	218
614.663	232
617.119	238
619.574	234
622.029	240
624.483	246
626.936	282
629.389	284
631.84	322
634.291	316
636.741	332
639.19	314
641.639	300
644.086	290
646.533	248
648.979	236
651.424	234
653.869	236
656.313	210
658.754	214
661.196	198
663.638	202
666.078	188
668.518	182
670.957	192
673.394	188
675.831	170
678.268	178
680.703	188
683.137	180
685.571	180
688.005	182
690.437	196
692.868	156
695.299	170
697.729	178
700.159	178
702.586	184
705.014	202
707.441	230
709.866	218
712.292	212
714.716	276
717.14	252
719.563	238
721.984	224
724.406	230
726.825	208
729.246	216
731.665	208
734.082	204
736.5	238
738.916	230
741.332	244
743.746	294
746.161	344
748.574	350
750.987	336
753.398	288
755.81	278
758.219	280
760.629	242
763.037	202
765.445	206
767.852	198
770.258	218
772.664	200
775.068	206
777.472	222
779.876	220
782.278	228
784.679	194
787.08	224
789.48	196
791.879	184
794.278	196
796.675	210
799.072	186
801.467	196
803.864	208
806.258	232
808.651	224
811.044	212
813.437	226
815.828	204
818.218	222
820.608	236
822.997	262
825.385	362
827.773	496
830.16	832
832.546	1166
834.931	1096
837.315	660
839.699	408
842.081	314
844.463	298
846.844	272
849.226	266
851.606	250
853.985	246
856.363	242
858.741	240
861.117	234
863.493	218
865.868	210
868.243	222
870.616	228
872.989	190
875.36	178
877.731	198
880.102	198
882.472	200
884.841	192
887.209	190
889.577	198
891.944	182
894.31	182
896.674	182
899.039	182
901.403	190
903.766	174
906.128	192
908.49	186
910.849	178
913.209	170
915.569	190
917.927	188
920.284	214
922.641	188
924.997	196
927.353	192
929.707	202
932.061	210
934.414	200
936.765	216
939.117	246
941.469	252
943.818	270
946.167	306
948.515	362
950.863	438
953.211	532
955.556	744
957.902	860
960.246	972
962.59	946
964.933	788
967.276	658
969.617	532
971.958	480
974.298	364
976.638	296
978.976	266
981.314	262
983.651	224
985.988	230
988.323	228
990.659	228
992.992	236
995.325	208
997.658	204
999.99	216
1002.32	206
1004.65	208
1006.98	216
1009.31	204
1011.64	202
1013.97	224
1016.29	214
1018.62	222
1020.94	252
1023.27	244
1025.59	258
1027.91	278
1030.24	280
1032.56	294
1034.88	292
1037.2	296
1039.52	282
1041.84	270
1044.15	246
1046.47	236
1048.79	230
1051.1	222
1053.42	198
1055.73	214
1058.04	198
1060.36	200
1062.67	208
1064.98	206
1067.29	206
1069.6	196
1071.91	218
1074.22	216
1076.52	198
1078.83	202
1081.14	208
1083.44	210
1085.75	220
1088.05	202
1090.35	208
1092.65	234
1094.95	222
1097.26	230
1099.56	242
1101.86	250
1104.15	284
1106.45	408
1108.75	564
1111.05	826
1113.34	892
1115.64	760
1117.93	504
1120.22	394
1122.52	350
1124.81	294
1127.1	284
1129.39	268
1131.68	274
1133.97	256
1136.26	262
1138.54	252
1140.83	262
1143.12	274
1145.4	254
1147.69	224
1149.97	240
1152.25	216
1154.54	226
1156.82	240
1159.1	282
1161.38	278
1163.66	300
1165.94	282
1168.22	256
1170.49	256
1172.77	274
1175.05	296
1177.32	316
1179.6	378
1181.87	458
1184.14	562
1186.42	668
1188.69	588
1190.96	540
1193.23	444
1195.5	432
1197.77	428
1200.03	470
1202.3	466
1204.57	456
1206.83	410
1209.1	348
1211.36	318
1213.63	274
1215.89	248
1218.15	244
1220.41	258
1222.67	252
1224.93	290
1227.19	326
1229.45	388
1231.71	358
1233.97	320
1236.22	280
1238.48	256
1240.73	232
1242.99	224
1245.24	230
1247.5	216
1249.75	238
1252	242
1254.25	242
1256.5	234
1258.75	244
1261	248
1263.25	238
1265.49	264
1267.74	258
1269.99	250
1272.23	294
1274.48	278
1276.72	292
1278.96	304
1281.21	342
1283.45	370
1285.69	390
1287.93	444
1290.17	432
1292.41	504
1294.64	594
1296.88	808
1299.12	1154
1301.36	1596
1303.59	2052
1305.82	2240
1308.06	1858
1310.29	1360
1312.52	954
1314.76	762
1316.99	644
1319.22	556
1321.45	506
1323.68	498
1325.9	480
1328.13	482
1330.36	464
1332.58	450
1334.81	386
1337.04	348
1339.26	314
1341.48	350
1343.71	364
1345.93	360
1348.15	390
1350.37	410
1352.59	366
1354.81	388
1357.03	328
1359.24	346
1361.46	320
1363.68	328
1365.89	314
1368.11	358
1370.32	422
1372.54	580
1374.75	784
1376.96	972
1379.17	1056
1381.38	1044
1383.59	928
1385.8	684
1388.01	556
1390.22	406
1392.43	338
1394.63	294
1396.84	288
1399.05	258
1401.25	274
1403.45	274
1405.66	274
1407.86	274
1410.06	294
1412.26	288
1414.46	308
1416.66	332
1418.86	386
1421.06	380
1423.26	388
1425.46	410
1427.65	446
1429.85	434
1432.04	448
1434.24	480
1436.43	494
1438.62	500
1440.82	536
1443.01	496
1445.2	492
1447.39	454
1449.58	430
1451.77	414
1453.95	394
1456.14	396
1458.33	400
1460.52	370
1462.7	390
1464.89	400
1467.07	372
1469.25	380
1471.44	386
1473.62	362
1475.8	388
1477.98	360
1480.16	362
1482.34	336
1484.52	328
1486.7	312
1488.87	328
1491.05	272
1493.23	290
1495.4	280
1497.58	300
1499.75	290
1501.92	286
1504.1	280
1506.27	278
1508.44	274
1510.61	284
1512.78	282
1514.95	262
1517.12	292
1519.28	266
1521.45	286
1523.62	288
1525.78	258
1527.95	286
1530.11	280
1532.28	290
1534.44	280
1536.6	284
1538.76	282
1540.93	280
1543.09	290
1545.25	286
1547.41	284
1549.56	276
1551.72	274
1553.88	292
1556.03	284
1558.19	298
1560.35	316
1562.5	290
1564.65	300
1566.81	304
1568.96	336
1571.11	320
1573.26	358
1575.41	364
1577.56	424
1579.71	420
1581.86	464
1584.01	522
1586.15	614
1588.3	688
1590.45	796
1592.59	914
1594.74	1012
1596.88	1220
1599.02	1368
1601.17	1524
1603.31	1510
1605.45	1446
1607.59	1296
1609.73	1152
1611.87	1026
1614.01	864
1616.14	732
1618.28	620
1620.42	522
1622.55	456
1624.69	410
1626.82	376
1628.96	342
1631.09	308
1633.22	308
1635.36	302
1637.49	282
1639.62	284
1641.75	280
1643.88	276
1646	236
1648.13	252
1650.26	248
1652.39	254
1654.51	252
1656.64	266
1658.76	246
1660.89	242
1663.01	252
1665.13	246
1667.26	236
1669.38	234
1671.5	228
1673.62	250
1675.74	240
1677.86	246
1679.97	250
1682.09	248
1684.21	242
1686.33	242
1688.44	256
1690.56	248
1692.67	238
1694.78	252
1696.9	248
1699.01	240
1701.12	274
1703.23	244
1705.34	248
1707.45	244
1709.56	244
1711.67	248
1713.78	234
1715.88	232
1717.99	246
1720.1	230
1722.2	256
1724.31	234
1726.41	226
1728.51	214
1730.62	220
1732.72	240
1734.82	212
1736.92	210
1739.02	216
1741.12	226
1743.22	230
1745.32	216
1747.42	212
1749.51	230
1751.61	224
1753.7	220
1755.8	216
1757.89	224
1759.99	218
1762.08	230
1764.17	222
1766.26	212
1768.36	214
1770.45	212
1772.54	228
1774.62	208
1776.71	218
1778.8	212
1780.89	214
1782.98	218
1785.06	224
1787.15	234
1789.23	224
1791.32	234
1793.4	218
1795.48	210
1797.56	210
1799.65	220
1801.73	224
1803.81	230
1805.89	216
1807.97	216
1810.04	204
1812.12	218
1814.2	204
1816.28	222
1818.35	202
1820.43	210
1822.5	226
1824.58	218
1826.65	212
1828.72	206
1830.79	210
1832.86	222
1834.94	198
1837.01	216
1839.08	228
1841.15	222
1843.21	204
1845.28	216
1847.35	198
1849.41	214
1851.48	224
1853.55	222
1855.61	212
1857.67	214
1859.74	224
1861.8	196
1863.86	200
1865.92	210
1867.98	210
1870.05	212
1872.1	204
1874.16	222
1876.22	202
1878.28	232
1880.34	220
1882.39	218
1884.45	214
1886.5	212
1888.56	218
1890.61	218
1892.67	200
1894.72	206
1896.77	210
1898.82	214
1900.87	212
1902.92	228
1904.97	218
1907.02	232
1909.07	214
1911.12	234
1913.17	212
1915.21	212
1917.26	224
1919.3	210
1921.35	212
1923.39	244
1925.43	210
1927.48	228
1929.52	210
1931.56	214
1933.6	220
1935.64	230
1937.68	234
1939.72	216
1941.76	208
1943.8	230
1945.83	212
1947.87	228
1949.91	220
1951.94	206
1953.98	206
1956.01	206
1958.05	222
1960.08	218
1962.11	208
1964.14	222
1966.17	210
1968.2	218
1970.23	208
1972.26	208
1974.29	200
1976.32	210
1978.35	212
1980.37	212
1982.4	218
1984.43	218
1986.45	214
1988.48	214
1990.5	218
1992.52	216
1994.55	224
1996.57	230
1998.59	196
2000.61	214
2002.63	214
2004.65	212
2006.67	212
2008.69	226
2010.7	206
2012.72	224
2014.74	220
2016.75	218
2018.77	224
2020.78	224
2022.8	210
2024.81	222
2026.83	212
2028.84	194
2030.85	232
2032.86	218
2034.87	212
2036.88	196
2038.89	216
2040.9	224
2042.91	196
2044.91	214
2046.92	206
2048.93	228
2050.93	212
2052.94	210
2054.94	220
2056.95	216
2058.95	240
2060.95	224
2062.95	226
2064.96	228
2066.96	206
2068.96	212
2070.96	216
2072.96	220
2074.95	230
2076.95	206
2078.95	210
2080.95	204
2082.94	204
2084.94	212
2086.93	200
2088.93	206
2090.92	234
2092.91	226
2094.91	202
2096.9	212
2098.89	206
2100.88	208
2102.87	210
2104.86	236
2106.85	214
2108.84	210
2110.83	226
2112.81	210
2114.8	218
2116.78	210
2118.77	224
2120.75	222
2122.74	202
2124.72	214
2126.71	212
2128.69	208
2130.67	226
2132.65	204
2134.63	220
2136.61	220
2138.59	216
2140.57	222
2142.55	216
2144.53	224
2146.5	230
2148.48	220
2150.46	214
2152.43	226
2154.41	214
2156.38	212
2158.35	226
2160.33	202
2162.3	216
2164.27	224
2166.24	214
2168.21	228
2170.18	216
2172.15	214
2174.12	226
2176.09	232
2178.06	224
2180.03	226
2181.99	210
2183.96	204
2185.92	208
2187.89	214
2189.85	220
2191.82	206
2193.78	214
2195.74	200
2197.7	222
2199.67	218
2201.63	202
2203.59	194
2205.55	200
2207.51	210
2209.46	208
2211.42	220
2213.38	208
2215.34	202
2217.29	220
2219.25	208
2221.2	202
2223.16	218
2225.11	220
2227.06	220
2229.02	210
2230.97	198
2232.92	216
2234.87	214
2236.82	224
2238.77	214
2240.72	212
2242.67	204
2244.62	226
2246.57	226
2248.51	212
2250.46	222
2252.4	200
2254.35	212
2256.29	224
2258.24	194
2260.18	218
2262.13	200
2264.07	214
2266.01	216
2267.95	220
2269.89	220
2271.83	194
2273.77	220
2275.71	226
2277.65	200
2279.58	218
2281.52	226
2283.46	210
2285.4	214
2287.33	230
2289.27	206
2291.2	204
2293.13	228
2295.07	206
2297	210
2298.93	220
2300.86	226
2302.79	220
2304.72	226
2306.65	208
2308.58	224
2310.51	224
2312.44	234
2314.37	210
2316.29	226
2318.22	224
2320.15	210
2322.07	234
2324	208
2325.92	218
2327.84	210
2329.77	212
2331.69	214
2333.61	226
2335.53	236
2337.45	206
2339.37	226
2341.29	230
2343.21	240
2345.13	214
2347.05	228
2348.97	224
2350.88	214
2352.8	210
2354.71	206
2356.63	214
2358.54	230
2360.46	212
2362.37	214
2364.28	214
2366.2	202
2368.11	204
2370.02	220
2371.93	216
2373.84	216
2375.75	222
2377.66	214
2379.57	212
2381.47	232
2383.38	226
2385.29	240
2387.2	236
2389.1	224
2391.01	222
2392.91	210
2394.81	228
2396.72	230
2398.62	206
2400.52	226
2402.42	202
2404.33	210
2406.23	242
2408.13	232
2410.03	220
2411.92	204
2413.82	216
2415.72	216
2417.62	218
2419.51	208
2421.41	228
2423.31	204
2425.2	224
2427.1	210
2428.99	222
2430.88	208
2432.78	194
2434.67	210
2436.56	210
2438.45	222
2440.34	228
2442.23	216
2444.12	220
2446.01	210
2447.9	218
2449.79	218