File: Jesse_Dataset_v2/Pure Raman/Polypropylene oxide/633nm/ps-ppo-7jan25-0,0000-map2_Y07_X10.txt
182.393	714
184.993	664
187.593	634
190.193	650
192.79	594
195.387	588
197.983	534
200.578	532
203.174	526
205.766	480
208.36	514
210.951	476
213.542	458
216.131	466
218.721	468
221.309	502
223.897	588
226.483	722
229.069	948
231.654	1132
234.238	1244
236.821	1194
239.404	1134
241.984	990
244.566	878
247.145	782
249.723	622
252.302	572
254.878	486
257.455	414
260.03	380
262.604	338
265.178	328
267.75	300
270.322	268
272.893	298
275.463	284
278.032	290
280.601	336
283.168	318
285.734	366
288.301	466
290.866	546
293.429	576
295.992	626
298.556	618
301.117	562
303.677	516
306.236	444
308.795	430
311.354	426
313.911	380
316.467	372
319.022	340
321.577	368
324.13	374
326.684	370
329.236	392
331.787	398
334.337	404
336.887	426
339.435	388
341.983	382
344.529	338
347.075	378
349.621	358
352.165	364
354.708	378
357.251	372
359.793	354
362.334	336
364.874	328
367.413	330
369.951	334
372.489	350
375.026	328
377.562	334
380.097	302
382.631	272
385.164	282
387.697	268
390.229	252
392.76	250
395.29	242
397.819	256
400.346	270
402.873	254
405.4	274
407.926	304
410.451	340
412.976	364
415.499	390
418.02	358
420.542	316
423.063	278
425.583	272
428.101	228
430.619	242
433.137	206
435.654	220
438.169	218
440.684	200
443.198	196
445.712	190
448.223	184
450.735	192
453.246	202
455.755	186
458.264	188
460.771	184
463.279	210
465.786	226
468.291	260
470.796	276
473.301	312
475.803	366
478.306	414
480.807	444
483.308	458
485.807	504
488.307	470
490.804	376
493.302	312
495.798	274
498.294	236
500.788	248
503.283	248
505.775	232
508.269	270
510.759	332
513.251	416
515.74	370
518.23	316
520.718	296
523.204	322
525.692	368
528.177	374
530.663	444
533.147	596
535.629	688
538.113	774
540.594	750
543.074	722
545.555	576
548.034	458
550.512	408
552.989	384
555.467	414
557.942	516
560.417	636
562.892	1006
565.365	1580
567.838	2518
570.309	3640
572.78	3662
575.251	2614
577.72	1536
580.189	894
582.656	692
585.123	602
587.589	622
590.055	590
592.52	520
594.983	506
597.446	464
599.908	398
602.369	340
604.829	292
607.289	248
609.747	240
612.205	230
614.663	240
617.119	230
619.574	230
622.029	266
624.483	290
626.936	282
629.389	298
631.84	342
634.291	324
636.741	326
639.19	322
641.639	282
644.086	280
646.533	272
648.979	256
651.424	240
653.869	230
656.313	230
658.754	204
661.196	214
663.638	194
666.078	190
668.518	192
670.957	184
673.394	186
675.831	186
678.268	182
680.703	182
683.137	192
685.571	174
688.005	192
690.437	190
692.868	178
695.299	196
697.729	190
700.159	186
702.586	186
705.014	192
707.441	194
709.866	228
712.292	256
714.716	254
717.14	248
719.563	252
721.984	230
724.406	222
726.825	218
729.246	212
731.665	214
734.082	220
736.5	238
738.916	244
741.332	246
743.746	258
746.161	326
748.574	350
750.987	326
753.398	312
755.81	290
758.219	294
760.629	244
763.037	222
765.445	220
767.852	196
770.258	188
772.664	216
775.068	224
777.472	230
779.876	220
782.278	224
784.679	220
787.08	224
789.48	218
791.879	206
794.278	198
796.675	214
799.072	206
801.467	224
803.864	212
806.258	238
808.651	216
811.044	210
813.437	226
815.828	238
818.218	236
820.608	246
822.997	284
825.385	370
827.773	474
830.16	798
832.546	1172
834.931	1106
837.315	650
839.699	412
842.081	328
844.463	262
846.844	280
849.226	266
851.606	266
853.985	250
856.363	250
858.741	250
861.117	238
863.493	248
865.868	216
868.243	218
870.616	216
872.989	194
875.36	198
877.731	196
880.102	206
882.472	206
884.841	192
887.209	200
889.577	196
891.944	180
894.31	194
896.674	204
899.039	202
901.403	198
903.766	190
906.128	188
908.49	202
910.849	196
913.209	194
915.569	202
917.927	184
920.284	194
922.641	186
924.997	216
927.353	194
929.707	206
932.061	204
934.414	222
936.765	226
939.117	240
941.469	252
943.818	282
946.167	298
948.515	338
950.863	430
953.211	550
955.556	718
957.902	826
960.246	936
962.59	902
964.933	734
967.276	618
969.617	548
971.958	466
974.298	412
976.638	312
978.976	284
981.314	270
983.651	252
985.988	234
988.323	248
990.659	252
992.992	246
995.325	226
997.658	204
999.99	210
1002.32	230
1004.65	224
1006.98	214
1009.31	232
1011.64	206
1013.97	230
1016.29	232
1018.62	238
1020.94	260
1023.27	254
1025.59	240
1027.91	262
1030.24	296
1032.56	288
1034.88	312
1037.2	284
1039.52	308
1041.84	290
1044.15	268
1046.47	250
1048.79	234
1051.1	230
1053.42	236
1055.73	222
1058.04	208
1060.36	212
1062.67	234
1064.98	224
1067.29	224
1069.6	224
1071.91	214
1074.22	212
1076.52	226
1078.83	214
1081.14	220
1083.44	234
1085.75	216
1088.05	236
1090.35	232
1092.65	226
1094.95	242
1097.26	228
1099.56	258
1101.86	264
1104.15	298
1106.45	400
1108.75	584
1111.05	822
1113.34	906
1115.64	738
1117.93	508
1120.22	390
1122.52	360
1124.81	316
1127.1	290
1129.39	290
1131.68	276
1133.97	256
1136.26	256
1138.54	256
1140.83	264
1143.12	272
1145.4	242
1147.69	238
1149.97	236
1152.25	228
1154.54	252
1156.82	260
1159.1	284
1161.38	262
1163.66	290
1165.94	302
1168.22	266
1170.49	270
1172.77	272
1175.05	288
1177.32	304
1179.6	368
1181.87	430
1184.14	528
1186.42	604
1188.69	576
1190.96	542
1193.23	438
1195.5	436
1197.77	462
1200.03	462
1202.3	494
1204.57	466
1206.83	418
1209.1	396
1211.36	314
1213.63	294
1215.89	270
1218.15	266
1220.41	266
1222.67	248
1224.93	294
1227.19	334
1229.45	378
1231.71	364
1233.97	346
1236.22	294
1238.48	262
1240.73	276
1242.99	246
1245.24	234
1247.5	238
1249.75	246
1252	252
1254.25	240
1256.5	242
1258.75	222
1261	246
1263.25	266
1265.49	248
1267.74	276
1269.99	244
1272.23	270
1274.48	294
1276.72	286
1278.96	330
1281.21	324
1283.45	376
1285.69	384
1287.93	426
1290.17	444
1292.41	500
1294.64	630
1296.88	792
1299.12	1082
1301.36	1552
1303.59	1996
1305.82	2198
1308.06	1850
1310.29	1300
1312.52	916
1314.76	764
1316.99	630
1319.22	568
1321.45	506
1323.68	486
1325.9	494
1328.13	470
1330.36	462
1332.58	416
1334.81	380
1337.04	382
1339.26	330
1341.48	356
1343.71	366
1345.93	366
1348.15	386
1350.37	414
1352.59	394
1354.81	384
1357.03	344
1359.24	342
1361.46	332
1363.68	322
1365.89	342
1368.11	340
1370.32	424
1372.54	536
1374.75	754
1376.96	944
1379.17	1036
1381.38	1050
1383.59	956
1385.8	736
1388.01	528
1390.22	412
1392.43	368
1394.63	324
1396.84	284
1399.05	282
1401.25	290
1403.45	296
1405.66	306
1407.86	292
1410.06	282
1412.26	304
1414.46	296
1416.66	328
1418.86	368
1421.06	368
1423.26	390
1425.46	444
1427.65	426
1429.85	436
1432.04	482
1434.24	492
1436.43	486
1438.62	522
1440.82	538
1443.01	508
1445.2	512
1447.39	400
1449.58	456
1451.77	428
1453.95	424
1456.14	398
1458.33	412
1460.52	374
1462.7	394
1464.89	396
1467.07	392
1469.25	386
1471.44	388
1473.62	376
1475.8	354
1477.98	386
1480.16	362
1482.34	346
1484.52	346
1486.7	328
1488.87	336
1491.05	310
1493.23	308
1495.4	308
1497.58	312
1499.75	300
1501.92	300
1504.1	306
1506.27	294
1508.44	288
1510.61	282
1512.78	274
1514.95	296
1517.12	296
1519.28	274
1521.45	304
1523.62	308
1525.78	296
1527.95	264
1530.11	286
1532.28	288
1534.44	292
1536.6	298
1538.76	298
1540.93	306
1543.09	300
1545.25	292
1547.41	296
1549.56	296
1551.72	310
1553.88	310
1556.03	298
1558.19	308
1560.35	296
1562.5	344
1564.65	312
1566.81	324
1568.96	324
1571.11	340
1573.26	346
1575.41	394
1577.56	400
1579.71	424
1581.86	472
1584.01	526
1586.15	560
1588.3	630
1590.45	756
1592.59	892
1594.74	1034
1596.88	1194
1599.02	1294
1601.17	1410
1603.31	1462
1605.45	1402
1607.59	1256
1609.73	1118
1611.87	1016
1614.01	896
1616.14	760
1618.28	592
1620.42	552
1622.55	474
1624.69	426
1626.82	374
1628.96	332
1631.09	314
1633.22	322
1635.36	286
1637.49	300
1639.62	282
1641.75	280
1643.88	292
1646	270
1648.13	264
1650.26	270
1652.39	276
1654.51	258
1656.64	270
1658.76	252
1660.89	260
1663.01	262
1665.13	240
1667.26	256
1669.38	244
1671.5	260
1673.62	254
1675.74	236
1677.86	254
1679.97	246
1682.09	250
1684.21	268
1686.33	262
1688.44	258
1690.56	266
1692.67	278
1694.78	270
1696.9	254
1699.01	260
1701.12	246
1703.23	250
1705.34	270
1707.45	274
1709.56	256
1711.67	258
1713.78	258
1715.88	252
1717.99	266
1720.1	246
1722.2	238
1724.31	236
1726.41	238
1728.51	248
1730.62	258
1732.72	228
1734.82	240
1736.92	234
1739.02	234
1741.12	230
1743.22	228
1745.32	212
1747.42	242
1749.51	222
1751.61	238
1753.7	222
1755.8	228
1757.89	234
1759.99	234
1762.08	230
1764.17	214
1766.26	238
1768.36	244
1770.45	232
1772.54	220
1774.62	232
1776.71	246
1778.8	242
1780.89	242
1782.98	232
1785.06	234
1787.15	242
1789.23	244
1791.32	226
1793.4	240
1795.48	234
1797.56	230
1799.65	230
1801.73	238
1803.81	236
1805.89	226
1807.97	218
1810.04	228
1812.12	226
1814.2	230
1816.28	232
1818.35	238
1820.43	238
1822.5	228
1824.58	228
1826.65	216
1828.72	224
1830.79	232
1832.86	210
1834.94	214
1837.01	226
1839.08	244
1841.15	236
1843.21	240
1845.28	238
1847.35	232
1849.41	210
1851.48	226
1853.55	238
1855.61	240
1857.67	230
1859.74	256
1861.8	230
1863.86	228
1865.92	244
1867.98	234
1870.05	220
1872.1	236
1874.16	244
1876.22	240
1878.28	232
1880.34	232
1882.39	238
1884.45	222
1886.5	246
1888.56	242
1890.61	226
1892.67	228
1894.72	230
1896.77	218
1898.82	232
1900.87	242
1902.92	230
1904.97	234
1907.02	212
1909.07	238
1911.12	214
1913.17	242
1915.21	232
1917.26	238
1919.3	222
1921.35	226
1923.39	242
1925.43	236
1927.48	232
1929.52	230
1931.56	240
1933.6	234
1935.64	232
1937.68	222
1939.72	232
1941.76	226
1943.8	222
1945.83	210
1947.87	222
1949.91	224
1951.94	238
1953.98	238
1956.01	230
1958.05	230
1960.08	232
1962.11	236
1964.14	226
1966.17	224
1968.2	228
1970.23	226
1972.26	236
1974.29	238
1976.32	238
1978.35	238
1980.37	228
1982.4	218
1984.43	234
1986.45	242
1988.48	230
1990.5	228
1992.52	230
1994.55	222
1996.57	254
1998.59	248
2000.61	224
2002.63	246
2004.65	236
2006.67	226
2008.69	224
2010.7	234
2012.72	218
2014.74	236
2016.75	240
2018.77	234
2020.78	218
2022.8	236
2024.81	214
2026.83	222
2028.84	230
2030.85	220
2032.86	226
2034.87	214
2036.88	226
2038.89	224
2040.9	212
2042.91	244
2044.91	238
2046.92	220
2048.93	238
2050.93	220
2052.94	242
2054.94	224
2056.95	222
2058.95	236
2060.95	216
2062.95	228
2064.96	238
2066.96	220
2068.96	224
2070.96	242
2072.96	236
2074.95	246
2076.95	240
2078.95	236
2080.95	232
2082.94	232
2084.94	224
2086.93	242
2088.93	208
2090.92	218
2092.91	242
2094.91	226
2096.9	242
2098.89	234
2100.88	230
2102.87	228
2104.86	228
2106.85	212
2108.84	222
2110.83	230
2112.81	230
2114.8	230
2116.78	224
2118.77	228
2120.75	220
2122.74	232
2124.72	242
2126.71	232
2128.69	220
2130.67	226
2132.65	220
2134.63	230
2136.61	236
2138.59	236
2140.57	232
2142.55	234
2144.53	244
2146.5	230
2148.48	244
2150.46	236
2152.43	222
2154.41	214
2156.38	228
2158.35	222
2160.33	234
2162.3	232
2164.27	248
2166.24	250
2168.21	226
2170.18	228
2172.15	230
2174.12	230
2176.09	230
2178.06	222
2180.03	242
2181.99	228
2183.96	234
2185.92	238
2187.89	220
2189.85	220
2191.82	214
2193.78	226
2195.74	216
2197.7	242
2199.67	226
2201.63	224
2203.59	218
2205.55	212
2207.51	224
2209.46	222
2211.42	214
2213.38	236
2215.34	218
2217.29	228
2219.25	222
2221.2	228
2223.16	222
2225.11	228
2227.06	228
2229.02	222
2230.97	226
2232.92	224
2234.87	222
2236.82	212
2238.77	216
2240.72	224
2242.67	226
2244.62	228
2246.57	236
2248.51	220
2250.46	226
2252.4	210
2254.35	234
2256.29	242
2258.24	226
2260.18	242
2262.13	232
2264.07	262
2266.01	224
2267.95	232
2269.89	240
2271.83	222
2273.77	228
2275.71	220
2277.65	226
2279.58	232
2281.52	228
2283.46	224
2285.4	224
2287.33	236
2289.27	250
2291.2	232
2293.13	218
2295.07	226
2297	236
2298.93	238
2300.86	222
2302.79	226
2304.72	216
2306.65	252
2308.58	244
2310.51	228
2312.44	234
2314.37	242
2316.29	216
2318.22	222
2320.15	244
2322.07	230
2324	244
2325.92	246
2327.84	244
2329.77	236
2331.69	234
2333.61	234
2335.53	232
2337.45	228
2339.37	242
2341.29	236
2343.21	260
2345.13	222
2347.05	224
2348.97	222
2350.88	226
2352.8	230
2354.71	222
2356.63	222
2358.54	230
2360.46	236
2362.37	234
2364.28	240
2366.2	216
2368.11	246
2370.02	218
2371.93	220
2373.84	238
2375.75	242
2377.66	238
2379.57	226
2381.47	244
2383.38	226
2385.29	240
2387.2	230
2389.1	232
2391.01	242
2392.91	214
2394.81	236
2396.72	246
2398.62	232
2400.52	260
2402.42	232
2404.33	242
2406.23	236
2408.13	234
2410.03	260
2411.92	220
2413.82	232
2415.72	248
2417.62	222
2419.51	224
2421.41	240
2423.31	234
2425.2	234
2427.1	234
2428.99	220
2430.88	212
2432.78	216
2434.67	210
2436.56	232
2438.45	216
2440.34	216
2442.23	232
2444.12	220
2446.01	238
2447.9	226
2449.79	222