File: Jesse_Dataset_v2/Pure Raman/Polypropylene oxide/633nm/ps-ppo-7jan25-0,0000-map2_Y02_X01.txt
182.393	746
184.993	704
187.593	666
190.193	664
192.79	606
195.387	618
197.983	568
200.578	524
203.174	534
205.766	506
208.36	500
210.951	472
213.542	460
216.131	482
218.721	470
221.309	520
223.897	646
226.483	778
229.069	976
231.654	1204
234.238	1272
236.821	1268
239.404	1166
241.984	1036
244.566	930
247.145	780
249.723	658
252.302	586
254.878	486
257.455	440
260.03	394
262.604	336
265.178	322
267.75	300
270.322	314
272.893	308
275.463	308
278.032	318
280.601	338
283.168	332
285.734	388
288.301	482
290.866	558
293.429	638
295.992	634
298.556	650
301.117	596
303.677	544
306.236	486
308.795	446
311.354	418
313.911	412
316.467	396
319.022	384
321.577	388
324.13	392
326.684	386
329.236	436
331.787	448
334.337	416
336.887	418
339.435	412
341.983	370
344.529	372
347.075	380
349.621	358
352.165	372
354.708	386
357.251	398
359.793	354
362.334	328
364.874	344
367.413	340
369.951	364
372.489	358
375.026	348
377.562	336
380.097	318
382.631	292
385.164	274
387.697	288
390.229	260
392.76	258
395.29	254
397.819	248
400.346	254
402.873	266
405.4	254
407.926	310
410.451	368
412.976	392
415.499	408
418.02	376
420.542	338
423.063	276
425.583	264
428.101	240
430.619	246
433.137	224
435.654	212
438.169	208
440.684	206
443.198	196
445.712	174
448.223	194
450.735	206
453.246	200
455.755	198
458.264	188
460.771	210
463.279	204
465.786	242
468.291	256
470.796	284
473.301	336
475.803	362
478.306	396
480.807	462
483.308	506
485.807	554
488.307	462
490.804	398
493.302	346
495.798	284
498.294	272
500.788	240
503.283	242
505.775	228
508.269	276
510.759	356
513.251	440
515.74	390
518.23	332
520.718	308
523.204	320
525.692	358
528.177	402
530.663	478
533.147	610
535.629	730
538.113	818
540.594	840
543.074	722
545.555	576
548.034	474
550.512	438
552.989	414
555.467	438
557.942	544
560.417	712
562.892	1052
565.365	1722
567.838	2750
570.309	3868
572.78	3834
575.251	2608
577.72	1608
580.189	952
582.656	744
585.123	684
587.589	612
590.055	604
592.52	500
594.983	548
597.446	472
599.908	390
602.369	328
604.829	276
607.289	276
609.747	244
612.205	242
614.663	230
617.119	242
619.574	238
622.029	262
624.483	274
626.936	290
629.389	304
631.84	352
634.291	330
636.741	352
639.19	340
641.639	310
644.086	298
646.533	270
648.979	248
651.424	240
653.869	234
656.313	220
658.754	212
661.196	226
663.638	212
666.078	198
668.518	188
670.957	186
673.394	180
675.831	184
678.268	184
680.703	186
683.137	202
685.571	202
688.005	200
690.437	174
692.868	182
695.299	168
697.729	178
700.159	184
702.586	186
705.014	202
707.441	212
709.866	224
712.292	248
714.716	276
717.14	266
719.563	234
721.984	222
724.406	236
726.825	208
729.246	222
731.665	236
734.082	226
736.5	238
738.916	250
741.332	266
743.746	278
746.161	326
748.574	360
750.987	346
753.398	324
755.81	320
758.219	266
760.629	250
763.037	224
765.445	226
767.852	208
770.258	222
772.664	224
775.068	224
777.472	238
779.876	226
782.278	228
784.679	236
787.08	222
789.48	218
791.879	214
794.278	204
796.675	210
799.072	206
801.467	198
803.864	222
806.258	206
808.651	232
811.044	218
813.437	234
815.828	236
818.218	250
820.608	258
822.997	320
825.385	376
827.773	504
830.16	820
832.546	1204
834.931	1140
837.315	688
839.699	404
842.081	340
844.463	296
846.844	310
849.226	294
851.606	284
853.985	272
856.363	272
858.741	268
861.117	250
863.493	222
865.868	228
868.243	214
870.616	210
872.989	202
875.36	214
877.731	210
880.102	214
882.472	204
884.841	214
887.209	210
889.577	212
891.944	190
894.31	180
896.674	186
899.039	198
901.403	188
903.766	184
906.128	198
908.49	192
910.849	186
913.209	200
915.569	194
917.927	196
920.284	200
922.641	198
924.997	208
927.353	218
929.707	216
932.061	218
934.414	214
936.765	218
939.117	212
941.469	268
943.818	258
946.167	328
948.515	372
950.863	454
953.211	596
955.556	716
957.902	880
960.246	950
962.59	886
964.933	836
967.276	694
969.617	538
971.958	468
974.298	394
976.638	306
978.976	282
981.314	266
983.651	256
985.988	246
988.323	236
990.659	244
992.992	234
995.325	234
997.658	228
999.99	226
1002.32	230
1004.65	212
1006.98	234
1009.31	216
1011.64	240
1013.97	236
1016.29	234
1018.62	242
1020.94	264
1023.27	276
1025.59	268
1027.91	286
1030.24	286
1032.56	290
1034.88	298
1037.2	288
1039.52	294
1041.84	278
1044.15	248
1046.47	250
1048.79	226
1051.1	232
1053.42	234
1055.73	242
1058.04	234
1060.36	228
1062.67	202
1064.98	222
1067.29	208
1069.6	224
1071.91	204
1074.22	220
1076.52	220
1078.83	226
1081.14	214
1083.44	234
1085.75	218
1088.05	224
1090.35	224
1092.65	242
1094.95	230
1097.26	240
1099.56	234
1101.86	260
1104.15	304
1106.45	396
1108.75	606
1111.05	898
1113.34	954
1115.64	770
1117.93	514
1120.22	406
1122.52	326
1124.81	320
1127.1	300
1129.39	288
1131.68	276
1133.97	256
1136.26	258
1138.54	258
1140.83	294
1143.12	252
1145.4	272
1147.69	248
1149.97	226
1152.25	234
1154.54	254
1156.82	252
1159.1	246
1161.38	290
1163.66	290
1165.94	284
1168.22	262
1170.49	286
1172.77	286
1175.05	294
1177.32	310
1179.6	374
1181.87	446
1184.14	566
1186.42	668
1188.69	640
1190.96	506
1193.23	458
1195.5	468
1197.77	436
1200.03	486
1202.3	498
1204.57	486
1206.83	456
1209.1	370
1211.36	324
1213.63	292
1215.89	276
1218.15	256
1220.41	248
1222.67	254
1224.93	328
1227.19	346
1229.45	364
1231.71	362
1233.97	344
1236.22	312
1238.48	260
1240.73	264
1242.99	248
1245.24	250
1247.5	238
1249.75	246
1252	244
1254.25	226
1256.5	236
1258.75	266
1261	256
1263.25	262
1265.49	280
1267.74	274
1269.99	272
1272.23	274
1274.48	304
1276.72	286
1278.96	330
1281.21	344
1283.45	360
1285.69	420
1287.93	408
1290.17	450
1292.41	534
1294.64	638
1296.88	848
1299.12	1144
1301.36	1632
1303.59	2118
1305.82	2284
1308.06	1948
1310.29	1368
1312.52	988
1314.76	764
1316.99	654
1319.22	602
1321.45	482
1323.68	514
1325.9	488
1328.13	492
1330.36	434
1332.58	404
1334.81	390
1337.04	378
1339.26	348
1341.48	354
1343.71	366
1345.93	382
1348.15	392
1350.37	402
1352.59	364
1354.81	364
1357.03	376
1359.24	360
1361.46	326
1363.68	316
1365.89	344
1368.11	364
1370.32	466
1372.54	570
1374.75	812
1376.96	1042
1379.17	1070
1381.38	1040
1383.59	970
1385.8	742
1388.01	578
1390.22	418
1392.43	346
1394.63	302
1396.84	296
1399.05	294
1401.25	290
1403.45	276
1405.66	302
1407.86	298
1410.06	310
1412.26	324
1414.46	318
1416.66	334
1418.86	368
1421.06	382
1423.26	442
1425.46	446
1427.65	436
1429.85	438
1432.04	474
1434.24	490
1436.43	484
1438.62	516
1440.82	512
1443.01	524
1445.2	508
1447.39	492
1449.58	436
1451.77	418
1453.95	422
1456.14	396
1458.33	402
1460.52	408
1462.7	392
1464.89	398
1467.07	398
1469.25	396
1471.44	384
1473.62	382
1475.8	374
1477.98	412
1480.16	370
1482.34	342
1484.52	356
1486.7	340
1488.87	332
1491.05	326
1493.23	294
1495.4	278
1497.58	304
1499.75	304
1501.92	296
1504.1	300
1506.27	298
1508.44	300
1510.61	312
1512.78	282
1514.95	308
1517.12	288
1519.28	296
1521.45	294
1523.62	266
1525.78	290
1527.95	284
1530.11	294
1532.28	290
1534.44	302
1536.6	294
1538.76	298
1540.93	280
1543.09	316
1545.25	278
1547.41	318
1549.56	298
1551.72	290
1553.88	288
1556.03	302
1558.19	314
1560.35	298
1562.5	338
1564.65	306
1566.81	334
1568.96	322
1571.11	336
1573.26	364
1575.41	394
1577.56	426
1579.71	436
1581.86	446
1584.01	528
1586.15	594
1588.3	690
1590.45	772
1592.59	914
1594.74	1112
1596.88	1262
1599.02	1412
1601.17	1474
1603.31	1520
1605.45	1400
1607.59	1330
1609.73	1168
1611.87	996
1614.01	878
1616.14	756
1618.28	636
1620.42	574
1622.55	484
1624.69	378
1626.82	384
1628.96	364
1631.09	322
1633.22	310
1635.36	320
1637.49	284
1639.62	282
1641.75	274
1643.88	278
1646	270
1648.13	280
1650.26	282
1652.39	250
1654.51	274
1656.64	256
1658.76	258
1660.89	248
1663.01	252
1665.13	250
1667.26	254
1669.38	270
1671.5	242
1673.62	218
1675.74	242
1677.86	250
1679.97	252
1682.09	256
1684.21	256
1686.33	234
1688.44	256
1690.56	240
1692.67	276
1694.78	270
1696.9	278
1699.01	264
1701.12	252
1703.23	268
1705.34	258
1707.45	258
1709.56	244
1711.67	260
1713.78	234
1715.88	274
1717.99	266
1720.1	250
1722.2	248
1724.31	258
1726.41	232
1728.51	244
1730.62	244
1732.72	232
1734.82	226
1736.92	226
1739.02	228
1741.12	224
1743.22	246
1745.32	224
1747.42	220
1749.51	218
1751.61	240
1753.7	212
1755.8	236
1757.89	230
1759.99	210
1762.08	236
1764.17	236
1766.26	232
1768.36	240
1770.45	238
1772.54	220
1774.62	216
1776.71	236
1778.8	220
1780.89	234
1782.98	218
1785.06	220
1787.15	230
1789.23	234
1791.32	230
1793.4	236
1795.48	226
1797.56	232
1799.65	228
1801.73	204
1803.81	228
1805.89	218
1807.97	244
1810.04	238
1812.12	226
1814.2	230
1816.28	224
1818.35	208
1820.43	230
1822.5	216
1824.58	212
1826.65	240
1828.72	212
1830.79	246
1832.86	230
1834.94	224
1837.01	242
1839.08	230
1841.15	222
1843.21	212
1845.28	224
1847.35	230
1849.41	222
1851.48	224
1853.55	218
1855.61	224
1857.67	220
1859.74	210
1861.8	230
1863.86	216
1865.92	230
1867.98	212
1870.05	246
1872.1	232
1874.16	214
1876.22	212
1878.28	228
1880.34	226
1882.39	212
1884.45	216
1886.5	198
1888.56	234
1890.61	216
1892.67	220
1894.72	230
1896.77	222
1898.82	212
1900.87	214
1902.92	224
1904.97	228
1907.02	234
1909.07	240
1911.12	224
1913.17	216
1915.21	212
1917.26	198
1919.3	228
1921.35	232
1923.39	230
1925.43	218
1927.48	216
1929.52	196
1931.56	224
1933.6	222
1935.64	242
1937.68	238
1939.72	210
1941.76	214
1943.8	226
1945.83	204
1947.87	214
1949.91	220
1951.94	228
1953.98	214
1956.01	224
1958.05	212
1960.08	230
1962.11	228
1964.14	212
1966.17	240
1968.2	208
1970.23	240
1972.26	246
1974.29	214
1976.32	216
1978.35	230
1980.37	232
1982.4	234
1984.43	210
1986.45	234
1988.48	234
1990.5	210
1992.52	226
1994.55	232
1996.57	218
1998.59	226
2000.61	242
2002.63	244
2004.65	218
2006.67	252
2008.69	216
2010.7	224
2012.72	220
2014.74	218
2016.75	228
2018.77	230
2020.78	220
2022.8	222
2024.81	216
2026.83	212
2028.84	220
2030.85	212
2032.86	216
2034.87	230
2036.88	226
2038.89	240
2040.9	236
2042.91	226
2044.91	248
2046.92	228
2048.93	240
2050.93	248
2052.94	220
2054.94	226
2056.95	226
2058.95	234
2060.95	222
2062.95	222
2064.96	242
2066.96	220
2068.96	216
2070.96	210
2072.96	218
2074.95	252
2076.95	226
2078.95	220
2080.95	214
2082.94	220
2084.94	230
2086.93	224
2088.93	240
2090.92	216
2092.91	228
2094.91	218
2096.9	248
2098.89	200
2100.88	246
2102.87	226
2104.86	234
2106.85	222
2108.84	218
2110.83	208
2112.81	224
2114.8	232
2116.78	224
2118.77	224
2120.75	226
2122.74	224
2124.72	230
2126.71	246
2128.69	218
2130.67	212
2132.65	204
2134.63	230
2136.61	226
2138.59	220
2140.57	232
2142.55	222
2144.53	214
2146.5	250
2148.48	222
2150.46	208
2152.43	226
2154.41	206
2156.38	226
2158.35	236
2160.33	222
2162.3	220
2164.27	212
2166.24	206
2168.21	200
2170.18	218
2172.15	210
2174.12	210
2176.09	224
2178.06	216
2180.03	224
2181.99	212
2183.96	220
2185.92	224
2187.89	236
2189.85	228
2191.82	210
2193.78	216
2195.74	206
2197.7	226
2199.67	208
2201.63	220
2203.59	224
2205.55	212
2207.51	214
2209.46	230
2211.42	212
2213.38	222
2215.34	220
2217.29	202
2219.25	204
2221.2	216
2223.16	216
2225.11	222
2227.06	228
2229.02	224
2230.97	228
2232.92	220
2234.87	226
2236.82	210
2238.77	218
2240.72	218
2242.67	230
2244.62	216
2246.57	216
2248.51	230
2250.46	232
2252.4	236
2254.35	214
2256.29	226
2258.24	222
2260.18	228
2262.13	220
2264.07	222
2266.01	222
2267.95	224
2269.89	220
2271.83	238
2273.77	208
2275.71	236
2277.65	208
2279.58	234
2281.52	214
2283.46	226
2285.4	224
2287.33	218
2289.27	232
2291.2	230
2293.13	212
2295.07	224
2297	234
2298.93	222
2300.86	248
2302.79	232
2304.72	216
2306.65	216
2308.58	242
2310.51	220
2312.44	228
2314.37	232
2316.29	254
2318.22	234
2320.15	240
2322.07	222
2324	222
2325.92	226
2327.84	214
2329.77	222
2331.69	238
2333.61	236
2335.53	244
2337.45	230
2339.37	224
2341.29	232
2343.21	242
2345.13	224
2347.05	230
2348.97	214
2350.88	204
2352.8	242
2354.71	218
2356.63	234
2358.54	214
2360.46	232
2362.37	220
2364.28	212
2366.2	216
2368.11	228
2370.02	232
2371.93	236
2373.84	204
2375.75	222
2377.66	224
2379.57	210
2381.47	230
2383.38	216
2385.29	214
2387.2	228
2389.1	222
2391.01	230
2392.91	218
2394.81	224
2396.72	228
2398.62	240
2400.52	238
2402.42	232
2404.33	250
2406.23	220
2408.13	232
2410.03	252
2411.92	246
2413.82	228
2415.72	208
2417.62	232
2419.51	220
2421.41	222
2423.31	222
2425.2	198
2427.1	222
2428.99	194
2430.88	212
2432.78	206
2434.67	218
2436.56	224
2438.45	218
2440.34	204
2442.23	226
2444.12	226
2446.01	226
2447.9	202
2449.79	202