File: Jesse_Dataset_v2/Pure Raman/Polypropylene oxide/633nm/ps-ppo-7jan25-0,0000-map2_Y04_X01.txt
182.393	696
184.993	696
187.593	686
190.193	642
192.79	588
195.387	592
197.983	534
200.578	536
203.174	516
205.766	534
208.36	496
210.951	486
213.542	466
216.131	454
218.721	510
221.309	542
223.897	600
226.483	766
229.069	956
231.654	1202
234.238	1296
236.821	1254
239.404	1148
241.984	1018
244.566	922
247.145	766
249.723	684
252.302	564
254.878	498
257.455	412
260.03	360
262.604	332
265.178	334
267.75	312
270.322	310
272.893	298
275.463	294
278.032	302
280.601	326
283.168	336
285.734	418
288.301	452
290.866	552
293.429	622
295.992	656
298.556	658
301.117	584
303.677	498
306.236	470
308.795	458
311.354	420
313.911	404
316.467	392
319.022	386
321.577	368
324.13	374
326.684	402
329.236	394
331.787	408
334.337	418
336.887	406
339.435	412
341.983	366
344.529	370
347.075	360
349.621	338
352.165	364
354.708	346
357.251	362
359.793	370
362.334	370
364.874	334
367.413	344
369.951	346
372.489	346
375.026	342
377.562	328
380.097	312
382.631	274
385.164	284
387.697	264
390.229	232
392.76	236
395.29	260
397.819	236
400.346	246
402.873	272
405.4	264
407.926	292
410.451	322
412.976	338
415.499	370
418.02	354
420.542	324
423.063	282
425.583	272
428.101	216
430.619	226
433.137	222
435.654	218
438.169	196
440.684	192
443.198	198
445.712	190
448.223	184
450.735	180
453.246	188
455.755	186
458.264	198
460.771	202
463.279	198
465.786	242
468.291	246
470.796	260
473.301	314
475.803	370
478.306	424
480.807	450
483.308	520
485.807	532
488.307	460
490.804	372
493.302	330
495.798	280
498.294	236
500.788	240
503.283	236
505.775	264
508.269	262
510.759	360
513.251	422
515.74	388
518.23	328
520.718	316
523.204	334
525.692	346
528.177	410
530.663	466
533.147	604
535.629	714
538.113	830
540.594	776
543.074	724
545.555	598
548.034	492
550.512	416
552.989	384
555.467	450
557.942	508
560.417	698
562.892	1032
565.365	1662
567.838	2750
570.309	3808
572.78	3752
575.251	2696
577.72	1568
580.189	992
582.656	754
585.123	646
587.589	626
590.055	530
592.52	516
594.983	508
597.446	468
599.908	386
602.369	320
604.829	276
607.289	256
609.747	246
612.205	210
614.663	230
617.119	234
619.574	238
622.029	244
624.483	276
626.936	278
629.389	286
631.84	316
634.291	354
636.741	332
639.19	346
641.639	290
644.086	288
646.533	252
648.979	222
651.424	236
653.869	216
656.313	214
658.754	198
661.196	188
663.638	204
666.078	188
668.518	174
670.957	178
673.394	178
675.831	188
678.268	164
680.703	172
683.137	190
685.571	172
688.005	184
690.437	184
692.868	178
695.299	182
697.729	188
700.159	162
702.586	188
705.014	196
707.441	188
709.866	208
712.292	226
714.716	262
717.14	254
719.563	230
721.984	228
724.406	222
726.825	224
729.246	198
731.665	196
734.082	208
736.5	228
738.916	230
741.332	254
743.746	288
746.161	338
748.574	350
750.987	306
753.398	302
755.81	288
758.219	252
760.629	220
763.037	204
765.445	192
767.852	194
770.258	194
772.664	204
775.068	234
777.472	206
779.876	216
782.278	226
784.679	226
787.08	200
789.48	206
791.879	204
794.278	210
796.675	194
799.072	216
801.467	206
803.864	206
806.258	212
808.651	206
811.044	230
813.437	208
815.828	234
818.218	242
820.608	262
822.997	284
825.385	372
827.773	484
830.16	808
832.546	1222
834.931	1154
837.315	682
839.699	396
842.081	322
844.463	304
846.844	270
849.226	264
851.606	276
853.985	280
856.363	252
858.741	246
861.117	224
863.493	246
865.868	230
868.243	206
870.616	216
872.989	208
875.36	204
877.731	200
880.102	198
882.472	190
884.841	208
887.209	188
889.577	190
891.944	186
894.31	190
896.674	184
899.039	186
901.403	190
903.766	192
906.128	178
908.49	174
910.849	190
913.209	192
915.569	200
917.927	184
920.284	186
922.641	204
924.997	198
927.353	198
929.707	186
932.061	198
934.414	224
936.765	218
939.117	228
941.469	250
943.818	266
946.167	300
948.515	354
950.863	440
953.211	540
955.556	738
957.902	878
960.246	960
962.59	920
964.933	804
967.276	654
969.617	568
971.958	504
974.298	384
976.638	314
978.976	262
981.314	250
983.651	240
985.988	240
988.323	226
990.659	256
992.992	226
995.325	216
997.658	244
999.99	206
1002.32	200
1004.65	206
1006.98	198
1009.31	226
1011.64	210
1013.97	216
1016.29	220
1018.62	238
1020.94	232
1023.27	256
1025.59	270
1027.91	268
1030.24	298
1032.56	310
1034.88	276
1037.2	298
1039.52	300
1041.84	270
1044.15	250
1046.47	236
1048.79	244
1051.1	216
1053.42	216
1055.73	220
1058.04	224
1060.36	222
1062.67	230
1064.98	220
1067.29	210
1069.6	216
1071.91	220
1074.22	216
1076.52	210
1078.83	206
1081.14	206
1083.44	212
1085.75	212
1088.05	212
1090.35	226
1092.65	218
1094.95	210
1097.26	238
1099.56	226
1101.86	238
1104.15	288
1106.45	410
1108.75	566
1111.05	846
1113.34	940
1115.64	728
1117.93	538
1120.22	378
1122.52	328
1124.81	294
1127.1	288
1129.39	264
1131.68	262
1133.97	238
1136.26	232
1138.54	246
1140.83	264
1143.12	268
1145.4	222
1147.69	212
1149.97	218
1152.25	236
1154.54	236
1156.82	252
1159.1	256
1161.38	294
1163.66	280
1165.94	294
1168.22	266
1170.49	252
1172.77	286
1175.05	256
1177.32	326
1179.6	366
1181.87	468
1184.14	566
1186.42	654
1188.69	606
1190.96	528
1193.23	462
1195.5	430
1197.77	450
1200.03	472
1202.3	508
1204.57	478
1206.83	458
1209.1	368
1211.36	290
1213.63	278
1215.89	274
1218.15	250
1220.41	258
1222.67	260
1224.93	292
1227.19	310
1229.45	340
1231.71	362
1233.97	304
1236.22	282
1238.48	260
1240.73	254
1242.99	228
1245.24	238
1247.5	256
1249.75	228
1252	246
1254.25	256
1256.5	228
1258.75	244
1261	238
1263.25	242
1265.49	262
1267.74	266
1269.99	254
1272.23	260
1274.48	268
1276.72	302
1278.96	338
1281.21	326
1283.45	374
1285.69	400
1287.93	418
1290.17	444
1292.41	500
1294.64	640
1296.88	804
1299.12	1140
1301.36	1640
1303.59	2082
1305.82	2284
1308.06	1934
1310.29	1356
1312.52	958
1314.76	750
1316.99	634
1319.22	558
1321.45	516
1323.68	490
1325.9	454
1328.13	476
1330.36	482
1332.58	428
1334.81	396
1337.04	348
1339.26	354
1341.48	340
1343.71	364
1345.93	352
1348.15	396
1350.37	390
1352.59	384
1354.81	386
1357.03	354
1359.24	338
1361.46	324
1363.68	338
1365.89	320
1368.11	346
1370.32	416
1372.54	544
1374.75	804
1376.96	970
1379.17	1044
1381.38	1040
1383.59	932
1385.8	726
1388.01	506
1390.22	412
1392.43	352
1394.63	314
1396.84	280
1399.05	294
1401.25	278
1403.45	272
1405.66	296
1407.86	280
1410.06	310
1412.26	328
1414.46	316
1416.66	330
1418.86	372
1421.06	396
1423.26	392
1425.46	414
1427.65	426
1429.85	436
1432.04	464
1434.24	486
1436.43	502
1438.62	524
1440.82	542
1443.01	512
1445.2	484
1447.39	460
1449.58	430
1451.77	424
1453.95	392
1456.14	408
1458.33	390
1460.52	422
1462.7	380
1464.89	396
1467.07	372
1469.25	378
1471.44	346
1473.62	368
1475.8	348
1477.98	390
1480.16	358
1482.34	348
1484.52	334
1486.7	332
1488.87	320
1491.05	312
1493.23	308
1495.4	300
1497.58	280
1499.75	282
1501.92	288
1504.1	286
1506.27	290
1508.44	290
1510.61	268
1512.78	272
1514.95	266
1517.12	300
1519.28	282
1521.45	288
1523.62	292
1525.78	286
1527.95	276
1530.11	290
1532.28	282
1534.44	292
1536.6	282
1538.76	274
1540.93	300
1543.09	292
1545.25	280
1547.41	274
1549.56	286
1551.72	288
1553.88	290
1556.03	290
1558.19	300
1560.35	288
1562.5	298
1564.65	296
1566.81	304
1568.96	316
1571.11	334
1573.26	346
1575.41	398
1577.56	372
1579.71	438
1581.86	492
1584.01	514
1586.15	606
1588.3	674
1590.45	808
1592.59	946
1594.74	1056
1596.88	1240
1599.02	1350
1601.17	1476
1603.31	1564
1605.45	1400
1607.59	1286
1609.73	1190
1611.87	996
1614.01	896
1616.14	760
1618.28	636
1620.42	548
1622.55	472
1624.69	402
1626.82	388
1628.96	348
1631.09	340
1633.22	312
1635.36	316
1637.49	292
1639.62	282
1641.75	272
1643.88	252
1646	260
1648.13	256
1650.26	254
1652.39	246
1654.51	250
1656.64	244
1658.76	236
1660.89	240
1663.01	222
1665.13	256
1667.26	244
1669.38	228
1671.5	238
1673.62	270
1675.74	238
1677.86	254
1679.97	242
1682.09	236
1684.21	242
1686.33	236
1688.44	238
1690.56	268
1692.67	266
1694.78	242
1696.9	262
1699.01	258
1701.12	262
1703.23	260
1705.34	262
1707.45	246
1709.56	258
1711.67	236
1713.78	240
1715.88	230
1717.99	230
1720.1	240
1722.2	226
1724.31	216
1726.41	228
1728.51	240
1730.62	226
1732.72	222
1734.82	214
1736.92	242
1739.02	234
1741.12	232
1743.22	220
1745.32	222
1747.42	224
1749.51	216
1751.61	224
1753.7	226
1755.8	222
1757.89	232
1759.99	204
1762.08	214
1764.17	218
1766.26	238
1768.36	236
1770.45	214
1772.54	220
1774.62	230
1776.71	230
1778.8	224
1780.89	228
1782.98	214
1785.06	224
1787.15	218
1789.23	216
1791.32	220
1793.4	210
1795.48	216
1797.56	206
1799.65	224
1801.73	230
1803.81	212
1805.89	220
1807.97	212
1810.04	228
1812.12	224
1814.2	220
1816.28	218
1818.35	216
1820.43	212
1822.5	226
1824.58	214
1826.65	240
1828.72	218
1830.79	222
1832.86	204
1834.94	220
1837.01	216
1839.08	218
1841.15	226
1843.21	202
1845.28	216
1847.35	216
1849.41	214
1851.48	224
1853.55	210
1855.61	220
1857.67	208
1859.74	218
1861.8	224
1863.86	224
1865.92	216
1867.98	226
1870.05	222
1872.1	224
1874.16	236
1876.22	222
1878.28	230
1880.34	210
1882.39	214
1884.45	230
1886.5	210
1888.56	228
1890.61	228
1892.67	216
1894.72	228
1896.77	218
1898.82	234
1900.87	206
1902.92	214
1904.97	228
1907.02	216
1909.07	218
1911.12	228
1913.17	204
1915.21	210
1917.26	214
1919.3	208
1921.35	224
1923.39	226
1925.43	228
1927.48	214
1929.52	208
1931.56	210
1933.6	242
1935.64	226
1937.68	222
1939.72	218
1941.76	222
1943.8	220
1945.83	228
1947.87	220
1949.91	218
1951.94	230
1953.98	216
1956.01	214
1958.05	210
1960.08	216
1962.11	224
1964.14	206
1966.17	210
1968.2	208
1970.23	218
1972.26	214
1974.29	228
1976.32	222
1978.35	218
1980.37	222
1982.4	216
1984.43	216
1986.45	224
1988.48	208
1990.5	212
1992.52	226
1994.55	220
1996.57	208
1998.59	200
2000.61	218
2002.63	224
2004.65	206
2006.67	222
2008.69	216
2010.7	204
2012.72	224
2014.74	240
2016.75	210
2018.77	228
2020.78	222
2022.8	222
2024.81	202
2026.83	208
2028.84	206
2030.85	214
2032.86	224
2034.87	226
2036.88	214
2038.89	214
2040.9	208
2042.91	216
2044.91	204
2046.92	222
2048.93	226
2050.93	224
2052.94	214
2054.94	200
2056.95	226
2058.95	206
2060.95	222
2062.95	224
2064.96	218
2066.96	214
2068.96	224
2070.96	236
2072.96	222
2074.95	224
2076.95	240
2078.95	210
2080.95	218
2082.94	212
2084.94	216
2086.93	226
2088.93	214
2090.92	206
2092.91	220
2094.91	210
2096.9	214
2098.89	230
2100.88	228
2102.87	220
2104.86	216
2106.85	218
2108.84	194
2110.83	224
2112.81	212
2114.8	210
2116.78	222
2118.77	224
2120.75	226
2122.74	228
2124.72	228
2126.71	230
2128.69	210
2130.67	214
2132.65	222
2134.63	218
2136.61	220
2138.59	208
2140.57	218
2142.55	222
2144.53	198
2146.5	218
2148.48	208
2150.46	208
2152.43	212
2154.41	210
2156.38	216
2158.35	224
2160.33	226
2162.3	208
2164.27	226
2166.24	214
2168.21	208
2170.18	208
2172.15	202
2174.12	224
2176.09	218
2178.06	230
2180.03	214
2181.99	212
2183.96	222
2185.92	218
2187.89	218
2189.85	216
2191.82	230
2193.78	220
2195.74	202
2197.7	230
2199.67	212
2201.63	206
2203.59	196
2205.55	218
2207.51	222
2209.46	214
2211.42	220
2213.38	196
2215.34	218
2217.29	212
2219.25	202
2221.2	224
2223.16	212
2225.11	214
2227.06	210
2229.02	196
2230.97	216
2232.92	208
2234.87	204
2236.82	244
2238.77	208
2240.72	228
2242.67	214
2244.62	210
2246.57	216
2248.51	228
2250.46	226
2252.4	212
2254.35	214
2256.29	206
2258.24	202
2260.18	220
2262.13	216
2264.07	210
2266.01	226
2267.95	210
2269.89	224
2271.83	220
2273.77	208
2275.71	220
2277.65	232
2279.58	210
2281.52	226
2283.46	222
2285.4	230
2287.33	216
2289.27	226
2291.2	232
2293.13	226
2295.07	202
2297	218
2298.93	220
2300.86	226
2302.79	216
2304.72	210
2306.65	208
2308.58	214
2310.51	230
2312.44	208
2314.37	238
2316.29	234
2318.22	224
2320.15	230
2322.07	232
2324	242
2325.92	216
2327.84	226
2329.77	222
2331.69	218
2333.61	218
2335.53	204
2337.45	224
2339.37	208
2341.29	212
2343.21	222
2345.13	240
2347.05	216
2348.97	214
2350.88	222
2352.8	214
2354.71	210
2356.63	222
2358.54	212
2360.46	208
2362.37	218
2364.28	208
2366.2	208
2368.11	218
2370.02	232
2371.93	232
2373.84	200
2375.75	210
2377.66	212
2379.57	218
2381.47	226
2383.38	218
2385.29	222
2387.2	200
2389.1	212
2391.01	226
2392.91	218
2394.81	226
2396.72	226
2398.62	226
2400.52	238
2402.42	210
2404.33	220
2406.23	230
2408.13	220
2410.03	228
2411.92	224
2413.82	228
2415.72	212
2417.62	208
2419.51	216
2421.41	212
2423.31	214
2425.2	224
2427.1	210
2428.99	218
2430.88	200
2432.78	198
2434.67	210
2436.56	224
2438.45	206
2440.34	216
2442.23	220
2444.12	198
2446.01	206
2447.9	210
2449.79	226