File: Jesse_Dataset_v2/Pure Raman/Polypropylene oxide/633nm/ps-ppo-7jan25-0,0000-map2_Y04_X09.txt
182.393	720
184.993	672
187.593	642
190.193	624
192.79	586
195.387	600
197.983	554
200.578	498
203.174	526
205.766	510
208.36	474
210.951	482
213.542	464
216.131	462
218.721	478
221.309	516
223.897	620
226.483	752
229.069	934
231.654	1162
234.238	1296
236.821	1296
239.404	1166
241.984	1012
244.566	914
247.145	758
249.723	652
252.302	552
254.878	484
257.455	434
260.03	378
262.604	334
265.178	338
267.75	302
270.322	290
272.893	296
275.463	282
278.032	298
280.601	302
283.168	316
285.734	386
288.301	478
290.866	540
293.429	606
295.992	612
298.556	592
301.117	588
303.677	510
306.236	450
308.795	446
311.354	404
313.911	378
316.467	378
319.022	380
321.577	378
324.13	388
326.684	372
329.236	398
331.787	396
334.337	404
336.887	398
339.435	396
341.983	366
344.529	368
347.075	356
349.621	350
352.165	372
354.708	362
357.251	382
359.793	356
362.334	380
364.874	348
367.413	344
369.951	344
372.489	328
375.026	346
377.562	316
380.097	312
382.631	314
385.164	272
387.697	250
390.229	262
392.76	246
395.29	256
397.819	254
400.346	242
402.873	262
405.4	270
407.926	304
410.451	334
412.976	382
415.499	364
418.02	364
420.542	326
423.063	302
425.583	260
428.101	248
430.619	220
433.137	210
435.654	222
438.169	200
440.684	182
443.198	202
445.712	182
448.223	186
450.735	174
453.246	170
455.755	182
458.264	186
460.771	204
463.279	200
465.786	208
468.291	254
470.796	276
473.301	322
475.803	360
478.306	406
480.807	458
483.308	524
485.807	472
488.307	436
490.804	390
493.302	328
495.798	264
498.294	252
500.788	238
503.283	224
505.775	258
508.269	274
510.759	298
513.251	428
515.74	408
518.23	344
520.718	320
523.204	306
525.692	358
528.177	414
530.663	528
533.147	602
535.629	716
538.113	796
540.594	772
543.074	718
545.555	556
548.034	502
550.512	406
552.989	408
555.467	454
557.942	528
560.417	686
562.892	1038
565.365	1656
567.838	2702
570.309	3738
572.78	3742
575.251	2644
577.72	1566
580.189	950
582.656	702
585.123	634
587.589	588
590.055	560
592.52	542
594.983	494
597.446	446
599.908	400
602.369	342
604.829	284
607.289	260
609.747	232
612.205	218
614.663	220
617.119	242
619.574	248
622.029	250
624.483	266
626.936	284
629.389	298
631.84	334
634.291	352
636.741	362
639.19	316
641.639	304
644.086	282
646.533	270
648.979	246
651.424	218
653.869	220
656.313	212
658.754	206
661.196	218
663.638	182
666.078	192
668.518	192
670.957	190
673.394	180
675.831	178
678.268	168
680.703	178
683.137	192
685.571	168
688.005	184
690.437	180
692.868	188
695.299	158
697.729	184
700.159	180
702.586	170
705.014	188
707.441	192
709.866	212
712.292	242
714.716	256
717.14	264
719.563	248
721.984	220
724.406	222
726.825	220
729.246	216
731.665	212
734.082	214
736.5	238
738.916	240
741.332	262
743.746	284
746.161	340
748.574	356
750.987	344
753.398	304
755.81	280
758.219	258
760.629	224
763.037	216
765.445	208
767.852	202
770.258	204
772.664	212
775.068	230
777.472	246
779.876	250
782.278	228
784.679	222
787.08	216
789.48	212
791.879	208
794.278	186
796.675	190
799.072	198
801.467	204
803.864	210
806.258	226
808.651	214
811.044	230
813.437	240
815.828	224
818.218	224
820.608	248
822.997	280
825.385	352
827.773	498
830.16	806
832.546	1186
834.931	1114
837.315	690
839.699	396
842.081	328
844.463	276
846.844	270
849.226	260
851.606	282
853.985	264
856.363	250
858.741	252
861.117	250
863.493	232
865.868	212
868.243	210
870.616	220
872.989	208
875.36	202
877.731	198
880.102	180
882.472	204
884.841	188
887.209	194
889.577	198
891.944	180
894.31	190
896.674	184
899.039	190
901.403	192
903.766	192
906.128	194
908.49	190
910.849	188
913.209	194
915.569	188
917.927	186
920.284	188
922.641	202
924.997	206
927.353	200
929.707	186
932.061	208
934.414	208
936.765	222
939.117	242
941.469	246
943.818	264
946.167	296
948.515	358
950.863	432
953.211	554
955.556	696
957.902	846
960.246	948
962.59	900
964.933	784
967.276	676
969.617	584
971.958	470
974.298	378
976.638	314
978.976	274
981.314	266
983.651	238
985.988	228
988.323	236
990.659	254
992.992	252
995.325	230
997.658	212
999.99	222
1002.32	210
1004.65	208
1006.98	222
1009.31	216
1011.64	222
1013.97	220
1016.29	222
1018.62	254
1020.94	242
1023.27	282
1025.59	268
1027.91	286
1030.24	272
1032.56	300
1034.88	302
1037.2	278
1039.52	308
1041.84	266
1044.15	260
1046.47	248
1048.79	252
1051.1	226
1053.42	224
1055.73	220
1058.04	220
1060.36	222
1062.67	224
1064.98	222
1067.29	208
1069.6	214
1071.91	218
1074.22	214
1076.52	210
1078.83	224
1081.14	224
1083.44	230
1085.75	222
1088.05	214
1090.35	234
1092.65	226
1094.95	230
1097.26	218
1099.56	222
1101.86	262
1104.15	296
1106.45	388
1108.75	600
1111.05	830
1113.34	908
1115.64	742
1117.93	510
1120.22	384
1122.52	328
1124.81	300
1127.1	288
1129.39	262
1131.68	254
1133.97	264
1136.26	260
1138.54	254
1140.83	270
1143.12	282
1145.4	242
1147.69	256
1149.97	244
1152.25	244
1154.54	252
1156.82	254
1159.1	270
1161.38	286
1163.66	274
1165.94	286
1168.22	270
1170.49	266
1172.77	284
1175.05	274
1177.32	350
1179.6	378
1181.87	446
1184.14	580
1186.42	632
1188.69	612
1190.96	504
1193.23	470
1195.5	416
1197.77	446
1200.03	462
1202.3	478
1204.57	490
1206.83	458
1209.1	378
1211.36	296
1213.63	278
1215.89	264
1218.15	244
1220.41	254
1222.67	272
1224.93	272
1227.19	340
1229.45	354
1231.71	368
1233.97	326
1236.22	308
1238.48	250
1240.73	262
1242.99	238
1245.24	220
1247.5	238
1249.75	240
1252	240
1254.25	250
1256.5	250
1258.75	258
1261	236
1263.25	256
1265.49	260
1267.74	272
1269.99	258
1272.23	268
1274.48	292
1276.72	296
1278.96	324
1281.21	328
1283.45	358
1285.69	386
1287.93	396
1290.17	470
1292.41	516
1294.64	612
1296.88	788
1299.12	1138
1301.36	1574
1303.59	2036
1305.82	2246
1308.06	1878
1310.29	1378
1312.52	900
1314.76	760
1316.99	626
1319.22	576
1321.45	532
1323.68	502
1325.9	480
1328.13	472
1330.36	488
1332.58	418
1334.81	388
1337.04	356
1339.26	348
1341.48	346
1343.71	354
1345.93	366
1348.15	398
1350.37	406
1352.59	390
1354.81	380
1357.03	374
1359.24	340
1361.46	330
1363.68	322
1365.89	362
1368.11	352
1370.32	418
1372.54	552
1374.75	772
1376.96	1018
1379.17	1070
1381.38	1082
1383.59	946
1385.8	776
1388.01	550
1390.22	406
1392.43	342
1394.63	310
1396.84	304
1399.05	266
1401.25	290
1403.45	326
1405.66	298
1407.86	282
1410.06	288
1412.26	306
1414.46	332
1416.66	334
1418.86	356
1421.06	388
1423.26	408
1425.46	448
1427.65	414
1429.85	436
1432.04	460
1434.24	444
1436.43	514
1438.62	548
1440.82	518
1443.01	494
1445.2	518
1447.39	440
1449.58	414
1451.77	426
1453.95	414
1456.14	382
1458.33	400
1460.52	394
1462.7	384
1464.89	392
1467.07	366
1469.25	358
1471.44	386
1473.62	360
1475.8	358
1477.98	366
1480.16	380
1482.34	364
1484.52	346
1486.7	304
1488.87	304
1491.05	318
1493.23	298
1495.4	324
1497.58	298
1499.75	290
1501.92	302
1504.1	308
1506.27	286
1508.44	320
1510.61	288
1512.78	282
1514.95	300
1517.12	280
1519.28	282
1521.45	286
1523.62	308
1525.78	286
1527.95	280
1530.11	296
1532.28	282
1534.44	278
1536.6	296
1538.76	288
1540.93	300
1543.09	292
1545.25	286
1547.41	292
1549.56	286
1551.72	304
1553.88	306
1556.03	310
1558.19	290
1560.35	318
1562.5	298
1564.65	280
1566.81	308
1568.96	320
1571.11	356
1573.26	342
1575.41	376
1577.56	420
1579.71	444
1581.86	456
1584.01	540
1586.15	592
1588.3	672
1590.45	756
1592.59	888
1594.74	1070
1596.88	1242
1599.02	1358
1601.17	1494
1603.31	1492
1605.45	1418
1607.59	1282
1609.73	1148
1611.87	1002
1614.01	854
1616.14	756
1618.28	630
1620.42	526
1622.55	470
1624.69	388
1626.82	386
1628.96	342
1631.09	318
1633.22	312
1635.36	318
1637.49	292
1639.62	296
1641.75	288
1643.88	268
1646	278
1648.13	256
1650.26	260
1652.39	258
1654.51	256
1656.64	246
1658.76	244
1660.89	256
1663.01	242
1665.13	242
1667.26	240
1669.38	236
1671.5	272
1673.62	242
1675.74	264
1677.86	250
1679.97	236
1682.09	228
1684.21	248
1686.33	256
1688.44	262
1690.56	268
1692.67	252
1694.78	264
1696.9	258
1699.01	260
1701.12	246
1703.23	278
1705.34	272
1707.45	240
1709.56	254
1711.67	254
1713.78	256
1715.88	242
1717.99	248
1720.1	226
1722.2	238
1724.31	252
1726.41	240
1728.51	228
1730.62	218
1732.72	224
1734.82	206
1736.92	232
1739.02	228
1741.12	246
1743.22	234
1745.32	236
1747.42	236
1749.51	226
1751.61	228
1753.7	216
1755.8	238
1757.89	220
1759.99	216
1762.08	228
1764.17	222
1766.26	244
1768.36	228
1770.45	220
1772.54	222
1774.62	220
1776.71	212
1778.8	232
1780.89	218
1782.98	228
1785.06	236
1787.15	230
1789.23	210
1791.32	230
1793.4	218
1795.48	230
1797.56	224
1799.65	238
1801.73	210
1803.81	216
1805.89	212
1807.97	220
1810.04	218
1812.12	204
1814.2	236
1816.28	216
1818.35	230
1820.43	216
1822.5	232
1824.58	250
1826.65	218
1828.72	228
1830.79	228
1832.86	224
1834.94	234
1837.01	248
1839.08	232
1841.15	222
1843.21	248
1845.28	226
1847.35	222
1849.41	232
1851.48	230
1853.55	216
1855.61	226
1857.67	222
1859.74	212
1861.8	232
1863.86	234
1865.92	238
1867.98	232
1870.05	230
1872.1	220
1874.16	238
1876.22	244
1878.28	236
1880.34	216
1882.39	240
1884.45	222
1886.5	208
1888.56	234
1890.61	234
1892.67	226
1894.72	222
1896.77	226
1898.82	218
1900.87	224
1902.92	216
1904.97	232
1907.02	212
1909.07	210
1911.12	246
1913.17	212
1915.21	218
1917.26	226
1919.3	232
1921.35	246
1923.39	222
1925.43	214
1927.48	220
1929.52	228
1931.56	214
1933.6	238
1935.64	206
1937.68	216
1939.72	238
1941.76	236
1943.8	234
1945.83	216
1947.87	224
1949.91	228
1951.94	224
1953.98	228
1956.01	218
1958.05	222
1960.08	226
1962.11	244
1964.14	218
1966.17	240
1968.2	210
1970.23	228
1972.26	206
1974.29	216
1976.32	234
1978.35	228
1980.37	214
1982.4	228
1984.43	236
1986.45	228
1988.48	228
1990.5	216
1992.52	226
1994.55	226
1996.57	226
1998.59	210
2000.61	224
2002.63	250
2004.65	228
2006.67	230
2008.69	230
2010.7	238
2012.72	228
2014.74	228
2016.75	222
2018.77	248
2020.78	226
2022.8	214
2024.81	240
2026.83	230
2028.84	222
2030.85	224
2032.86	218
2034.87	240
2036.88	218
2038.89	226
2040.9	228
2042.91	232
2044.91	208
2046.92	222
2048.93	234
2050.93	216
2052.94	202
2054.94	214
2056.95	230
2058.95	222
2060.95	216
2062.95	228
2064.96	220
2066.96	238
2068.96	232
2070.96	214
2072.96	222
2074.95	208
2076.95	226
2078.95	216
2080.95	224
2082.94	230
2084.94	212
2086.93	226
2088.93	226
2090.92	218
2092.91	214
2094.91	240
2096.9	220
2098.89	218
2100.88	226
2102.87	228
2104.86	200
2106.85	208
2108.84	222
2110.83	226
2112.81	208
2114.8	212
2116.78	234
2118.77	214
2120.75	218
2122.74	224
2124.72	220
2126.71	246
2128.69	246
2130.67	240
2132.65	222
2134.63	214
2136.61	238
2138.59	236
2140.57	210
2142.55	200
2144.53	210
2146.5	220
2148.48	218
2150.46	208
2152.43	226
2154.41	206
2156.38	220
2158.35	228
2160.33	206
2162.3	236
2164.27	222
2166.24	228
2168.21	214
2170.18	210
2172.15	214
2174.12	212
2176.09	216
2178.06	218
2180.03	226
2181.99	212
2183.96	212
2185.92	216
2187.89	222
2189.85	216
2191.82	224
2193.78	220
2195.74	228
2197.7	216
2199.67	210
2201.63	210
2203.59	220
2205.55	232
2207.51	236
2209.46	206
2211.42	218
2213.38	220
2215.34	222
2217.29	224
2219.25	234
2221.2	224
2223.16	210
2225.11	226
2227.06	198
2229.02	226
2230.97	222
2232.92	224
2234.87	226
2236.82	210
2238.77	238
2240.72	214
2242.67	208
2244.62	228
2246.57	226
2248.51	214
2250.46	226
2252.4	240
2254.35	202
2256.29	210
2258.24	212
2260.18	204
2262.13	200
2264.07	218
2266.01	204
2267.95	228
2269.89	212
2271.83	226
2273.77	232
2275.71	236
2277.65	222
2279.58	228
2281.52	212
2283.46	222
2285.4	208
2287.33	220
2289.27	214
2291.2	224
2293.13	238
2295.07	232
2297	220
2298.93	226
2300.86	232
2302.79	236
2304.72	230
2306.65	232
2308.58	214
2310.51	214
2312.44	234
2314.37	244
2316.29	236
2318.22	226
2320.15	224
2322.07	220
2324	230
2325.92	220
2327.84	222
2329.77	224
2331.69	232
2333.61	230
2335.53	244
2337.45	220
2339.37	222
2341.29	230
2343.21	214
2345.13	230
2347.05	240
2348.97	230
2350.88	226
2352.8	224
2354.71	212
2356.63	214
2358.54	222
2360.46	234
2362.37	224
2364.28	224
2366.2	228
2368.11	216
2370.02	224
2371.93	232
2373.84	198
2375.75	216
2377.66	208
2379.57	230
2381.47	232
2383.38	226
2385.29	230
2387.2	220
2389.1	216
2391.01	226
2392.91	232
2394.81	242
2396.72	232
2398.62	218
2400.52	222
2402.42	220
2404.33	236
2406.23	228
2408.13	232
2410.03	228
2411.92	230
2413.82	214
2415.72	232
2417.62	210
2419.51	228
2421.41	220
2423.31	210
2425.2	212
2427.1	210
2428.99	198
2430.88	208
2432.78	224
2434.67	250
2436.56	212
2438.45	214
2440.34	224
2442.23	214
2444.12	216
2446.01	232
2447.9	224
2449.79	220