File: Jesse_Dataset_v2/Pure Raman/Polypropylene oxide/633nm/ps-ppo-7jan25-0,0000-map2_Y10_X06.txt
182.393	638
184.993	646
187.593	650
190.193	578
192.79	566
195.387	542
197.983	530
200.578	510
203.174	492
205.766	474
208.36	478
210.951	424
213.542	460
216.131	430
218.721	476
221.309	470
223.897	556
226.483	696
229.069	898
231.654	1068
234.238	1222
236.821	1222
239.404	1094
241.984	980
244.566	862
247.145	726
249.723	620
252.302	498
254.878	464
257.455	380
260.03	344
262.604	328
265.178	302
267.75	292
270.322	270
272.893	260
275.463	248
278.032	282
280.601	296
283.168	320
285.734	360
288.301	406
290.866	498
293.429	582
295.992	570
298.556	590
301.117	522
303.677	480
306.236	452
308.795	416
311.354	376
313.911	362
316.467	368
319.022	338
321.577	358
324.13	348
326.684	350
329.236	370
331.787	380
334.337	392
336.887	370
339.435	388
341.983	346
344.529	344
347.075	358
349.621	344
352.165	324
354.708	334
357.251	346
359.793	314
362.334	320
364.874	308
367.413	308
369.951	326
372.489	320
375.026	320
377.562	316
380.097	266
382.631	260
385.164	258
387.697	240
390.229	238
392.76	214
395.29	220
397.819	210
400.346	246
402.873	218
405.4	270
407.926	260
410.451	312
412.976	336
415.499	352
418.02	330
420.542	304
423.063	272
425.583	238
428.101	242
430.619	204
433.137	198
435.654	178
438.169	184
440.684	182
443.198	172
445.712	180
448.223	162
450.735	162
453.246	164
455.755	168
458.264	168
460.771	166
463.279	178
465.786	194
468.291	226
470.796	260
473.301	296
475.803	338
478.306	392
480.807	428
483.308	442
485.807	458
488.307	444
490.804	342
493.302	308
495.798	264
498.294	232
500.788	198
503.283	220
505.775	216
508.269	248
510.759	316
513.251	374
515.74	368
518.23	286
520.718	294
523.204	286
525.692	312
528.177	376
530.663	440
533.147	566
535.629	678
538.113	742
540.594	762
543.074	680
545.555	546
548.034	422
550.512	362
552.989	370
555.467	408
557.942	484
560.417	654
562.892	934
565.365	1548
567.838	2562
570.309	3542
572.78	3568
575.251	2594
577.72	1518
580.189	928
582.656	668
585.123	624
587.589	568
590.055	546
592.52	466
594.983	482
597.446	440
599.908	388
602.369	312
604.829	274
607.289	242
609.747	226
612.205	216
614.663	210
617.119	210
619.574	212
622.029	230
624.483	230
626.936	262
629.389	268
631.84	280
634.291	306
636.741	302
639.19	310
641.639	278
644.086	274
646.533	258
648.979	232
651.424	206
653.869	200
656.313	196
658.754	196
661.196	180
663.638	182
666.078	178
668.518	158
670.957	182
673.394	178
675.831	154
678.268	158
680.703	170
683.137	170
685.571	172
688.005	174
690.437	166
692.868	164
695.299	160
697.729	178
700.159	158
702.586	172
705.014	180
707.441	196
709.866	194
712.292	230
714.716	236
717.14	242
719.563	214
721.984	208
724.406	190
726.825	182
729.246	196
731.665	190
734.082	196
736.5	226
738.916	212
741.332	238
743.746	266
746.161	286
748.574	336
750.987	292
753.398	284
755.81	278
758.219	238
760.629	212
763.037	190
765.445	196
767.852	184
770.258	198
772.664	190
775.068	216
777.472	206
779.876	210
782.278	202
784.679	190
787.08	206
789.48	208
791.879	186
794.278	202
796.675	178
799.072	164
801.467	186
803.864	194
806.258	214
808.651	210
811.044	208
813.437	224
815.828	216
818.218	196
820.608	230
822.997	278
825.385	332
827.773	452
830.16	764
832.546	1098
834.931	1124
837.315	656
839.699	408
842.081	280
844.463	274
846.844	268
849.226	270
851.606	244
853.985	234
856.363	226
858.741	218
861.117	226
863.493	206
865.868	198
868.243	218
870.616	196
872.989	196
875.36	180
877.731	182
880.102	190
882.472	190
884.841	176
887.209	190
889.577	174
891.944	178
894.31	174
896.674	178
899.039	172
901.403	180
903.766	180
906.128	188
908.49	178
910.849	184
913.209	162
915.569	166
917.927	178
920.284	176
922.641	186
924.997	184
927.353	198
929.707	184
932.061	180
934.414	204
936.765	204
939.117	204
941.469	224
943.818	256
946.167	288
948.515	330
950.863	400
953.211	508
955.556	670
957.902	856
960.246	904
962.59	878
964.933	760
967.276	618
969.617	494
971.958	458
974.298	348
976.638	304
978.976	266
981.314	238
983.651	230
985.988	222
988.323	226
990.659	212
992.992	206
995.325	218
997.658	204
999.99	200
1002.32	186
1004.65	192
1006.98	200
1009.31	206
1011.64	218
1013.97	212
1016.29	238
1018.62	216
1020.94	232
1023.27	236
1025.59	252
1027.91	262
1030.24	268
1032.56	276
1034.88	284
1037.2	272
1039.52	276
1041.84	234
1044.15	246
1046.47	244
1048.79	220
1051.1	230
1053.42	210
1055.73	196
1058.04	200
1060.36	196
1062.67	206
1064.98	210
1067.29	194
1069.6	180
1071.91	194
1074.22	200
1076.52	172
1078.83	208
1081.14	200
1083.44	210
1085.75	208
1088.05	216
1090.35	200
1092.65	212
1094.95	198
1097.26	222
1099.56	198
1101.86	244
1104.15	278
1106.45	354
1108.75	518
1111.05	784
1113.34	890
1115.64	732
1117.93	502
1120.22	356
1122.52	310
1124.81	270
1127.1	262
1129.39	260
1131.68	242
1133.97	242
1136.26	248
1138.54	220
1140.83	244
1143.12	250
1145.4	236
1147.69	228
1149.97	198
1152.25	208
1154.54	218
1156.82	238
1159.1	254
1161.38	274
1163.66	262
1165.94	282
1168.22	254
1170.49	256
1172.77	264
1175.05	264
1177.32	304
1179.6	338
1181.87	426
1184.14	568
1186.42	614
1188.69	606
1190.96	500
1193.23	430
1195.5	412
1197.77	422
1200.03	418
1202.3	454
1204.57	448
1206.83	428
1209.1	342
1211.36	276
1213.63	268
1215.89	254
1218.15	238
1220.41	222
1222.67	254
1224.93	262
1227.19	306
1229.45	318
1231.71	342
1233.97	278
1236.22	282
1238.48	250
1240.73	244
1242.99	224
1245.24	230
1247.5	212
1249.75	206
1252	238
1254.25	228
1256.5	216
1258.75	226
1261	238
1263.25	232
1265.49	236
1267.74	238
1269.99	252
1272.23	256
1274.48	258
1276.72	262
1278.96	288
1281.21	312
1283.45	338
1285.69	360
1287.93	400
1290.17	438
1292.41	468
1294.64	582
1296.88	748
1299.12	1016
1301.36	1484
1303.59	2004
1305.82	2134
1308.06	1800
1310.29	1332
1312.52	966
1314.76	698
1316.99	590
1319.22	514
1321.45	456
1323.68	472
1325.9	438
1328.13	430
1330.36	448
1332.58	396
1334.81	348
1337.04	318
1339.26	320
1341.48	338
1343.71	336
1345.93	354
1348.15	342
1350.37	384
1352.59	362
1354.81	360
1357.03	344
1359.24	294
1361.46	306
1363.68	294
1365.89	328
1368.11	342
1370.32	380
1372.54	514
1374.75	706
1376.96	914
1379.17	1042
1381.38	994
1383.59	902
1385.8	698
1388.01	532
1390.22	400
1392.43	336
1394.63	320
1396.84	270
1399.05	272
1401.25	270
1403.45	270
1405.66	272
1407.86	280
1410.06	270
1412.26	288
1414.46	300
1416.66	338
1418.86	346
1421.06	368
1423.26	396
1425.46	400
1427.65	398
1429.85	404
1432.04	406
1434.24	464
1436.43	462
1438.62	474
1440.82	510
1443.01	438
1445.2	482
1447.39	444
1449.58	386
1451.77	432
1453.95	384
1456.14	364
1458.33	360
1460.52	384
1462.7	368
1464.89	366
1467.07	360
1469.25	366
1471.44	356
1473.62	358
1475.8	348
1477.98	338
1480.16	342
1482.34	344
1484.52	304
1486.7	302
1488.87	296
1491.05	288
1493.23	292
1495.4	306
1497.58	298
1499.75	264
1501.92	266
1504.1	284
1506.27	272
1508.44	270
1510.61	256
1512.78	264
1514.95	268
1517.12	276
1519.28	250
1521.45	264
1523.62	256
1525.78	278
1527.95	262
1530.11	270
1532.28	266
1534.44	278
1536.6	262
1538.76	268
1540.93	262
1543.09	278
1545.25	276
1547.41	274
1549.56	280
1551.72	268
1553.88	278
1556.03	296
1558.19	278
1560.35	272
1562.5	308
1564.65	304
1566.81	290
1568.96	316
1571.11	342
1573.26	326
1575.41	360
1577.56	354
1579.71	400
1581.86	448
1584.01	520
1586.15	536
1588.3	656
1590.45	752
1592.59	856
1594.74	1034
1596.88	1156
1599.02	1336
1601.17	1402
1603.31	1446
1605.45	1344
1607.59	1204
1609.73	1122
1611.87	958
1614.01	874
1616.14	728
1618.28	634
1620.42	544
1622.55	450
1624.69	410
1626.82	348
1628.96	314
1631.09	308
1633.22	284
1635.36	290
1637.49	284
1639.62	270
1641.75	250
1643.88	264
1646	264
1648.13	232
1650.26	260
1652.39	242
1654.51	234
1656.64	232
1658.76	234
1660.89	234
1663.01	218
1665.13	240
1667.26	218
1669.38	230
1671.5	214
1673.62	226
1675.74	222
1677.86	228
1679.97	242
1682.09	214
1684.21	236
1686.33	258
1688.44	256
1690.56	224
1692.67	250
1694.78	240
1696.9	232
1699.01	238
1701.12	254
1703.23	220
1705.34	246
1707.45	246
1709.56	238
1711.67	248
1713.78	226
1715.88	230
1717.99	228
1720.1	222
1722.2	212
1724.31	244
1726.41	224
1728.51	226
1730.62	218
1732.72	252
1734.82	214
1736.92	218
1739.02	218
1741.12	206
1743.22	214
1745.32	218
1747.42	220
1749.51	218
1751.61	196
1753.7	220
1755.8	212
1757.89	210
1759.99	200
1762.08	218
1764.17	214
1766.26	216
1768.36	210
1770.45	214
1772.54	214
1774.62	210
1776.71	220
1778.8	216
1780.89	218
1782.98	216
1785.06	214
1787.15	220
1789.23	224
1791.32	200
1793.4	214
1795.48	218
1797.56	210
1799.65	214
1801.73	210
1803.81	216
1805.89	208
1807.97	206
1810.04	208
1812.12	198
1814.2	200
1816.28	210
1818.35	214
1820.43	206
1822.5	200
1824.58	208
1826.65	212
1828.72	202
1830.79	212
1832.86	204
1834.94	210
1837.01	222
1839.08	212
1841.15	216
1843.21	220
1845.28	220
1847.35	216
1849.41	208
1851.48	216
1853.55	208
1855.61	198
1857.67	216
1859.74	216
1861.8	224
1863.86	204
1865.92	210
1867.98	226
1870.05	216
1872.1	202
1874.16	210
1876.22	206
1878.28	206
1880.34	196
1882.39	214
1884.45	216
1886.5	224
1888.56	206
1890.61	216
1892.67	202
1894.72	204
1896.77	210
1898.82	208
1900.87	220
1902.92	202
1904.97	214
1907.02	216
1909.07	212
1911.12	220
1913.17	212
1915.21	206
1917.26	210
1919.3	214
1921.35	210
1923.39	222
1925.43	214
1927.48	218
1929.52	208
1931.56	218
1933.6	206
1935.64	210
1937.68	194
1939.72	208
1941.76	214
1943.8	228
1945.83	220
1947.87	226
1949.91	204
1951.94	222
1953.98	188
1956.01	200
1958.05	206
1960.08	206
1962.11	216
1964.14	204
1966.17	214
1968.2	214
1970.23	218
1972.26	224
1974.29	204
1976.32	212
1978.35	206
1980.37	216
1982.4	210
1984.43	212
1986.45	198
1988.48	204
1990.5	204
1992.52	216
1994.55	200
1996.57	224
1998.59	200
2000.61	226
2002.63	222
2004.65	218
2006.67	214
2008.69	198
2010.7	206
2012.72	212
2014.74	216
2016.75	214
2018.77	228
2020.78	210
2022.8	204
2024.81	204
2026.83	220
2028.84	230
2030.85	206
2032.86	234
2034.87	206
2036.88	202
2038.89	220
2040.9	210
2042.91	224
2044.91	216
2046.92	208
2048.93	220
2050.93	226
2052.94	216
2054.94	198
2056.95	216
2058.95	224
2060.95	212
2062.95	210
2064.96	220
2066.96	198
2068.96	210
2070.96	210
2072.96	202
2074.95	226
2076.95	206
2078.95	208
2080.95	218
2082.94	214
2084.94	202
2086.93	200
2088.93	218
2090.92	220
2092.91	222
2094.91	194
2096.9	216
2098.89	218
2100.88	214
2102.87	214
2104.86	198
2106.85	222
2108.84	222
2110.83	216
2112.81	236
2114.8	218
2116.78	216
2118.77	214
2120.75	206
2122.74	218
2124.72	198
2126.71	218
2128.69	212
2130.67	218
2132.65	212
2134.63	216
2136.61	218
2138.59	224
2140.57	224
2142.55	208
2144.53	214
2146.5	210
2148.48	216
2150.46	220
2152.43	210
2154.41	218
2156.38	216
2158.35	228
2160.33	214
2162.3	218
2164.27	216
2166.24	208
2168.21	190
2170.18	198
2172.15	198
2174.12	214
2176.09	202
2178.06	192
2180.03	218
2181.99	218
2183.96	214
2185.92	208
2187.89	218
2189.85	204
2191.82	212
2193.78	182
2195.74	216
2197.7	196
2199.67	212
2201.63	210
2203.59	206
2205.55	208
2207.51	226
2209.46	210
2211.42	208
2213.38	216
2215.34	222
2217.29	204
2219.25	208
2221.2	200
2223.16	198
2225.11	210
2227.06	232
2229.02	212
2230.97	222
2232.92	218
2234.87	208
2236.82	218
2238.77	208
2240.72	216
2242.67	218
2244.62	216
2246.57	214
2248.51	204
2250.46	214
2252.4	220
2254.35	216
2256.29	204
2258.24	206
2260.18	220
2262.13	242
2264.07	218
2266.01	224
2267.95	222
2269.89	214
2271.83	226
2273.77	216
2275.71	222
2277.65	208
2279.58	216
2281.52	214
2283.46	208
2285.4	206
2287.33	212
2289.27	212
2291.2	224
2293.13	228
2295.07	220
2297	220
2298.93	218
2300.86	214
2302.79	224
2304.72	226
2306.65	230
2308.58	220
2310.51	250
2312.44	206
2314.37	220
2316.29	236
2318.22	218
2320.15	220
2322.07	238
2324	230
2325.92	218
2327.84	222
2329.77	236
2331.69	210
2333.61	224
2335.53	226
2337.45	216
2339.37	226
2341.29	210
2343.21	224
2345.13	194
2347.05	208
2348.97	228
2350.88	216
2352.8	216
2354.71	228
2356.63	230
2358.54	208
2360.46	220
2362.37	218
2364.28	218
2366.2	222
2368.11	216
2370.02	214
2371.93	214
2373.84	214
2375.75	214
2377.66	208
2379.57	208
2381.47	202
2383.38	208
2385.29	224
2387.2	216
2389.1	224
2391.01	222
2392.91	224
2394.81	236
2396.72	198
2398.62	212
2400.52	230
2402.42	230
2404.33	236
2406.23	224
2408.13	210
2410.03	218
2411.92	206
2413.82	230
2415.72	212
2417.62	226
2419.51	218
2421.41	234
2423.31	202
2425.2	222
2427.1	222
2428.99	214
2430.88	212
2432.78	220
2434.67	216
2436.56	214
2438.45	196
2440.34	202
2442.23	224
2444.12	206
2446.01	234
2447.9	226
2449.79	224