File: Jesse_Dataset_v2/Pure Raman/Polypropylene oxide/633nm/ps-ppo-7jan25-0,0000-map2_Y08_X04.txt
182.393	694
184.993	676
187.593	646
190.193	614
192.79	586
195.387	548
197.983	524
200.578	512
203.174	508
205.766	496
208.36	500
210.951	468
213.542	414
216.131	446
218.721	462
221.309	490
223.897	592
226.483	718
229.069	910
231.654	1144
234.238	1206
236.821	1204
239.404	1166
241.984	982
244.566	858
247.145	746
249.723	634
252.302	526
254.878	452
257.455	418
260.03	352
262.604	308
265.178	304
267.75	284
270.322	280
272.893	280
275.463	286
278.032	276
280.601	276
283.168	322
285.734	368
288.301	442
290.866	504
293.429	598
295.992	634
298.556	568
301.117	572
303.677	496
306.236	468
308.795	386
311.354	414
313.911	382
316.467	356
319.022	352
321.577	348
324.13	368
326.684	338
329.236	384
331.787	378
334.337	394
336.887	376
339.435	364
341.983	370
344.529	356
347.075	348
349.621	322
352.165	362
354.708	344
357.251	358
359.793	336
362.334	304
364.874	328
367.413	306
369.951	318
372.489	332
375.026	322
377.562	320
380.097	280
382.631	260
385.164	242
387.697	248
390.229	240
392.76	252
395.29	246
397.819	224
400.346	226
402.873	230
405.4	232
407.926	266
410.451	312
412.976	324
415.499	348
418.02	334
420.542	306
423.063	286
425.583	242
428.101	226
430.619	212
433.137	200
435.654	194
438.169	178
440.684	168
443.198	178
445.712	162
448.223	168
450.735	178
453.246	164
455.755	152
458.264	188
460.771	170
463.279	198
465.786	194
468.291	226
470.796	262
473.301	290
475.803	362
478.306	384
480.807	456
483.308	488
485.807	532
488.307	440
490.804	368
493.302	304
495.798	260
498.294	228
500.788	198
503.283	222
505.775	226
508.269	240
510.759	316
513.251	378
515.74	396
518.23	304
520.718	278
523.204	278
525.692	334
528.177	394
530.663	478
533.147	572
535.629	682
538.113	746
540.594	754
543.074	672
545.555	546
548.034	450
550.512	390
552.989	394
555.467	416
557.942	488
560.417	654
562.892	984
565.365	1590
567.838	2602
570.309	3580
572.78	3696
575.251	2612
577.72	1564
580.189	956
582.656	690
585.123	640
587.589	608
590.055	534
592.52	510
594.983	440
597.446	446
599.908	368
602.369	310
604.829	262
607.289	238
609.747	226
612.205	234
614.663	192
617.119	222
619.574	212
622.029	220
624.483	236
626.936	260
629.389	280
631.84	294
634.291	294
636.741	308
639.19	314
641.639	272
644.086	288
646.533	238
648.979	230
651.424	200
653.869	208
656.313	192
658.754	190
661.196	170
663.638	164
666.078	162
668.518	170
670.957	162
673.394	164
675.831	152
678.268	148
680.703	160
683.137	156
685.571	166
688.005	158
690.437	160
692.868	166
695.299	166
697.729	162
700.159	166
702.586	162
705.014	176
707.441	190
709.866	208
712.292	222
714.716	246
717.14	220
719.563	228
721.984	210
724.406	198
726.825	186
729.246	206
731.665	202
734.082	204
736.5	204
738.916	222
741.332	232
743.746	272
746.161	326
748.574	316
750.987	306
753.398	300
755.81	252
758.219	264
760.629	218
763.037	190
765.445	212
767.852	182
770.258	194
772.664	188
775.068	190
777.472	212
779.876	214
782.278	208
784.679	212
787.08	200
789.48	204
791.879	188
794.278	182
796.675	184
799.072	178
801.467	184
803.864	174
806.258	184
808.651	180
811.044	216
813.437	206
815.828	210
818.218	214
820.608	246
822.997	274
825.385	320
827.773	470
830.16	786
832.546	1158
834.931	1108
837.315	674
839.699	402
842.081	304
844.463	250
846.844	296
849.226	266
851.606	250
853.985	230
856.363	234
858.741	224
861.117	228
863.493	208
865.868	200
868.243	202
870.616	192
872.989	174
875.36	176
877.731	176
880.102	198
882.472	190
884.841	194
887.209	184
889.577	190
891.944	174
894.31	168
896.674	166
899.039	162
901.403	166
903.766	170
906.128	172
908.49	170
910.849	176
913.209	168
915.569	170
917.927	174
920.284	188
922.641	182
924.997	168
927.353	176
929.707	214
932.061	186
934.414	202
936.765	206
939.117	218
941.469	218
943.818	248
946.167	278
948.515	322
950.863	396
953.211	542
955.556	698
957.902	820
960.246	952
962.59	906
964.933	788
967.276	618
969.617	532
971.958	448
974.298	392
976.638	324
978.976	246
981.314	238
983.651	218
985.988	226
988.323	220
990.659	236
992.992	212
995.325	226
997.658	192
999.99	188
1002.32	200
1004.65	190
1006.98	190
1009.31	202
1011.64	196
1013.97	198
1016.29	224
1018.62	220
1020.94	228
1023.27	266
1025.59	238
1027.91	264
1030.24	272
1032.56	272
1034.88	282
1037.2	282
1039.52	268
1041.84	238
1044.15	230
1046.47	234
1048.79	230
1051.1	206
1053.42	200
1055.73	212
1058.04	188
1060.36	184
1062.67	176
1064.98	198
1067.29	188
1069.6	202
1071.91	206
1074.22	200
1076.52	202
1078.83	206
1081.14	190
1083.44	200
1085.75	210
1088.05	204
1090.35	210
1092.65	214
1094.95	220
1097.26	202
1099.56	220
1101.86	238
1104.15	266
1106.45	360
1108.75	558
1111.05	798
1113.34	914
1115.64	738
1117.93	498
1120.22	380
1122.52	300
1124.81	284
1127.1	276
1129.39	258
1131.68	234
1133.97	256
1136.26	240
1138.54	240
1140.83	248
1143.12	252
1145.4	258
1147.69	224
1149.97	222
1152.25	220
1154.54	216
1156.82	242
1159.1	262
1161.38	266
1163.66	266
1165.94	270
1168.22	250
1170.49	244
1172.77	270
1175.05	258
1177.32	294
1179.6	334
1181.87	436
1184.14	562
1186.42	626
1188.69	600
1190.96	512
1193.23	436
1195.5	428
1197.77	426
1200.03	472
1202.3	490
1204.57	462
1206.83	438
1209.1	372
1211.36	298
1213.63	258
1215.89	244
1218.15	228
1220.41	234
1222.67	238
1224.93	270
1227.19	306
1229.45	342
1231.71	330
1233.97	306
1236.22	256
1238.48	252
1240.73	238
1242.99	234
1245.24	234
1247.5	222
1249.75	220
1252	214
1254.25	228
1256.5	220
1258.75	222
1261	234
1263.25	240
1265.49	228
1267.74	268
1269.99	236
1272.23	236
1274.48	264
1276.72	270
1278.96	296
1281.21	302
1283.45	360
1285.69	368
1287.93	408
1290.17	448
1292.41	496
1294.64	608
1296.88	792
1299.12	1052
1301.36	1532
1303.59	2054
1305.82	2230
1308.06	1868
1310.29	1346
1312.52	938
1314.76	750
1316.99	658
1319.22	532
1321.45	482
1323.68	476
1325.9	434
1328.13	474
1330.36	424
1332.58	396
1334.81	378
1337.04	336
1339.26	340
1341.48	330
1343.71	348
1345.93	370
1348.15	388
1350.37	378
1352.59	368
1354.81	342
1357.03	318
1359.24	318
1361.46	318
1363.68	308
1365.89	300
1368.11	328
1370.32	410
1372.54	522
1374.75	714
1376.96	972
1379.17	1040
1381.38	1024
1383.59	916
1385.8	714
1388.01	536
1390.22	402
1392.43	312
1394.63	296
1396.84	276
1399.05	272
1401.25	264
1403.45	280
1405.66	278
1407.86	270
1410.06	276
1412.26	290
1414.46	286
1416.66	326
1418.86	358
1421.06	376
1423.26	376
1425.46	416
1427.65	412
1429.85	438
1432.04	434
1434.24	448
1436.43	482
1438.62	488
1440.82	512
1443.01	502
1445.2	438
1447.39	438
1449.58	414
1451.77	398
1453.95	374
1456.14	388
1458.33	374
1460.52	358
1462.7	380
1464.89	346
1467.07	368
1469.25	384
1471.44	344
1473.62	344
1475.8	370
1477.98	370
1480.16	332
1482.34	336
1484.52	312
1486.7	300
1488.87	288
1491.05	274
1493.23	288
1495.4	300
1497.58	280
1499.75	294
1501.92	282
1504.1	286
1506.27	314
1508.44	292
1510.61	274
1512.78	276
1514.95	256
1517.12	276
1519.28	272
1521.45	270
1523.62	252
1525.78	268
1527.95	268
1530.11	280
1532.28	274
1534.44	264
1536.6	262
1538.76	276
1540.93	270
1543.09	266
1545.25	290
1547.41	266
1549.56	266
1551.72	294
1553.88	308
1556.03	292
1558.19	294
1560.35	278
1562.5	294
1564.65	292
1566.81	298
1568.96	294
1571.11	322
1573.26	344
1575.41	350
1577.56	394
1579.71	430
1581.86	454
1584.01	510
1586.15	548
1588.3	642
1590.45	770
1592.59	898
1594.74	1032
1596.88	1182
1599.02	1362
1601.17	1470
1603.31	1446
1605.45	1408
1607.59	1300
1609.73	1146
1611.87	966
1614.01	872
1616.14	722
1618.28	620
1620.42	522
1622.55	458
1624.69	392
1626.82	356
1628.96	338
1631.09	304
1633.22	292
1635.36	286
1637.49	292
1639.62	272
1641.75	262
1643.88	258
1646	250
1648.13	258
1650.26	252
1652.39	240
1654.51	238
1656.64	248
1658.76	242
1660.89	234
1663.01	222
1665.13	234
1667.26	232
1669.38	226
1671.5	230
1673.62	222
1675.74	226
1677.86	224
1679.97	216
1682.09	208
1684.21	236
1686.33	234
1688.44	224
1690.56	240
1692.67	248
1694.78	246
1696.9	262
1699.01	258
1701.12	252
1703.23	244
1705.34	248
1707.45	238
1709.56	254
1711.67	256
1713.78	240
1715.88	242
1717.99	230
1720.1	218
1722.2	230
1724.31	214
1726.41	222
1728.51	216
1730.62	206
1732.72	218
1734.82	208
1736.92	200
1739.02	220
1741.12	218
1743.22	224
1745.32	194
1747.42	198
1749.51	204
1751.61	224
1753.7	214
1755.8	212
1757.89	204
1759.99	208
1762.08	226
1764.17	200
1766.26	204
1768.36	218
1770.45	220
1772.54	220
1774.62	214
1776.71	220
1778.8	204
1780.89	206
1782.98	204
1785.06	210
1787.15	228
1789.23	214
1791.32	198
1793.4	208
1795.48	202
1797.56	212
1799.65	210
1801.73	212
1803.81	218
1805.89	212
1807.97	206
1810.04	196
1812.12	222
1814.2	196
1816.28	220
1818.35	198
1820.43	206
1822.5	228
1824.58	204
1826.65	200
1828.72	204
1830.79	206
1832.86	204
1834.94	186
1837.01	202
1839.08	210
1841.15	222
1843.21	212
1845.28	202
1847.35	196
1849.41	222
1851.48	218
1853.55	204
1855.61	208
1857.67	192
1859.74	198
1861.8	222
1863.86	212
1865.92	206
1867.98	208
1870.05	206
1872.1	212
1874.16	204
1876.22	216
1878.28	214
1880.34	210
1882.39	228
1884.45	188
1886.5	216
1888.56	208
1890.61	216
1892.67	212
1894.72	214
1896.77	212
1898.82	220
1900.87	196
1902.92	216
1904.97	210
1907.02	202
1909.07	194
1911.12	222
1913.17	202
1915.21	218
1917.26	208
1919.3	216
1921.35	208
1923.39	206
1925.43	208
1927.48	200
1929.52	202
1931.56	216
1933.6	202
1935.64	192
1937.68	210
1939.72	226
1941.76	208
1943.8	212
1945.83	222
1947.87	204
1949.91	206
1951.94	230
1953.98	220
1956.01	220
1958.05	204
1960.08	206
1962.11	216
1964.14	194
1966.17	204
1968.2	216
1970.23	214
1972.26	226
1974.29	202
1976.32	208
1978.35	224
1980.37	212
1982.4	212
1984.43	224
1986.45	206
1988.48	208
1990.5	218
1992.52	238
1994.55	202
1996.57	198
1998.59	214
2000.61	220
2002.63	216
2004.65	208
2006.67	212
2008.69	214
2010.7	222
2012.72	214
2014.74	204
2016.75	190
2018.77	208
2020.78	204
2022.8	210
2024.81	212
2026.83	198
2028.84	228
2030.85	206
2032.86	196
2034.87	206
2036.88	214
2038.89	224
2040.9	212
2042.91	204
2044.91	200
2046.92	220
2048.93	218
2050.93	214
2052.94	216
2054.94	212
2056.95	216
2058.95	208
2060.95	208
2062.95	208
2064.96	216
2066.96	196
2068.96	216
2070.96	206
2072.96	220
2074.95	224
2076.95	206
2078.95	226
2080.95	210
2082.94	208
2084.94	214
2086.93	218
2088.93	196
2090.92	192
2092.91	212
2094.91	204
2096.9	210
2098.89	232
2100.88	208
2102.87	210
2104.86	230
2106.85	214
2108.84	220
2110.83	220
2112.81	226
2114.8	196
2116.78	208
2118.77	208
2120.75	232
2122.74	218
2124.72	214
2126.71	212
2128.69	202
2130.67	198
2132.65	212
2134.63	216
2136.61	214
2138.59	200
2140.57	218
2142.55	218
2144.53	226
2146.5	214
2148.48	212
2150.46	212
2152.43	204
2154.41	210
2156.38	212
2158.35	234
2160.33	212
2162.3	200
2164.27	218
2166.24	222
2168.21	204
2170.18	218
2172.15	216
2174.12	208
2176.09	210
2178.06	216
2180.03	208
2181.99	202
2183.96	210
2185.92	208
2187.89	194
2189.85	208
2191.82	202
2193.78	206
2195.74	212
2197.7	214
2199.67	190
2201.63	220
2203.59	192
2205.55	198
2207.51	232
2209.46	222
2211.42	204
2213.38	212
2215.34	194
2217.29	210
2219.25	210
2221.2	220
2223.16	204
2225.11	218
2227.06	232
2229.02	194
2230.97	212
2232.92	216
2234.87	220
2236.82	204
2238.77	214
2240.72	220
2242.67	210
2244.62	198
2246.57	214
2248.51	218
2250.46	214
2252.4	210
2254.35	192
2256.29	224
2258.24	198
2260.18	200
2262.13	216
2264.07	216
2266.01	206
2267.95	196
2269.89	220
2271.83	202
2273.77	214
2275.71	208
2277.65	200
2279.58	212
2281.52	196
2283.46	228
2285.4	216
2287.33	214
2289.27	220
2291.2	212
2293.13	200
2295.07	206
2297	220
2298.93	212
2300.86	214
2302.79	216
2304.72	204
2306.65	214
2308.58	202
2310.51	212
2312.44	230
2314.37	230
2316.29	224
2318.22	224
2320.15	228
2322.07	206
2324	202
2325.92	232
2327.84	222
2329.77	222
2331.69	214
2333.61	220
2335.53	232
2337.45	220
2339.37	218
2341.29	212
2343.21	202
2345.13	224
2347.05	214
2348.97	216
2350.88	196
2352.8	218
2354.71	212
2356.63	214
2358.54	212
2360.46	200
2362.37	208
2364.28	204
2366.2	210
2368.11	196
2370.02	194
2371.93	224
2373.84	216
2375.75	218
2377.66	218
2379.57	224
2381.47	210
2383.38	226
2385.29	222
2387.2	214
2389.1	222
2391.01	216
2392.91	216
2394.81	218
2396.72	220
2398.62	204
2400.52	220
2402.42	234
2404.33	220
2406.23	230
2408.13	224
2410.03	206
2411.92	228
2413.82	234
2415.72	208
2417.62	198
2419.51	240
2421.41	214
2423.31	206
2425.2	232
2427.1	216
2428.99	216
2430.88	216
2432.78	198
2434.67	200
2436.56	206
2438.45	228
2440.34	224
2442.23	218
2444.12	220
2446.01	196
2447.9	200
2449.79	212