File: Jesse_Dataset_v2/Pure Raman/Polypropylene oxide/633nm/ps-ppo-7jan25-0,0000-map2_Y05_X03.txt
182.393	690
184.993	672
187.593	628
190.193	608
192.79	580
195.387	570
197.983	508
200.578	516
203.174	508
205.766	522
208.36	506
210.951	496
213.542	440
216.131	424
218.721	442
221.309	504
223.897	556
226.483	718
229.069	938
231.654	1144
234.238	1230
236.821	1242
239.404	1126
241.984	1002
244.566	896
247.145	748
249.723	608
252.302	538
254.878	474
257.455	412
260.03	346
262.604	302
265.178	310
267.75	292
270.322	288
272.893	274
275.463	284
278.032	278
280.601	306
283.168	340
285.734	376
288.301	418
290.866	484
293.429	594
295.992	624
298.556	598
301.117	506
303.677	494
306.236	432
308.795	416
311.354	380
313.911	376
316.467	360
319.022	346
321.577	368
324.13	354
326.684	354
329.236	396
331.787	390
334.337	382
336.887	390
339.435	394
341.983	358
344.529	340
347.075	354
349.621	344
352.165	354
354.708	362
357.251	344
359.793	316
362.334	308
364.874	334
367.413	338
369.951	328
372.489	324
375.026	350
377.562	318
380.097	286
382.631	256
385.164	268
387.697	222
390.229	242
392.76	224
395.29	242
397.819	222
400.346	236
402.873	232
405.4	250
407.926	264
410.451	302
412.976	336
415.499	382
418.02	338
420.542	316
423.063	266
425.583	250
428.101	232
430.619	222
433.137	202
435.654	176
438.169	186
440.684	182
443.198	174
445.712	174
448.223	164
450.735	180
453.246	162
455.755	168
458.264	174
460.771	178
463.279	196
465.786	184
468.291	236
470.796	272
473.301	304
475.803	348
478.306	386
480.807	442
483.308	486
485.807	470
488.307	442
490.804	344
493.302	288
495.798	264
498.294	248
500.788	206
503.283	216
505.775	216
508.269	266
510.759	318
513.251	372
515.74	360
518.23	296
520.718	288
523.204	280
525.692	344
528.177	382
530.663	464
533.147	576
535.629	694
538.113	780
540.594	782
543.074	700
545.555	526
548.034	454
550.512	392
552.989	400
555.467	416
557.942	478
560.417	660
562.892	1012
565.365	1598
567.838	2638
570.309	3668
572.78	3742
575.251	2526
577.72	1510
580.189	938
582.656	726
585.123	626
587.589	590
590.055	552
592.52	508
594.983	488
597.446	450
599.908	366
602.369	304
604.829	264
607.289	228
609.747	222
612.205	208
614.663	204
617.119	192
619.574	220
622.029	222
624.483	240
626.936	258
629.389	286
631.84	310
634.291	302
636.741	334
639.19	304
641.639	284
644.086	252
646.533	240
648.979	238
651.424	218
653.869	202
656.313	192
658.754	192
661.196	188
663.638	172
666.078	176
668.518	164
670.957	164
673.394	166
675.831	152
678.268	160
680.703	170
683.137	180
685.571	170
688.005	172
690.437	164
692.868	158
695.299	172
697.729	170
700.159	166
702.586	164
705.014	168
707.441	204
709.866	186
712.292	212
714.716	214
717.14	234
719.563	222
721.984	214
724.406	200
726.825	202
729.246	196
731.665	204
734.082	198
736.5	222
738.916	196
741.332	236
743.746	284
746.161	308
748.574	316
750.987	318
753.398	284
755.81	272
758.219	254
760.629	210
763.037	202
765.445	192
767.852	170
770.258	192
772.664	196
775.068	212
777.472	208
779.876	186
782.278	208
784.679	190
787.08	198
789.48	198
791.879	206
794.278	200
796.675	198
799.072	192
801.467	194
803.864	208
806.258	218
808.651	198
811.044	186
813.437	210
815.828	194
818.218	218
820.608	222
822.997	270
825.385	340
827.773	506
830.16	788
832.546	1100
834.931	1082
837.315	656
839.699	372
842.081	302
844.463	258
846.844	238
849.226	272
851.606	244
853.985	264
856.363	236
858.741	214
861.117	222
863.493	226
865.868	204
868.243	206
870.616	180
872.989	210
875.36	196
877.731	196
880.102	188
882.472	192
884.841	184
887.209	176
889.577	190
891.944	182
894.31	172
896.674	170
899.039	176
901.403	172
903.766	174
906.128	168
908.49	184
910.849	162
913.209	176
915.569	180
917.927	172
920.284	164
922.641	170
924.997	176
927.353	188
929.707	186
932.061	188
934.414	200
936.765	204
939.117	222
941.469	220
943.818	254
946.167	294
948.515	338
950.863	420
953.211	550
955.556	692
957.902	824
960.246	892
962.59	860
964.933	740
967.276	636
969.617	552
971.958	454
974.298	368
976.638	288
978.976	268
981.314	242
983.651	234
985.988	222
988.323	212
990.659	234
992.992	218
995.325	210
997.658	208
999.99	202
1002.32	198
1004.65	220
1006.98	196
1009.31	208
1011.64	190
1013.97	206
1016.29	206
1018.62	206
1020.94	242
1023.27	228
1025.59	276
1027.91	260
1030.24	264
1032.56	280
1034.88	288
1037.2	284
1039.52	278
1041.84	250
1044.15	246
1046.47	240
1048.79	216
1051.1	236
1053.42	216
1055.73	204
1058.04	192
1060.36	200
1062.67	196
1064.98	202
1067.29	210
1069.6	202
1071.91	194
1074.22	192
1076.52	186
1078.83	216
1081.14	200
1083.44	216
1085.75	186
1088.05	202
1090.35	196
1092.65	204
1094.95	218
1097.26	226
1099.56	218
1101.86	248
1104.15	272
1106.45	358
1108.75	592
1111.05	826
1113.34	888
1115.64	728
1117.93	506
1120.22	378
1122.52	296
1124.81	296
1127.1	278
1129.39	250
1131.68	232
1133.97	238
1136.26	250
1138.54	256
1140.83	254
1143.12	230
1145.4	234
1147.69	232
1149.97	230
1152.25	222
1154.54	232
1156.82	234
1159.1	260
1161.38	268
1163.66	268
1165.94	256
1168.22	238
1170.49	250
1172.77	256
1175.05	270
1177.32	298
1179.6	372
1181.87	410
1184.14	594
1186.42	616
1188.69	640
1190.96	520
1193.23	464
1195.5	398
1197.77	440
1200.03	442
1202.3	460
1204.57	476
1206.83	414
1209.1	354
1211.36	314
1213.63	262
1215.89	248
1218.15	238
1220.41	264
1222.67	258
1224.93	276
1227.19	300
1229.45	344
1231.71	328
1233.97	300
1236.22	270
1238.48	256
1240.73	226
1242.99	236
1245.24	218
1247.5	210
1249.75	222
1252	220
1254.25	224
1256.5	240
1258.75	226
1261	224
1263.25	250
1265.49	242
1267.74	248
1269.99	252
1272.23	256
1274.48	266
1276.72	274
1278.96	288
1281.21	328
1283.45	364
1285.69	374
1287.93	412
1290.17	432
1292.41	502
1294.64	578
1296.88	778
1299.12	1096
1301.36	1596
1303.59	2014
1305.82	2134
1308.06	1866
1310.29	1350
1312.52	952
1314.76	732
1316.99	616
1319.22	518
1321.45	480
1323.68	472
1325.9	476
1328.13	462
1330.36	448
1332.58	406
1334.81	378
1337.04	334
1339.26	318
1341.48	330
1343.71	344
1345.93	350
1348.15	378
1350.37	394
1352.59	368
1354.81	354
1357.03	322
1359.24	326
1361.46	300
1363.68	322
1365.89	320
1368.11	330
1370.32	396
1372.54	542
1374.75	750
1376.96	932
1379.17	1070
1381.38	1068
1383.59	904
1385.8	728
1388.01	498
1390.22	384
1392.43	324
1394.63	286
1396.84	298
1399.05	274
1401.25	262
1403.45	278
1405.66	272
1407.86	266
1410.06	276
1412.26	292
1414.46	282
1416.66	308
1418.86	346
1421.06	384
1423.26	398
1425.46	406
1427.65	430
1429.85	420
1432.04	440
1434.24	460
1436.43	500
1438.62	502
1440.82	506
1443.01	468
1445.2	440
1447.39	428
1449.58	438
1451.77	382
1453.95	384
1456.14	412
1458.33	372
1460.52	390
1462.7	386
1464.89	382
1467.07	358
1469.25	362
1471.44	350
1473.62	368
1475.8	374
1477.98	354
1480.16	344
1482.34	344
1484.52	314
1486.7	324
1488.87	316
1491.05	288
1493.23	290
1495.4	282
1497.58	296
1499.75	280
1501.92	246
1504.1	294
1506.27	278
1508.44	284
1510.61	284
1512.78	280
1514.95	272
1517.12	252
1519.28	258
1521.45	284
1523.62	266
1525.78	270
1527.95	278
1530.11	264
1532.28	282
1534.44	272
1536.6	276
1538.76	270
1540.93	276
1543.09	268
1545.25	278
1547.41	276
1549.56	266
1551.72	276
1553.88	312
1556.03	292
1558.19	272
1560.35	284
1562.5	308
1564.65	294
1566.81	310
1568.96	322
1571.11	330
1573.26	356
1575.41	342
1577.56	376
1579.71	426
1581.86	484
1584.01	522
1586.15	588
1588.3	648
1590.45	728
1592.59	892
1594.74	1064
1596.88	1166
1599.02	1372
1601.17	1486
1603.31	1488
1605.45	1372
1607.59	1272
1609.73	1138
1611.87	998
1614.01	856
1616.14	702
1618.28	588
1620.42	508
1622.55	462
1624.69	390
1626.82	354
1628.96	362
1631.09	308
1633.22	292
1635.36	268
1637.49	272
1639.62	266
1641.75	264
1643.88	256
1646	236
1648.13	232
1650.26	260
1652.39	240
1654.51	234
1656.64	232
1658.76	220
1660.89	232
1663.01	234
1665.13	216
1667.26	238
1669.38	232
1671.5	236
1673.62	222
1675.74	224
1677.86	242
1679.97	256
1682.09	234
1684.21	254
1686.33	248
1688.44	224
1690.56	248
1692.67	256
1694.78	258
1696.9	250
1699.01	250
1701.12	230
1703.23	242
1705.34	240
1707.45	246
1709.56	236
1711.67	230
1713.78	216
1715.88	220
1717.99	246
1720.1	220
1722.2	216
1724.31	214
1726.41	236
1728.51	224
1730.62	216
1732.72	210
1734.82	202
1736.92	212
1739.02	192
1741.12	220
1743.22	214
1745.32	214
1747.42	196
1749.51	210
1751.61	220
1753.7	210
1755.8	206
1757.89	214
1759.99	200
1762.08	234
1764.17	212
1766.26	218
1768.36	218
1770.45	222
1772.54	198
1774.62	214
1776.71	198
1778.8	214
1780.89	220
1782.98	224
1785.06	198
1787.15	216
1789.23	200
1791.32	194
1793.4	212
1795.48	218
1797.56	218
1799.65	232
1801.73	206
1803.81	202
1805.89	210
1807.97	208
1810.04	194
1812.12	194
1814.2	234
1816.28	206
1818.35	198
1820.43	218
1822.5	218
1824.58	208
1826.65	214
1828.72	210
1830.79	204
1832.86	208
1834.94	198
1837.01	200
1839.08	218
1841.15	200
1843.21	226
1845.28	220
1847.35	218
1849.41	226
1851.48	200
1853.55	206
1855.61	198
1857.67	214
1859.74	198
1861.8	222
1863.86	206
1865.92	216
1867.98	224
1870.05	202
1872.1	210
1874.16	212
1876.22	218
1878.28	210
1880.34	214
1882.39	210
1884.45	214
1886.5	222
1888.56	212
1890.61	202
1892.67	218
1894.72	216
1896.77	224
1898.82	196
1900.87	212
1902.92	228
1904.97	214
1907.02	210
1909.07	202
1911.12	206
1913.17	210
1915.21	222
1917.26	218
1919.3	220
1921.35	212
1923.39	210
1925.43	212
1927.48	186
1929.52	196
1931.56	206
1933.6	206
1935.64	222
1937.68	224
1939.72	208
1941.76	202
1943.8	198
1945.83	206
1947.87	230
1949.91	200
1951.94	218
1953.98	224
1956.01	210
1958.05	198
1960.08	204
1962.11	204
1964.14	208
1966.17	214
1968.2	222
1970.23	204
1972.26	200
1974.29	220
1976.32	220
1978.35	212
1980.37	210
1982.4	214
1984.43	230
1986.45	210
1988.48	216
1990.5	230
1992.52	214
1994.55	218
1996.57	200
1998.59	216
2000.61	222
2002.63	208
2004.65	200
2006.67	208
2008.69	212
2010.7	220
2012.72	210
2014.74	206
2016.75	208
2018.77	226
2020.78	208
2022.8	200
2024.81	192
2026.83	210
2028.84	200
2030.85	196
2032.86	204
2034.87	208
2036.88	230
2038.89	208
2040.9	198
2042.91	218
2044.91	200
2046.92	216
2048.93	216
2050.93	206
2052.94	212
2054.94	220
2056.95	202
2058.95	220
2060.95	198
2062.95	210
2064.96	214
2066.96	214
2068.96	222
2070.96	216
2072.96	218
2074.95	220
2076.95	226
2078.95	208
2080.95	216
2082.94	214
2084.94	224
2086.93	222
2088.93	208
2090.92	188
2092.91	214
2094.91	218
2096.9	198
2098.89	200
2100.88	186
2102.87	206
2104.86	210
2106.85	212
2108.84	198
2110.83	218
2112.81	206
2114.8	188
2116.78	208
2118.77	210
2120.75	210
2122.74	214
2124.72	204
2126.71	236
2128.69	204
2130.67	226
2132.65	226
2134.63	208
2136.61	232
2138.59	200
2140.57	196
2142.55	208
2144.53	218
2146.5	202
2148.48	198
2150.46	212
2152.43	210
2154.41	200
2156.38	208
2158.35	208
2160.33	224
2162.3	196
2164.27	212
2166.24	202
2168.21	204
2170.18	198
2172.15	204
2174.12	212
2176.09	214
2178.06	204
2180.03	214
2181.99	230
2183.96	218
2185.92	216
2187.89	216
2189.85	204
2191.82	216
2193.78	226
2195.74	228
2197.7	200
2199.67	196
2201.63	216
2203.59	200
2205.55	186
2207.51	220
2209.46	198
2211.42	202
2213.38	222
2215.34	216
2217.29	216
2219.25	230
2221.2	198
2223.16	210
2225.11	212
2227.06	198
2229.02	200
2230.97	206
2232.92	216
2234.87	200
2236.82	204
2238.77	204
2240.72	198
2242.67	220
2244.62	214
2246.57	226
2248.51	214
2250.46	212
2252.4	220
2254.35	216
2256.29	226
2258.24	214
2260.18	214
2262.13	220
2264.07	218
2266.01	226
2267.95	222
2269.89	210
2271.83	220
2273.77	226
2275.71	198
2277.65	202
2279.58	208
2281.52	218
2283.46	212
2285.4	216
2287.33	210
2289.27	192
2291.2	218
2293.13	214
2295.07	196
2297	218
2298.93	206
2300.86	206
2302.79	218
2304.72	204
2306.65	208
2308.58	220
2310.51	224
2312.44	224
2314.37	212
2316.29	198
2318.22	216
2320.15	218
2322.07	210
2324	222
2325.92	222
2327.84	214
2329.77	232
2331.69	202
2333.61	222
2335.53	222
2337.45	224
2339.37	216
2341.29	216
2343.21	222
2345.13	214
2347.05	216
2348.97	216
2350.88	210
2352.8	194
2354.71	228
2356.63	220
2358.54	186
2360.46	206
2362.37	208
2364.28	206
2366.2	228
2368.11	216
2370.02	216
2371.93	226
2373.84	204
2375.75	224
2377.66	220
2379.57	220
2381.47	228
2383.38	228
2385.29	210
2387.2	218
2389.1	212
2391.01	238
2392.91	230
2394.81	222
2396.72	232
2398.62	226
2400.52	204
2402.42	220
2404.33	222
2406.23	204
2408.13	226
2410.03	216
2411.92	226
2413.82	220
2415.72	226
2417.62	216
2419.51	202
2421.41	216
2423.31	212
2425.2	228
2427.1	224
2428.99	190
2430.88	210
2432.78	206
2434.67	206
2436.56	214
2438.45	204
2440.34	212
2442.23	218
2444.12	214
2446.01	200
2447.9	208
2449.79	210