File: Jesse_Dataset_v2/Pure Raman/Polypropylene oxide/633nm/ps-ppo-7jan25-0,0000-map2_Y08_X00.txt
182.393	708
184.993	682
187.593	642
190.193	624
192.79	610
195.387	580
197.983	578
200.578	534
203.174	506
205.766	518
208.36	530
210.951	488
213.542	460
216.131	482
218.721	498
221.309	520
223.897	592
226.483	730
229.069	940
231.654	1160
234.238	1246
236.821	1228
239.404	1148
241.984	1014
244.566	930
247.145	758
249.723	652
252.302	576
254.878	484
257.455	418
260.03	396
262.604	356
265.178	350
267.75	322
270.322	302
272.893	330
275.463	324
278.032	314
280.601	310
283.168	370
285.734	410
288.301	468
290.866	550
293.429	600
295.992	630
298.556	636
301.117	612
303.677	520
306.236	450
308.795	472
311.354	418
313.911	374
316.467	396
319.022	376
321.577	388
324.13	400
326.684	390
329.236	408
331.787	420
334.337	432
336.887	426
339.435	408
341.983	360
344.529	372
347.075	372
349.621	362
352.165	386
354.708	384
357.251	394
359.793	374
362.334	354
364.874	352
367.413	356
369.951	364
372.489	344
375.026	330
377.562	332
380.097	310
382.631	300
385.164	290
387.697	282
390.229	260
392.76	244
395.29	256
397.819	258
400.346	246
402.873	264
405.4	272
407.926	314
410.451	342
412.976	386
415.499	416
418.02	390
420.542	332
423.063	296
425.583	278
428.101	286
430.619	236
433.137	226
435.654	230
438.169	202
440.684	202
443.198	198
445.712	216
448.223	212
450.735	208
453.246	198
455.755	202
458.264	202
460.771	206
463.279	218
465.786	242
468.291	266
470.796	290
473.301	326
475.803	392
478.306	396
480.807	466
483.308	508
485.807	508
488.307	470
490.804	388
493.302	340
495.798	316
498.294	252
500.788	256
503.283	252
505.775	234
508.269	296
510.759	346
513.251	406
515.74	400
518.23	352
520.718	320
523.204	324
525.692	356
528.177	404
530.663	488
533.147	594
535.629	720
538.113	748
540.594	780
543.074	712
545.555	596
548.034	492
550.512	432
552.989	402
555.467	464
557.942	532
560.417	720
562.892	996
565.365	1636
567.838	2632
570.309	3642
572.78	3690
575.251	2656
577.72	1576
580.189	990
582.656	720
585.123	658
587.589	596
590.055	572
592.52	548
594.983	544
597.446	490
599.908	412
602.369	344
604.829	294
607.289	266
609.747	260
612.205	246
614.663	238
617.119	246
619.574	264
622.029	256
624.483	288
626.936	274
629.389	312
631.84	316
634.291	344
636.741	372
639.19	344
641.639	320
644.086	290
646.533	282
648.979	256
651.424	242
653.869	242
656.313	226
658.754	238
661.196	216
663.638	206
666.078	196
668.518	198
670.957	180
673.394	196
675.831	194
678.268	196
680.703	196
683.137	196
685.571	210
688.005	202
690.437	194
692.868	186
695.299	184
697.729	212
700.159	194
702.586	206
705.014	218
707.441	222
709.866	232
712.292	270
714.716	282
717.14	272
719.563	246
721.984	236
724.406	240
726.825	248
729.246	232
731.665	232
734.082	232
736.5	234
738.916	240
741.332	272
743.746	310
746.161	372
748.574	364
750.987	358
753.398	322
755.81	326
758.219	274
760.629	246
763.037	224
765.445	218
767.852	228
770.258	220
772.664	226
775.068	236
777.472	254
779.876	242
782.278	242
784.679	246
787.08	234
789.48	206
791.879	230
794.278	232
796.675	224
799.072	226
801.467	222
803.864	230
806.258	210
808.651	234
811.044	230
813.437	236
815.828	248
818.218	236
820.608	258
822.997	302
825.385	356
827.773	512
830.16	820
832.546	1162
834.931	1096
837.315	700
839.699	440
842.081	336
844.463	312
846.844	284
849.226	298
851.606	282
853.985	270
856.363	288
858.741	276
861.117	256
863.493	256
865.868	236
868.243	220
870.616	206
872.989	214
875.36	230
877.731	206
880.102	224
882.472	220
884.841	212
887.209	214
889.577	222
891.944	212
894.31	202
896.674	190
899.039	208
901.403	202
903.766	224
906.128	218
908.49	206
910.849	188
913.209	216
915.569	202
917.927	208
920.284	222
922.641	212
924.997	198
927.353	220
929.707	218
932.061	236
934.414	246
936.765	232
939.117	246
941.469	264
943.818	292
946.167	306
948.515	352
950.863	430
953.211	562
955.556	684
957.902	852
960.246	950
962.59	918
964.933	806
967.276	658
969.617	572
971.958	498
974.298	390
976.638	310
978.976	286
981.314	288
983.651	244
985.988	250
988.323	252
990.659	252
992.992	242
995.325	242
997.658	234
999.99	236
1002.32	236
1004.65	224
1006.98	228
1009.31	210
1011.64	252
1013.97	232
1016.29	246
1018.62	254
1020.94	282
1023.27	268
1025.59	298
1027.91	282
1030.24	304
1032.56	308
1034.88	316
1037.2	302
1039.52	276
1041.84	286
1044.15	266
1046.47	254
1048.79	272
1051.1	274
1053.42	234
1055.73	246
1058.04	230
1060.36	250
1062.67	232
1064.98	242
1067.29	240
1069.6	234
1071.91	222
1074.22	222
1076.52	226
1078.83	218
1081.14	220
1083.44	242
1085.75	224
1088.05	242
1090.35	232
1092.65	256
1094.95	220
1097.26	242
1099.56	270
1101.86	262
1104.15	304
1106.45	400
1108.75	598
1111.05	878
1113.34	928
1115.64	750
1117.93	524
1120.22	408
1122.52	350
1124.81	314
1127.1	290
1129.39	296
1131.68	264
1133.97	264
1136.26	272
1138.54	280
1140.83	274
1143.12	280
1145.4	268
1147.69	260
1149.97	238
1152.25	268
1154.54	284
1156.82	276
1159.1	298
1161.38	306
1163.66	320
1165.94	312
1168.22	284
1170.49	272
1172.77	282
1175.05	306
1177.32	336
1179.6	370
1181.87	468
1184.14	554
1186.42	656
1188.69	630
1190.96	554
1193.23	466
1195.5	454
1197.77	460
1200.03	496
1202.3	498
1204.57	482
1206.83	432
1209.1	392
1211.36	318
1213.63	302
1215.89	294
1218.15	278
1220.41	274
1222.67	298
1224.93	316
1227.19	344
1229.45	352
1231.71	382
1233.97	350
1236.22	316
1238.48	284
1240.73	252
1242.99	244
1245.24	250
1247.5	258
1249.75	260
1252	260
1254.25	262
1256.5	278
1258.75	264
1261	282
1263.25	258
1265.49	276
1267.74	258
1269.99	262
1272.23	298
1274.48	314
1276.72	284
1278.96	330
1281.21	350
1283.45	386
1285.69	414
1287.93	442
1290.17	480
1292.41	512
1294.64	630
1296.88	810
1299.12	1088
1301.36	1608
1303.59	2040
1305.82	2198
1308.06	1894
1310.29	1348
1312.52	1006
1314.76	794
1316.99	640
1319.22	586
1321.45	528
1323.68	506
1325.9	508
1328.13	520
1330.36	470
1332.58	438
1334.81	404
1337.04	380
1339.26	372
1341.48	352
1343.71	384
1345.93	414
1348.15	414
1350.37	422
1352.59	412
1354.81	394
1357.03	360
1359.24	340
1361.46	352
1363.68	348
1365.89	344
1368.11	380
1370.32	426
1372.54	568
1374.75	762
1376.96	962
1379.17	1038
1381.38	1058
1383.59	904
1385.8	772
1388.01	570
1390.22	418
1392.43	362
1394.63	328
1396.84	340
1399.05	300
1401.25	290
1403.45	314
1405.66	302
1407.86	292
1410.06	312
1412.26	318
1414.46	318
1416.66	360
1418.86	368
1421.06	402
1423.26	432
1425.46	456
1427.65	450
1429.85	454
1432.04	458
1434.24	488
1436.43	522
1438.62	546
1440.82	530
1443.01	522
1445.2	528
1447.39	490
1449.58	450
1451.77	456
1453.95	402
1456.14	412
1458.33	434
1460.52	406
1462.7	400
1464.89	398
1467.07	404
1469.25	372
1471.44	390
1473.62	386
1475.8	392
1477.98	390
1480.16	394
1482.34	366
1484.52	370
1486.7	346
1488.87	342
1491.05	322
1493.23	340
1495.4	320
1497.58	312
1499.75	306
1501.92	322
1504.1	308
1506.27	304
1508.44	298
1510.61	306
1512.78	306
1514.95	310
1517.12	284
1519.28	312
1521.45	292
1523.62	298
1525.78	310
1527.95	288
1530.11	316
1532.28	300
1534.44	318
1536.6	308
1538.76	308
1540.93	306
1543.09	310
1545.25	324
1547.41	312
1549.56	308
1551.72	312
1553.88	316
1556.03	318
1558.19	322
1560.35	336
1562.5	328
1564.65	364
1566.81	326
1568.96	332
1571.11	364
1573.26	384
1575.41	392
1577.56	432
1579.71	440
1581.86	484
1584.01	546
1586.15	580
1588.3	674
1590.45	788
1592.59	894
1594.74	1038
1596.88	1200
1599.02	1422
1601.17	1456
1603.31	1522
1605.45	1434
1607.59	1322
1609.73	1192
1611.87	1026
1614.01	914
1616.14	788
1618.28	628
1620.42	538
1622.55	480
1624.69	404
1626.82	358
1628.96	384
1631.09	342
1633.22	342
1635.36	310
1637.49	316
1639.62	296
1641.75	300
1643.88	302
1646	280
1648.13	286
1650.26	278
1652.39	270
1654.51	270
1656.64	282
1658.76	280
1660.89	276
1663.01	274
1665.13	262
1667.26	282
1669.38	266
1671.5	262
1673.62	266
1675.74	288
1677.86	272
1679.97	256
1682.09	274
1684.21	266
1686.33	266
1688.44	280
1690.56	274
1692.67	278
1694.78	270
1696.9	304
1699.01	278
1701.12	276
1703.23	278
1705.34	284
1707.45	290
1709.56	284
1711.67	250
1713.78	292
1715.88	252
1717.99	260
1720.1	264
1722.2	264
1724.31	256
1726.41	264
1728.51	258
1730.62	242
1732.72	232
1734.82	238
1736.92	262
1739.02	254
1741.12	250
1743.22	242
1745.32	254
1747.42	240
1749.51	234
1751.61	256
1753.7	244
1755.8	266
1757.89	250
1759.99	240
1762.08	244
1764.17	238
1766.26	256
1768.36	248
1770.45	254
1772.54	238
1774.62	230
1776.71	258
1778.8	230
1780.89	246
1782.98	260
1785.06	250
1787.15	244
1789.23	258
1791.32	246
1793.4	252
1795.48	264
1797.56	224
1799.65	256
1801.73	242
1803.81	244
1805.89	244
1807.97	242
1810.04	242
1812.12	258
1814.2	222
1816.28	242
1818.35	258
1820.43	248
1822.5	234
1824.58	244
1826.65	230
1828.72	256
1830.79	234
1832.86	234
1834.94	246
1837.01	244
1839.08	218
1841.15	244
1843.21	228
1845.28	228
1847.35	226
1849.41	236
1851.48	260
1853.55	262
1855.61	244
1857.67	242
1859.74	222
1861.8	244
1863.86	230
1865.92	238
1867.98	238
1870.05	252
1872.1	242
1874.16	244
1876.22	252
1878.28	242
1880.34	244
1882.39	254
1884.45	236
1886.5	232
1888.56	250
1890.61	256
1892.67	238
1894.72	236
1896.77	206
1898.82	252
1900.87	244
1902.92	238
1904.97	240
1907.02	240
1909.07	250
1911.12	254
1913.17	246
1915.21	250
1917.26	246
1919.3	242
1921.35	260
1923.39	236
1925.43	250
1927.48	236
1929.52	252
1931.56	244
1933.6	224
1935.64	234
1937.68	246
1939.72	226
1941.76	238
1943.8	236
1945.83	244
1947.87	240
1949.91	234
1951.94	242
1953.98	254
1956.01	218
1958.05	242
1960.08	242
1962.11	254
1964.14	228
1966.17	226
1968.2	248
1970.23	226
1972.26	262
1974.29	230
1976.32	248
1978.35	244
1980.37	248
1982.4	234
1984.43	240
1986.45	250
1988.48	224
1990.5	228
1992.52	256
1994.55	234
1996.57	244
1998.59	226
2000.61	226
2002.63	266
2004.65	228
2006.67	264
2008.69	244
2010.7	248
2012.72	252
2014.74	252
2016.75	226
2018.77	244
2020.78	234
2022.8	230
2024.81	260
2026.83	244
2028.84	236
2030.85	238
2032.86	250
2034.87	234
2036.88	232
2038.89	242
2040.9	236
2042.91	250
2044.91	248
2046.92	256
2048.93	232
2050.93	228
2052.94	230
2054.94	242
2056.95	276
2058.95	252
2060.95	238
2062.95	224
2064.96	256
2066.96	228
2068.96	222
2070.96	246
2072.96	260
2074.95	228
2076.95	254
2078.95	244
2080.95	238
2082.94	246
2084.94	242
2086.93	228
2088.93	254
2090.92	228
2092.91	250
2094.91	234
2096.9	214
2098.89	236
2100.88	236
2102.87	234
2104.86	220
2106.85	252
2108.84	238
2110.83	230
2112.81	226
2114.8	228
2116.78	248
2118.77	232
2120.75	236
2122.74	250
2124.72	240
2126.71	236
2128.69	244
2130.67	250
2132.65	242
2134.63	232
2136.61	244
2138.59	242
2140.57	236
2142.55	242
2144.53	222
2146.5	246
2148.48	224
2150.46	242
2152.43	228
2154.41	240
2156.38	238
2158.35	230
2160.33	240
2162.3	238
2164.27	218
2166.24	220
2168.21	252
2170.18	236
2172.15	230
2174.12	240
2176.09	252
2178.06	240
2180.03	238
2181.99	230
2183.96	244
2185.92	230
2187.89	230
2189.85	234
2191.82	228
2193.78	238
2195.74	246
2197.7	254
2199.67	238
2201.63	242
2203.59	242
2205.55	220
2207.51	240
2209.46	226
2211.42	242
2213.38	234
2215.34	212
2217.29	230
2219.25	238
2221.2	240
2223.16	228
2225.11	240
2227.06	230
2229.02	246
2230.97	228
2232.92	238
2234.87	236
2236.82	248
2238.77	236
2240.72	246
2242.67	232
2244.62	230
2246.57	224
2248.51	254
2250.46	240
2252.4	244
2254.35	248
2256.29	236
2258.24	234
2260.18	244
2262.13	242
2264.07	236
2266.01	224
2267.95	222
2269.89	240
2271.83	230
2273.77	226
2275.71	254
2277.65	240
2279.58	228
2281.52	240
2283.46	228
2285.4	226
2287.33	242
2289.27	264
2291.2	246
2293.13	244
2295.07	234
2297	242
2298.93	228
2300.86	238
2302.79	228
2304.72	246
2306.65	250
2308.58	244
2310.51	242
2312.44	244
2314.37	232
2316.29	246
2318.22	242
2320.15	238
2322.07	246
2324	240
2325.92	242
2327.84	256
2329.77	246
2331.69	260
2333.61	240
2335.53	226
2337.45	226
2339.37	240
2341.29	242
2343.21	238
2345.13	244
2347.05	234
2348.97	254
2350.88	220
2352.8	242
2354.71	220
2356.63	242
2358.54	232
2360.46	234
2362.37	240
2364.28	220
2366.2	234
2368.11	242
2370.02	228
2371.93	236
2373.84	238
2375.75	234
2377.66	236
2379.57	248
2381.47	222
2383.38	244
2385.29	248
2387.2	246
2389.1	228
2391.01	244
2392.91	246
2394.81	246
2396.72	254
2398.62	260
2400.52	246
2402.42	232
2404.33	250
2406.23	246
2408.13	246
2410.03	256
2411.92	230
2413.82	250
2415.72	236
2417.62	240
2419.51	238
2421.41	248
2423.31	230
2425.2	228
2427.1	214
2428.99	236
2430.88	242
2432.78	232
2434.67	238
2436.56	234
2438.45	238
2440.34	230
2442.23	230
2444.12	254
2446.01	240
2447.9	236
2449.79	236