File: Jesse_Dataset_v2/Pure Raman/Polypropylene oxide/633nm/ps-ppo-7jan25-0,0000-map2_Y05_X01.txt
182.393	720
184.993	672
187.593	664
190.193	614
192.79	604
195.387	582
197.983	562
200.578	532
203.174	514
205.766	504
208.36	478
210.951	482
213.542	444
216.131	442
218.721	470
221.309	520
223.897	602
226.483	740
229.069	948
231.654	1188
234.238	1282
236.821	1286
239.404	1142
241.984	1042
244.566	908
247.145	776
249.723	666
252.302	556
254.878	480
257.455	412
260.03	372
262.604	358
265.178	326
267.75	304
270.322	290
272.893	280
275.463	290
278.032	304
280.601	300
283.168	350
285.734	384
288.301	458
290.866	552
293.429	606
295.992	640
298.556	612
301.117	572
303.677	496
306.236	492
308.795	456
311.354	414
313.911	390
316.467	392
319.022	370
321.577	352
324.13	388
326.684	374
329.236	398
331.787	410
334.337	420
336.887	394
339.435	366
341.983	374
344.529	356
347.075	344
349.621	356
352.165	356
354.708	356
357.251	382
359.793	360
362.334	338
364.874	314
367.413	324
369.951	350
372.489	352
375.026	354
377.562	308
380.097	292
382.631	274
385.164	266
387.697	244
390.229	240
392.76	248
395.29	248
397.819	226
400.346	260
402.873	234
405.4	262
407.926	286
410.451	326
412.976	354
415.499	378
418.02	330
420.542	324
423.063	276
425.583	268
428.101	240
430.619	220
433.137	198
435.654	210
438.169	178
440.684	192
443.198	190
445.712	182
448.223	188
450.735	180
453.246	168
455.755	176
458.264	182
460.771	164
463.279	198
465.786	220
468.291	264
470.796	288
473.301	318
475.803	342
478.306	410
480.807	454
483.308	478
485.807	526
488.307	460
490.804	330
493.302	294
495.798	282
498.294	234
500.788	222
503.283	220
505.775	242
508.269	258
510.759	320
513.251	422
515.74	368
518.23	304
520.718	318
523.204	316
525.692	316
528.177	392
530.663	468
533.147	598
535.629	676
538.113	802
540.594	774
543.074	710
545.555	564
548.034	458
550.512	394
552.989	380
555.467	446
557.942	550
560.417	692
562.892	1044
565.365	1660
567.838	2718
570.309	3802
572.78	3822
575.251	2688
577.72	1582
580.189	938
582.656	678
585.123	662
587.589	610
590.055	554
592.52	540
594.983	508
597.446	440
599.908	378
602.369	308
604.829	286
607.289	246
609.747	238
612.205	238
614.663	202
617.119	220
619.574	234
622.029	250
624.483	238
626.936	272
629.389	302
631.84	310
634.291	328
636.741	320
639.19	292
641.639	294
644.086	268
646.533	256
648.979	250
651.424	230
653.869	224
656.313	228
658.754	194
661.196	200
663.638	182
666.078	188
668.518	188
670.957	172
673.394	174
675.831	176
678.268	166
680.703	166
683.137	158
685.571	174
688.005	184
690.437	168
692.868	176
695.299	184
697.729	168
700.159	192
702.586	194
705.014	174
707.441	198
709.866	220
712.292	220
714.716	256
717.14	240
719.563	218
721.984	208
724.406	200
726.825	196
729.246	198
731.665	218
734.082	218
736.5	220
738.916	222
741.332	240
743.746	294
746.161	330
748.574	350
750.987	322
753.398	280
755.81	290
758.219	254
760.629	214
763.037	208
765.445	206
767.852	190
770.258	202
772.664	214
775.068	218
777.472	218
779.876	220
782.278	240
784.679	214
787.08	202
789.48	196
791.879	212
794.278	198
796.675	200
799.072	180
801.467	202
803.864	214
806.258	212
808.651	210
811.044	214
813.437	218
815.828	224
818.218	248
820.608	260
822.997	280
825.385	354
827.773	508
830.16	836
832.546	1178
834.931	1120
837.315	662
839.699	398
842.081	306
844.463	288
846.844	276
849.226	278
851.606	270
853.985	264
856.363	242
858.741	228
861.117	256
863.493	220
865.868	190
868.243	198
870.616	188
872.989	202
875.36	202
877.731	190
880.102	194
882.472	194
884.841	192
887.209	194
889.577	190
891.944	188
894.31	178
896.674	182
899.039	186
901.403	170
903.766	188
906.128	170
908.49	188
910.849	176
913.209	184
915.569	176
917.927	192
920.284	174
922.641	192
924.997	188
927.353	186
929.707	192
932.061	192
934.414	202
936.765	210
939.117	220
941.469	214
943.818	248
946.167	312
948.515	332
950.863	428
953.211	558
955.556	704
957.902	878
960.246	992
962.59	862
964.933	760
967.276	654
969.617	534
971.958	442
974.298	368
976.638	304
978.976	292
981.314	248
983.651	228
985.988	216
988.323	212
990.659	220
992.992	232
995.325	204
997.658	210
999.99	214
1002.32	208
1004.65	208
1006.98	206
1009.31	210
1011.64	192
1013.97	208
1016.29	232
1018.62	246
1020.94	248
1023.27	234
1025.59	258
1027.91	262
1030.24	264
1032.56	294
1034.88	278
1037.2	278
1039.52	256
1041.84	262
1044.15	254
1046.47	242
1048.79	242
1051.1	230
1053.42	226
1055.73	214
1058.04	210
1060.36	212
1062.67	206
1064.98	196
1067.29	198
1069.6	198
1071.91	212
1074.22	192
1076.52	206
1078.83	200
1081.14	222
1083.44	208
1085.75	216
1088.05	194
1090.35	222
1092.65	212
1094.95	220
1097.26	216
1099.56	248
1101.86	234
1104.15	292
1106.45	392
1108.75	604
1111.05	828
1113.34	956
1115.64	780
1117.93	512
1120.22	392
1122.52	320
1124.81	296
1127.1	276
1129.39	254
1131.68	234
1133.97	254
1136.26	260
1138.54	252
1140.83	250
1143.12	256
1145.4	250
1147.69	222
1149.97	234
1152.25	210
1154.54	230
1156.82	258
1159.1	268
1161.38	292
1163.66	286
1165.94	274
1168.22	270
1170.49	250
1172.77	270
1175.05	284
1177.32	296
1179.6	342
1181.87	466
1184.14	590
1186.42	636
1188.69	610
1190.96	508
1193.23	440
1195.5	422
1197.77	436
1200.03	444
1202.3	494
1204.57	480
1206.83	426
1209.1	384
1211.36	302
1213.63	256
1215.89	238
1218.15	234
1220.41	258
1222.67	254
1224.93	290
1227.19	320
1229.45	348
1231.71	374
1233.97	298
1236.22	270
1238.48	254
1240.73	236
1242.99	238
1245.24	230
1247.5	230
1249.75	240
1252	234
1254.25	232
1256.5	226
1258.75	252
1261	238
1263.25	234
1265.49	256
1267.74	256
1269.99	250
1272.23	262
1274.48	276
1276.72	294
1278.96	298
1281.21	346
1283.45	358
1285.69	402
1287.93	390
1290.17	442
1292.41	538
1294.64	612
1296.88	786
1299.12	1124
1301.36	1596
1303.59	2088
1305.82	2302
1308.06	1906
1310.29	1306
1312.52	1024
1314.76	738
1316.99	636
1319.22	524
1321.45	508
1323.68	456
1325.9	464
1328.13	452
1330.36	438
1332.58	394
1334.81	390
1337.04	364
1339.26	334
1341.48	338
1343.71	356
1345.93	384
1348.15	394
1350.37	376
1352.59	402
1354.81	354
1357.03	348
1359.24	334
1361.46	316
1363.68	322
1365.89	300
1368.11	344
1370.32	418
1372.54	556
1374.75	762
1376.96	980
1379.17	1044
1381.38	1064
1383.59	926
1385.8	734
1388.01	524
1390.22	402
1392.43	324
1394.63	294
1396.84	282
1399.05	294
1401.25	294
1403.45	274
1405.66	276
1407.86	288
1410.06	296
1412.26	290
1414.46	302
1416.66	328
1418.86	372
1421.06	382
1423.26	410
1425.46	418
1427.65	428
1429.85	450
1432.04	440
1434.24	466
1436.43	504
1438.62	556
1440.82	514
1443.01	488
1445.2	470
1447.39	430
1449.58	420
1451.77	398
1453.95	414
1456.14	398
1458.33	378
1460.52	386
1462.7	372
1464.89	386
1467.07	368
1469.25	406
1471.44	356
1473.62	372
1475.8	370
1477.98	390
1480.16	344
1482.34	344
1484.52	350
1486.7	302
1488.87	310
1491.05	288
1493.23	284
1495.4	284
1497.58	274
1499.75	278
1501.92	278
1504.1	286
1506.27	272
1508.44	276
1510.61	300
1512.78	312
1514.95	260
1517.12	272
1519.28	270
1521.45	276
1523.62	264
1525.78	282
1527.95	272
1530.11	290
1532.28	270
1534.44	276
1536.6	278
1538.76	278
1540.93	272
1543.09	288
1545.25	268
1547.41	290
1549.56	302
1551.72	280
1553.88	286
1556.03	294
1558.19	286
1560.35	302
1562.5	294
1564.65	302
1566.81	320
1568.96	328
1571.11	332
1573.26	364
1575.41	348
1577.56	400
1579.71	432
1581.86	460
1584.01	494
1586.15	584
1588.3	714
1590.45	768
1592.59	924
1594.74	1066
1596.88	1230
1599.02	1378
1601.17	1518
1603.31	1516
1605.45	1456
1607.59	1338
1609.73	1152
1611.87	1010
1614.01	888
1616.14	728
1618.28	638
1620.42	528
1622.55	454
1624.69	410
1626.82	364
1628.96	304
1631.09	294
1633.22	302
1635.36	302
1637.49	280
1639.62	266
1641.75	258
1643.88	258
1646	260
1648.13	234
1650.26	250
1652.39	254
1654.51	240
1656.64	232
1658.76	242
1660.89	234
1663.01	262
1665.13	230
1667.26	242
1669.38	240
1671.5	236
1673.62	234
1675.74	240
1677.86	242
1679.97	224
1682.09	250
1684.21	240
1686.33	244
1688.44	262
1690.56	238
1692.67	254
1694.78	258
1696.9	258
1699.01	250
1701.12	248
1703.23	258
1705.34	234
1707.45	230
1709.56	224
1711.67	244
1713.78	230
1715.88	240
1717.99	256
1720.1	212
1722.2	226
1724.31	226
1726.41	220
1728.51	228
1730.62	238
1732.72	222
1734.82	204
1736.92	200
1739.02	226
1741.12	212
1743.22	210
1745.32	214
1747.42	224
1749.51	210
1751.61	220
1753.7	204
1755.8	212
1757.89	212
1759.99	216
1762.08	220
1764.17	220
1766.26	206
1768.36	210
1770.45	214
1772.54	206
1774.62	230
1776.71	210
1778.8	198
1780.89	208
1782.98	218
1785.06	196
1787.15	206
1789.23	220
1791.32	214
1793.4	208
1795.48	194
1797.56	210
1799.65	222
1801.73	228
1803.81	228
1805.89	204
1807.97	196
1810.04	226
1812.12	232
1814.2	224
1816.28	204
1818.35	194
1820.43	206
1822.5	214
1824.58	198
1826.65	242
1828.72	214
1830.79	208
1832.86	214
1834.94	208
1837.01	230
1839.08	226
1841.15	226
1843.21	218
1845.28	206
1847.35	216
1849.41	214
1851.48	224
1853.55	206
1855.61	220
1857.67	196
1859.74	222
1861.8	214
1863.86	220
1865.92	210
1867.98	202
1870.05	202
1872.1	222
1874.16	232
1876.22	228
1878.28	216
1880.34	192
1882.39	230
1884.45	214
1886.5	218
1888.56	230
1890.61	204
1892.67	220
1894.72	210
1896.77	218
1898.82	204
1900.87	216
1902.92	206
1904.97	226
1907.02	214
1909.07	212
1911.12	210
1913.17	232
1915.21	212
1917.26	220
1919.3	214
1921.35	220
1923.39	210
1925.43	218
1927.48	202
1929.52	218
1931.56	216
1933.6	214
1935.64	222
1937.68	216
1939.72	198
1941.76	220
1943.8	218
1945.83	214
1947.87	226
1949.91	222
1951.94	224
1953.98	220
1956.01	200
1958.05	204
1960.08	210
1962.11	198
1964.14	200
1966.17	222
1968.2	218
1970.23	202
1972.26	212
1974.29	204
1976.32	226
1978.35	196
1980.37	206
1982.4	226
1984.43	224
1986.45	212
1988.48	204
1990.5	204
1992.52	216
1994.55	226
1996.57	222
1998.59	212
2000.61	214
2002.63	198
2004.65	216
2006.67	212
2008.69	218
2010.7	218
2012.72	210
2014.74	224
2016.75	210
2018.77	214
2020.78	214
2022.8	214
2024.81	216
2026.83	216
2028.84	216
2030.85	206
2032.86	224
2034.87	210
2036.88	202
2038.89	212
2040.9	216
2042.91	204
2044.91	218
2046.92	206
2048.93	222
2050.93	208
2052.94	198
2054.94	212
2056.95	234
2058.95	224
2060.95	210
2062.95	208
2064.96	244
2066.96	218
2068.96	228
2070.96	214
2072.96	220
2074.95	212
2076.95	208
2078.95	220
2080.95	214
2082.94	230
2084.94	228
2086.93	218
2088.93	212
2090.92	202
2092.91	208
2094.91	222
2096.9	238
2098.89	214
2100.88	204
2102.87	224
2104.86	220
2106.85	220
2108.84	222
2110.83	232
2112.81	216
2114.8	216
2116.78	220
2118.77	214
2120.75	220
2122.74	218
2124.72	228
2126.71	222
2128.69	216
2130.67	234
2132.65	224
2134.63	228
2136.61	204
2138.59	212
2140.57	226
2142.55	196
2144.53	222
2146.5	216
2148.48	226
2150.46	226
2152.43	208
2154.41	232
2156.38	212
2158.35	244
2160.33	220
2162.3	228
2164.27	216
2166.24	208
2168.21	226
2170.18	236
2172.15	216
2174.12	228
2176.09	204
2178.06	232
2180.03	206
2181.99	210
2183.96	212
2185.92	198
2187.89	196
2189.85	208
2191.82	230
2193.78	232
2195.74	218
2197.7	230
2199.67	206
2201.63	214
2203.59	204
2205.55	214
2207.51	222
2209.46	218
2211.42	200
2213.38	228
2215.34	222
2217.29	208
2219.25	202
2221.2	208
2223.16	204
2225.11	202
2227.06	220
2229.02	214
2230.97	216
2232.92	198
2234.87	208
2236.82	194
2238.77	216
2240.72	196
2242.67	220
2244.62	204
2246.57	232
2248.51	216
2250.46	228
2252.4	208
2254.35	238
2256.29	202
2258.24	234
2260.18	226
2262.13	208
2264.07	218
2266.01	226
2267.95	228
2269.89	210
2271.83	212
2273.77	214
2275.71	206
2277.65	220
2279.58	214
2281.52	214
2283.46	228
2285.4	236
2287.33	224
2289.27	218
2291.2	232
2293.13	198
2295.07	232
2297	216
2298.93	220
2300.86	216
2302.79	226
2304.72	214
2306.65	218
2308.58	228
2310.51	220
2312.44	244
2314.37	218
2316.29	222
2318.22	228
2320.15	230
2322.07	224
2324	230
2325.92	226
2327.84	214
2329.77	226
2331.69	222
2333.61	216
2335.53	216
2337.45	228
2339.37	238
2341.29	222
2343.21	218
2345.13	216
2347.05	244
2348.97	216
2350.88	214
2352.8	216
2354.71	208
2356.63	216
2358.54	208
2360.46	236
2362.37	220
2364.28	204
2366.2	232
2368.11	222
2370.02	222
2371.93	226
2373.84	226
2375.75	222
2377.66	214
2379.57	218
2381.47	224
2383.38	222
2385.29	226
2387.2	226
2389.1	240
2391.01	214
2392.91	220
2394.81	220
2396.72	216
2398.62	228
2400.52	222
2402.42	240
2404.33	214
2406.23	232
2408.13	236
2410.03	242
2411.92	220
2413.82	210
2415.72	224
2417.62	224
2419.51	226
2421.41	194
2423.31	216
2425.2	222
2427.1	218
2428.99	210
2430.88	220
2432.78	202
2434.67	216
2436.56	220
2438.45	216
2440.34	214
2442.23	202
2444.12	226
2446.01	218
2447.9	212
2449.79	208