File: Mixture_Classification/Jesse_Dataset_v2/Pure Raman/Polystyrene/785nm/ps-ppo-6jan25-1,0000-map3_Y06_X04.txt
204.377	844
206.045	880
207.713	844
209.38	876
211.048	882
212.715	924
214.381	910
216.047	922
217.712	924
219.377	920
221.042	926
222.706	920
224.369	888
226.032	864
227.695	828
229.357	762
231.019	716
232.68	690
234.341	622
236.001	584
237.661	564
239.321	514
240.98	466
242.639	428
244.297	400
245.955	356
247.612	334
249.268	332
250.924	326
252.58	320
254.236	302
255.891	286
257.546	288
259.2	270
260.854	280
262.507	288
264.16	272
265.812	264
267.463	250
269.115	258
270.766	258
272.417	254
274.067	262
275.717	242
277.365	238
279.014	248
280.663	244
282.311	234
283.958	232
285.605	208
287.252	218
288.898	210
290.543	196
292.188	198
293.833	200
295.477	190
297.121	184
298.765	188
300.407	182
302.05	168
303.693	186
305.334	184
306.975	188
308.615	182
310.256	180
311.896	192
313.535	184
315.175	182
316.813	176
318.451	192
320.089	170
321.726	186
323.362	176
324.999	198
326.635	146
328.271	184
329.905	166
331.54	184
333.174	190
334.807	180
336.441	176
338.074	180
339.707	176
341.338	172
342.969	178
344.601	178
346.231	170
347.861	168
349.491	174
351.12	174
352.749	164
354.378	160
356.006	158
357.633	168
359.261	154
360.887	166
362.513	158
364.139	162
365.764	166
367.39	172
369.014	166
370.638	172
372.261	172
373.884	168
375.508	182
377.13	170
378.752	190
380.373	174
381.994	182
383.615	190
385.235	186
386.854	194
388.473	188
390.092	188
391.711	200
393.328	208
394.947	210
396.564	214
398.181	204
399.797	226
401.412	232
403.027	238
404.642	258
406.257	258
407.871	236
409.484	244
411.098	238
412.711	222
414.323	212
415.935	188
417.547	202
419.158	188
420.768	194
422.378	176
423.988	182
425.597	180
427.206	150
428.814	170
430.422	160
432.03	166
433.637	168
435.243	156
436.85	152
438.456	166
440.062	146
441.666	154
443.271	158
444.876	150
446.479	140
448.082	142
449.685	130
451.287	132
452.89	130
454.492	130
456.092	128
457.693	130
459.293	118
460.893	130
462.492	126
464.092	128
465.691	126
467.288	124
468.887	122
470.483	126
472.081	126
473.677	134
475.273	128
476.869	124
478.463	120
480.059	116
481.653	108
483.247	124
484.84	122
486.433	118
488.026	118
489.618	110
491.21	108
492.801	118
494.392	108
495.983	106
497.573	118
499.162	118
500.752	114
502.341	130
503.929	124
505.517	120
507.105	128
508.692	116
510.279	118
511.865	132
513.45	128
515.037	118
516.621	126
518.206	110
519.79	142
521.374	130
522.957	138
524.54	124
526.123	132
527.705	130
529.287	140
530.868	148
532.448	154
534.029	150
535.609	158
537.188	152
538.768	172
540.346	172
541.925	164
543.502	168
545.08	170
546.657	168
548.234	168
549.81	168
551.386	164
552.961	142
554.536	166
556.11	150
557.684	144
559.258	150
560.832	148
562.405	152
563.977	148
565.55	158
567.12	150
568.692	146
570.263	148
571.833	156
573.403	150
574.973	148
576.542	140
578.111	138
579.679	138
581.247	132
582.815	126
584.382	130
585.948	126
587.514	136
589.081	116
590.645	126
592.211	126
593.775	124
595.339	120
596.904	136
598.466	132
600.03	132
601.592	126
603.154	136
604.715	144
606.277	164
607.838	174
609.398	156
610.958	166
612.518	190
614.077	200
615.636	236
617.194	318
618.753	538
620.31	706
621.867	684
623.424	472
624.98	288
626.537	212
628.092	182
629.647	174
631.202	148
632.756	138
634.31	148
635.864	118
637.417	104
638.969	112
640.521	98
642.074	92
643.625	96
645.176	98
646.726	94
648.276	88
649.827	96
651.376	94
652.925	96
654.473	88
656.021	96
657.569	98
659.117	86
660.664	86
662.21	90
663.757	88
665.302	86
666.847	84
668.392	84
669.937	94
671.481	92
673.025	82
674.568	84
676.111	80
677.653	84
679.195	92
680.737	82
682.279	94
683.82	88
685.36	74
686.9	84
688.44	90
689.979	82
691.517	96
693.056	94
694.594	88
696.132	102
697.669	106
699.206	108
700.742	122
702.278	112
703.814	112
705.35	112
706.884	104
708.419	110
709.953	92
711.487	94
713.019	114
714.552	106
716.085	90
717.617	112
719.148	114
720.68	126
722.21	142
723.741	152
725.271	164
726.8	146
728.33	142
729.858	134
731.387	138
732.915	136
734.443	136
735.97	150
737.497	180
739.023	180
740.549	192
742.075	206
743.6	194
745.125	190
746.65	196
748.173	198
749.697	206
751.22	210
752.743	222
754.266	214
755.788	242
757.309	220
758.831	248
760.351	240
761.871	236
763.392	252
764.912	232
766.431	232
767.95	220
769.468	206
770.986	204
772.504	200
774.022	196
775.538	186
777.055	200
778.571	214
780.086	210
781.602	226
783.117	246
784.632	274
786.146	294
787.659	296
789.173	320
790.685	336
792.198	348
793.71	322
795.222	358
796.733	338
798.244	336
799.755	318
801.265	284
802.775	270
804.284	228
805.793	220
807.302	204
808.81	200
810.318	192
811.826	172
813.333	168
814.84	156
816.346	132
817.851	146
819.357	140
820.862	134
822.367	128
823.871	124
825.376	118
826.878	108
828.382	112
829.885	116
831.387	120
832.889	126
834.391	136
835.892	140
837.392	154
838.893	162
840.393	164
841.893	182
843.392	168
844.891	160
846.389	164
847.888	156
849.386	136
850.882	146
852.38	140
853.876	138
855.372	132
856.868	136
858.363	136
859.858	132
861.353	132
862.847	134
864.341	132
865.834	136
867.328	124
868.82	130
870.313	134
871.805	140
873.296	118
874.787	126
876.278	132
877.769	132
879.258	110
880.748	116
882.237	116
883.726	122
885.214	126
886.702	108
888.19	116
889.677	118
891.164	110
892.651	120
894.137	122
895.623	124
897.108	132
898.593	130
900.077	124
901.562	148
903.046	146
904.529	164
906.012	152
907.495	156
908.977	150
910.459	144
911.941	130
913.422	124
914.903	112
916.383	118
917.863	116
919.343	112
920.822	98
922.301	106
923.779	98
925.257	100
926.735	108
928.213	102
929.69	98
931.166	106
932.643	102
934.119	102
935.594	102
937.069	110
938.543	100
940.018	106
941.492	110
942.966	100
944.439	100
945.911	106
947.384	104
948.856	108
950.328	100
951.799	104
953.27	110
954.741	104
956.21	110
957.68	108
959.15	118
960.619	122
962.088	132
963.556	136
965.023	126
966.491	130
967.958	130
969.425	136
970.891	122
972.357	138
973.824	134
975.288	148
976.754	156
978.218	178
979.682	180
981.146	212
982.609	228
984.072	238
985.534	294
986.997	306
988.459	422
989.92	588
991.382	744
992.842	830
994.302	786
995.763	876
997.222	1200
998.681	1966
1000.14	2950
1001.6	3302
1003.06	2870
1004.52	1934
1005.97	1174
1007.43	684
1008.89	444
1010.34	314
1011.8	244
1013.25	210
1014.71	200
1016.16	182
1017.62	184
1019.07	204
1020.53	222
1021.98	264
1023.43	306
1024.89	386
1026.34	502
1027.79	636
1029.24	760
1030.69	852
1032.14	934
1033.59	820
1035.04	696
1036.49	532
1037.94	410
1039.39	322
1040.84	272
1042.29	230
1043.73	216
1045.18	202
1046.63	178
1048.08	170
1049.52	156
1050.97	164
1052.41	160
1053.86	152
1055.3	144
1056.75	164
1058.19	160
1059.64	158
1061.08	150
1062.52	180
1063.96	174
1065.41	176
1066.85	184
1068.29	174
1069.73	184
1071.17	182
1072.61	188
1074.05	172
1075.49	182
1076.93	170
1078.37	158
1079.81	172
1081.25	158
1082.68	172
1084.12	162
1085.56	166
1087	164
1088.43	172
1089.87	154
1091.3	174
1092.74	178
1094.17	166
1095.61	184
1097.04	170
1098.48	180
1099.91	182
1101.34	154
1102.78	158
1104.21	156
1105.64	150
1107.07	144
1108.5	146
1109.93	132
1111.36	138
1112.8	142
1114.22	128
1115.65	130
1117.08	120
1118.51	110
1119.94	106
1121.37	124
1122.8	102
1124.22	110
1125.65	110
1127.08	108
1128.5	98
1129.93	112
1131.35	110
1132.78	108
1134.2	110
1135.63	120
1137.05	112
1138.48	110
1139.9	128
1141.32	130
1142.75	146
1144.17	168
1145.59	166
1147.01	168
1148.43	194
1149.85	224
1151.27	296
1152.69	346
1154.11	400
1155.53	434
1156.95	378
1158.37	342
1159.79	298
1161.21	268
1162.62	226
1164.04	214
1165.46	212
1166.87	212
1168.29	224
1169.71	214
1171.12	212
1172.54	250
1173.95	266
1175.37	300
1176.78	360
1178.19	402
1179.61	482
1181.02	514
1182.43	520
1183.84	512
1185.26	458
1186.67	442
1188.08	428
1189.49	438
1190.9	480
1192.31	478
1193.72	474
1195.13	516
1196.54	512
1197.95	502
1199.36	500
1200.76	484
1202.17	468
1203.58	456
1204.99	402
1206.39	378
1207.8	354
1209.2	324
1210.61	302
1212.01	254
1213.42	250
1214.82	222
1216.23	224
1217.63	214
1219.03	206
1220.44	202
1221.84	214
1223.24	210
1224.64	204
1226.05	204
1227.45	178
1228.85	180
1230.25	184
1231.65	176
1233.05	184
1234.45	178
1235.85	170
1237.25	148
1238.64	180
1240.04	152
1241.44	176
1242.84	170
1244.23	166
1245.63	160
1247.03	174
1248.42	162
1249.82	162
1251.21	172
1252.61	160
1254	160
1255.4	180
1256.79	162
1258.19	176
1259.58	156
1260.97	168
1262.36	172
1263.76	160
1265.15	164
1266.54	164
1267.93	172
1269.32	170
1270.71	176
1272.1	158
1273.49	184
1274.88	168
1276.27	164
1277.66	170
1279.05	164
1280.43	178
1281.82	172
1283.21	170
1284.6	164
1285.98	184
1287.37	176
1288.75	184
1290.14	196
1291.53	196
1292.91	196
1294.29	192
1295.68	202
1297.06	210
1298.45	192
1299.83	206
1301.21	214
1302.59	220
1303.98	220
1305.36	220
1306.74	246
1308.12	212
1309.5	224
1310.88	238
1312.26	220
1313.64	254
1315.02	234
1316.4	240
1317.78	266
1319.16	266
1320.53	270
1321.91	278
1323.29	278
1324.67	292
1326.04	274
1327.42	288
1328.79	270
1330.17	310
1331.54	296
1332.92	296
1334.29	290
1335.67	284
1337.04	268
1338.42	272
1339.79	284
1341.16	264
1342.53	266
1343.91	272
1345.28	258
1346.65	268
1348.02	272
1349.39	262
1350.76	270
1352.13	268
1353.5	276
1354.87	268
1356.24	258
1357.61	258
1358.98	274
1360.34	264
1361.71	292
1363.08	284
1364.45	272
1365.81	252
1367.18	264
1368.54	298
1369.91	268
1371.28	294
1372.64	286
1374.01	282
1375.37	278
1376.73	280
1378.1	282
1379.46	262
1380.82	268
1382.19	256
1383.55	238
1384.91	232
1386.27	246
1387.63	248
1388.99	234
1390.35	236
1391.71	240
1393.07	246
1394.43	228
1395.79	254
1397.15	236
1398.51	222
1399.87	246
1401.23	230
1402.58	232
1403.94	230
1405.3	228
1406.65	226
1408.01	228
1409.37	216
1410.72	232
1412.08	224
1413.43	226
1414.79	208
1416.14	220
1417.49	222
1418.85	208
1420.2	226
1421.55	220
1422.91	214
1424.26	218
1425.61	214
1426.96	214
1428.31	216
1429.66	226
1431.01	216
1432.36	248
1433.71	238
1435.06	260
1436.41	250
1437.76	256
1439.11	290
1440.46	268
1441.81	294
1443.15	302
1444.5	318
1445.85	324
1447.19	334
1448.54	318
1449.89	312
1451.23	326
1452.58	304
1453.92	320
1455.27	308
1456.61	282
1457.95	252
1459.3	228
1460.64	212
1461.98	208
1463.33	214
1464.67	208
1466.01	212
1467.35	198
1468.69	202
1470.03	184
1471.37	188
1472.71	190
1474.05	188
1475.39	192
1476.73	188
1478.07	188
1479.41	198
1480.75	182
1482.09	172
1483.42	186
1484.76	184
1486.1	184
1487.43	172
1488.77	184
1490.11	180
1491.44	176
1492.78	188
1494.11	184
1495.45	190
1496.78	178
1498.12	186
1499.45	180
1500.78	168
1502.11	184
1503.45	160
1504.78	174
1506.11	166
1507.44	162
1508.77	180
1510.11	162
1511.44	168
1512.77	178
1514.1	162
1515.43	164
1516.76	170
1518.08	164
1519.41	168
1520.74	164
1522.07	174
1523.4	168
1524.72	170
1526.05	170
1527.38	162
1528.7	170
1530.03	164
1531.36	170
1532.68	172
1534.01	162
1535.33	154
1536.66	166
1537.98	156
1539.3	164
1540.63	164
1541.95	170
1543.27	182
1544.6	164
1545.92	164
1547.24	160
1548.56	148
1549.88	158
1551.2	162
1552.52	170
1553.84	166
1555.17	158
1556.48	164
1557.8	168
1559.12	166
1560.44	174
1561.76	168
1563.08	160
1564.4	170
1565.71	166
1567.03	154
1568.35	168
1569.66	178
1570.98	182
1572.29	190
1573.61	196
1574.93	200
1576.24	216
1577.55	242
1578.87	270
1580.18	312
1581.5	402
1582.81	432
1584.12	388
1585.43	348
1586.75	304
1588.06	268
1589.37	258
1590.68	254
1591.99	270
1593.3	274
1594.61	324
1595.92	344
1597.23	456
1598.54	528
1599.85	596
1601.16	686
1602.47	676
1603.78	648
1605.08	542
1606.39	484
1607.7	384
1609	308
1610.31	278
1611.62	234
1612.92	208
1614.23	216
1615.53	214
1616.84	198
1618.14	184
1619.45	166
1620.75	162
1622.06	162
1623.36	166
1624.66	174
1625.96	166
1627.27	162
1628.57	152
1629.87	152
1631.17	154
1632.47	148
1633.77	146
1635.07	154
1636.37	152
1637.67	160
1638.97	156
1640.27	152
1641.57	162
1642.87	144
1644.17	148
1645.47	150
1646.76	148
1648.06	152
1649.36	158
1650.66	150
1651.95	140
1653.25	134
1654.54	142
1655.84	144
1657.13	136
1658.43	140
1659.72	144
1661.02	134
1662.31	128
1663.6	128
1664.9	132
1666.19	140
1667.48	134
1668.78	128
1670.07	126
1671.36	134
1672.65	134
1673.94	136
1675.23	118
1676.52	126
1677.81	126
1679.1	128
1680.39	126
1681.68	126
1682.97	126
1684.26	134
1685.55	132
1686.83	130
1688.12	136
1689.41	120
1690.7	116
1691.98	132
1693.27	116
1694.55	128
1695.84	122
1697.13	130
1698.41	118
1699.69	122
1700.98	124
1702.26	122