File: Mixture_Classification/Jesse_Dataset_v2/Pure Raman/Polystyrene/785nm/ps-ppo-6jan25-1,0000-map3_Y06_X06.txt
204.377	828
206.045	856
207.713	874
209.38	870
211.048	912
212.715	884
214.381	882
216.047	888
217.712	896
219.377	912
221.042	966
222.706	900
224.369	848
226.032	846
227.695	836
229.357	766
231.019	714
232.68	664
234.341	632
236.001	582
237.661	544
239.321	490
240.98	468
242.639	402
244.297	380
245.955	380
247.612	344
249.268	326
250.924	302
252.58	312
254.236	302
255.891	282
257.546	284
259.2	274
260.854	268
262.507	258
264.16	256
265.812	256
267.463	274
269.115	266
270.766	254
272.417	250
274.067	246
275.717	222
277.365	226
279.014	230
280.663	214
282.311	222
283.958	198
285.605	216
287.252	216
288.898	194
290.543	182
292.188	200
293.833	172
295.477	174
297.121	178
298.765	174
300.407	162
302.05	170
303.693	166
305.334	164
306.975	172
308.615	182
310.256	176
311.896	180
313.535	158
315.175	162
316.813	174
318.451	170
320.089	166
321.726	176
323.362	170
324.999	178
326.635	168
328.271	168
329.905	180
331.54	170
333.174	170
334.807	186
336.441	172
338.074	174
339.707	168
341.338	156
342.969	168
344.601	162
346.231	174
347.861	148
349.491	152
351.12	158
352.749	152
354.378	150
356.006	140
357.633	156
359.261	148
360.887	154
362.513	150
364.139	154
365.764	148
367.39	148
369.014	154
370.638	158
372.261	152
373.884	158
375.508	176
377.13	162
378.752	168
380.373	178
381.994	174
383.615	168
385.235	188
386.854	178
388.473	190
390.092	188
391.711	196
393.328	196
394.947	190
396.564	194
398.181	196
399.797	208
401.412	214
403.027	244
404.642	238
406.257	250
407.871	236
409.484	236
411.098	192
412.711	206
414.323	198
415.935	190
417.547	172
419.158	174
420.768	164
422.378	160
423.988	154
425.597	160
427.206	150
428.814	152
430.422	152
432.03	148
433.637	128
435.243	144
436.85	136
438.456	146
440.062	136
441.666	146
443.271	134
444.876	132
446.479	144
448.082	116
449.685	130
451.287	122
452.89	114
454.492	118
456.092	110
457.693	104
459.293	118
460.893	116
462.492	112
464.092	100
465.691	116
467.288	112
468.887	116
470.483	116
472.081	102
473.677	114
475.273	98
476.869	98
478.463	100
480.059	96
481.653	102
483.247	94
484.84	100
486.433	98
488.026	102
489.618	100
491.21	102
492.801	102
494.392	112
495.983	102
497.573	102
499.162	108
500.752	108
502.341	106
503.929	120
505.517	106
507.105	98
508.692	106
510.279	104
511.865	110
513.45	102
515.037	108
516.621	118
518.206	114
519.79	110
521.374	108
522.957	114
524.54	120
526.123	128
527.705	118
529.287	128
530.868	130
532.448	144
534.029	140
535.609	146
537.188	154
538.768	144
540.346	142
541.925	158
543.502	142
545.08	140
546.657	158
548.234	142
549.81	150
551.386	136
552.961	144
554.536	132
556.11	136
557.684	150
559.258	128
560.832	134
562.405	140
563.977	134
565.55	136
567.12	136
568.692	134
570.263	128
571.833	136
573.403	142
574.973	128
576.542	136
578.111	134
579.679	112
581.247	110
582.815	116
584.382	114
585.948	116
587.514	108
589.081	110
590.645	108
592.211	104
593.775	122
595.339	110
596.904	122
598.466	106
600.03	112
601.592	120
603.154	116
604.715	138
606.277	142
607.838	144
609.398	154
610.958	144
612.518	144
614.077	184
615.636	210
617.194	332
618.753	488
620.31	722
621.867	700
623.424	480
624.98	268
626.537	200
628.092	154
629.647	150
631.202	126
632.756	120
634.31	112
635.864	98
637.417	94
638.969	98
640.521	96
642.074	92
643.625	84
645.176	72
646.726	76
648.276	82
649.827	84
651.376	86
652.925	80
654.473	72
656.021	72
657.569	80
659.117	72
660.664	84
662.21	78
663.757	72
665.302	82
666.847	78
668.392	82
669.937	72
671.481	78
673.025	82
674.568	78
676.111	72
677.653	84
679.195	72
680.737	78
682.279	78
683.82	78
685.36	80
686.9	74
688.44	70
689.979	74
691.517	78
693.056	78
694.594	82
696.132	88
697.669	84
699.206	94
700.742	96
702.278	110
703.814	104
705.35	96
706.884	94
708.419	96
709.953	94
711.487	96
713.019	98
714.552	102
716.085	96
717.617	96
719.148	112
720.68	128
722.21	128
723.741	152
725.271	142
726.8	130
728.33	124
729.858	122
731.387	122
732.915	120
734.443	142
735.97	148
737.497	164
739.023	174
740.549	186
742.075	188
743.6	190
745.125	184
746.65	192
748.173	182
749.697	198
751.22	196
752.743	208
754.266	210
755.788	226
757.309	224
758.831	236
760.351	222
761.871	236
763.392	222
764.912	230
766.431	222
767.95	218
769.468	204
770.986	204
772.504	204
774.022	180
775.538	194
777.055	208
778.571	206
780.086	222
781.602	224
783.117	238
784.632	254
786.146	274
787.659	302
789.173	304
790.685	306
792.198	320
793.71	330
795.222	348
796.733	356
798.244	328
799.755	314
801.265	270
802.775	254
804.284	232
805.793	194
807.302	190
808.81	184
810.318	188
811.826	160
813.333	166
814.84	158
816.346	136
817.851	138
819.357	128
820.862	124
822.367	122
823.871	110
825.376	106
826.878	112
828.382	110
829.885	118
831.387	112
832.889	116
834.391	126
835.892	136
837.392	138
838.893	156
840.393	166
841.893	164
843.392	162
844.891	150
846.389	154
847.888	134
849.386	128
850.882	120
852.38	134
853.876	132
855.372	120
856.868	134
858.363	122
859.858	126
861.353	124
862.847	124
864.341	124
865.834	120
867.328	132
868.82	122
870.313	118
871.805	120
873.296	120
874.787	116
876.278	122
877.769	118
879.258	118
880.748	112
882.237	114
883.726	106
885.214	122
886.702	114
888.19	114
889.677	108
891.164	102
892.651	112
894.137	122
895.623	120
897.108	118
898.593	130
900.077	124
901.562	130
903.046	140
904.529	144
906.012	152
907.495	140
908.977	150
910.459	134
911.941	126
913.422	122
914.903	116
916.383	118
917.863	110
919.343	100
920.822	92
922.301	100
923.779	98
925.257	90
926.735	94
928.213	94
929.69	96
931.166	100
932.643	94
934.119	96
935.594	92
937.069	96
938.543	94
940.018	104
941.492	100
942.966	102
944.439	98
945.911	108
947.384	108
948.856	102
950.328	102
951.799	88
953.27	104
954.741	104
956.21	100
957.68	106
959.15	116
960.619	118
962.088	124
963.556	126
965.023	126
966.491	124
967.958	116
969.425	136
970.891	134
972.357	130
973.824	132
975.288	136
976.754	158
978.218	158
979.682	180
981.146	200
982.609	216
984.072	260
985.534	280
986.997	306
988.459	418
989.92	598
991.382	770
992.842	844
994.302	806
995.763	870
997.222	1222
998.681	1964
1000.14	2900
1001.6	3336
1003.06	2880
1004.52	1978
1005.97	1170
1007.43	680
1008.89	472
1010.34	316
1011.8	254
1013.25	228
1014.71	194
1016.16	180
1017.62	186
1019.07	202
1020.53	218
1021.98	258
1023.43	316
1024.89	394
1026.34	482
1027.79	648
1029.24	780
1030.69	880
1032.14	860
1033.59	812
1035.04	684
1036.49	514
1037.94	404
1039.39	330
1040.84	270
1042.29	252
1043.73	206
1045.18	204
1046.63	176
1048.08	162
1049.52	170
1050.97	170
1052.41	166
1053.86	152
1055.3	152
1056.75	156
1058.19	152
1059.64	148
1061.08	156
1062.52	166
1063.96	158
1065.41	176
1066.85	172
1068.29	194
1069.73	176
1071.17	176
1072.61	176
1074.05	164
1075.49	176
1076.93	180
1078.37	162
1079.81	164
1081.25	168
1082.68	160
1084.12	168
1085.56	160
1087	172
1088.43	162
1089.87	168
1091.3	164
1092.74	176
1094.17	170
1095.61	178
1097.04	174
1098.48	174
1099.91	168
1101.34	178
1102.78	166
1104.21	166
1105.64	140
1107.07	150
1108.5	130
1109.93	134
1111.36	134
1112.8	126
1114.22	130
1115.65	108
1117.08	114
1118.51	126
1119.94	114
1121.37	114
1122.8	114
1124.22	102
1125.65	118
1127.08	114
1128.5	102
1129.93	108
1131.35	106
1132.78	112
1134.2	112
1135.63	112
1137.05	126
1138.48	118
1139.9	142
1141.32	138
1142.75	144
1144.17	146
1145.59	162
1147.01	160
1148.43	198
1149.85	222
1151.27	290
1152.69	342
1154.11	404
1155.53	420
1156.95	406
1158.37	334
1159.79	302
1161.21	252
1162.62	240
1164.04	206
1165.46	210
1166.87	198
1168.29	202
1169.71	222
1171.12	228
1172.54	246
1173.95	278
1175.37	304
1176.78	346
1178.19	422
1179.61	480
1181.02	514
1182.43	510
1183.84	502
1185.26	476
1186.67	440
1188.08	436
1189.49	444
1190.9	462
1192.31	478
1193.72	528
1195.13	508
1196.54	516
1197.95	516
1199.36	476
1200.76	488
1202.17	466
1203.58	452
1204.99	412
1206.39	388
1207.8	340
1209.2	314
1210.61	284
1212.01	278
1213.42	256
1214.82	232
1216.23	232
1217.63	224
1219.03	208
1220.44	218
1221.84	204
1223.24	208
1224.64	196
1226.05	190
1227.45	184
1228.85	194
1230.25	174
1231.65	190
1233.05	174
1234.45	170
1235.85	166
1237.25	182
1238.64	166
1240.04	174
1241.44	180
1242.84	164
1244.23	172
1245.63	170
1247.03	164
1248.42	172
1249.82	164
1251.21	174
1252.61	168
1254	174
1255.4	182
1256.79	172
1258.19	172
1259.58	168
1260.97	174
1262.36	178
1263.76	174
1265.15	166
1266.54	174
1267.93	166
1269.32	168
1270.71	162
1272.1	174
1273.49	174
1274.88	168
1276.27	168
1277.66	164
1279.05	164
1280.43	176
1281.82	174
1283.21	174
1284.6	168
1285.98	180
1287.37	180
1288.75	180
1290.14	188
1291.53	200
1292.91	192
1294.29	204
1295.68	204
1297.06	198
1298.45	202
1299.83	206
1301.21	208
1302.59	218
1303.98	210
1305.36	234
1306.74	226
1308.12	218
1309.5	208
1310.88	230
1312.26	232
1313.64	234
1315.02	254
1316.4	262
1317.78	262
1319.16	272
1320.53	284
1321.91	272
1323.29	292
1324.67	282
1326.04	302
1327.42	296
1328.79	300
1330.17	296
1331.54	304
1332.92	306
1334.29	308
1335.67	288
1337.04	302
1338.42	276
1339.79	278
1341.16	276
1342.53	268
1343.91	262
1345.28	244
1346.65	276
1348.02	260
1349.39	262
1350.76	258
1352.13	278
1353.5	272
1354.87	270
1356.24	278
1357.61	282
1358.98	260
1360.34	260
1361.71	282
1363.08	278
1364.45	266
1365.81	278
1367.18	276
1368.54	284
1369.91	280
1371.28	274
1372.64	290
1374.01	280
1375.37	278
1376.73	284
1378.1	270
1379.46	304
1380.82	268
1382.19	252
1383.55	262
1384.91	252
1386.27	262
1387.63	248
1388.99	254
1390.35	238
1391.71	238
1393.07	230
1394.43	236
1395.79	238
1397.15	242
1398.51	238
1399.87	242
1401.23	232
1402.58	236
1403.94	240
1405.3	242
1406.65	210
1408.01	234
1409.37	242
1410.72	222
1412.08	216
1413.43	224
1414.79	220
1416.14	210
1417.49	224
1418.85	222
1420.2	224
1421.55	234
1422.91	212
1424.26	220
1425.61	228
1426.96	224
1428.31	210
1429.66	224
1431.01	238
1432.36	232
1433.71	240
1435.06	246
1436.41	252
1437.76	274
1439.11	282
1440.46	294
1441.81	300
1443.15	304
1444.5	302
1445.85	312
1447.19	344
1448.54	332
1449.89	328
1451.23	330
1452.58	326
1453.92	314
1455.27	296
1456.61	282
1457.95	246
1459.3	250
1460.64	228
1461.98	224
1463.33	218
1464.67	200
1466.01	192
1467.35	216
1468.69	208
1470.03	194
1471.37	192
1472.71	188
1474.05	192
1475.39	188
1476.73	174
1478.07	188
1479.41	176
1480.75	186
1482.09	176
1483.42	182
1484.76	170
1486.1	188
1487.43	188
1488.77	192
1490.11	192
1491.44	192
1492.78	184
1494.11	200
1495.45	192
1496.78	186
1498.12	182
1499.45	186
1500.78	176
1502.11	182
1503.45	170
1504.78	162
1506.11	168
1507.44	164
1508.77	164
1510.11	172
1511.44	162
1512.77	160
1514.1	168
1515.43	170
1516.76	176
1518.08	176
1519.41	172
1520.74	178
1522.07	174
1523.4	162
1524.72	186
1526.05	174
1527.38	178
1528.7	162
1530.03	170
1531.36	156
1532.68	172
1534.01	172
1535.33	176
1536.66	168
1537.98	162
1539.3	160
1540.63	164
1541.95	164
1543.27	160
1544.6	170
1545.92	156
1547.24	154
1548.56	158
1549.88	168
1551.2	168
1552.52	162
1553.84	184
1555.17	166
1556.48	160
1557.8	170
1559.12	150
1560.44	172
1561.76	178
1563.08	178
1564.4	168
1565.71	174
1567.03	162
1568.35	168
1569.66	184
1570.98	184
1572.29	188
1573.61	192
1574.93	212
1576.24	222
1577.55	234
1578.87	282
1580.18	322
1581.5	408
1582.81	420
1584.12	400
1585.43	364
1586.75	304
1588.06	274
1589.37	260
1590.68	250
1591.99	258
1593.3	294
1594.61	304
1595.92	348
1597.23	418
1598.54	528
1599.85	600
1601.16	698
1602.47	688
1603.78	638
1605.08	566
1606.39	454
1607.7	390
1609	336
1610.31	276
1611.62	254
1612.92	220
1614.23	212
1615.53	210
1616.84	184
1618.14	184
1619.45	174
1620.75	182
1622.06	176
1623.36	164
1624.66	172
1625.96	158
1627.27	164
1628.57	158
1629.87	152
1631.17	154
1632.47	146
1633.77	154
1635.07	152
1636.37	156
1637.67	144
1638.97	156
1640.27	156
1641.57	154
1642.87	150
1644.17	154
1645.47	158
1646.76	164
1648.06	154
1649.36	154
1650.66	158
1651.95	138
1653.25	158
1654.54	138
1655.84	138
1657.13	138
1658.43	142
1659.72	144
1661.02	130
1662.31	140
1663.6	130
1664.9	130
1666.19	138
1667.48	126
1668.78	136
1670.07	130
1671.36	126
1672.65	146
1673.94	138
1675.23	134
1676.52	134
1677.81	138
1679.1	120
1680.39	124
1681.68	138
1682.97	128
1684.26	122
1685.55	134
1686.83	116
1688.12	134
1689.41	126
1690.7	128
1691.98	122
1693.27	124
1694.55	130
1695.84	120
1697.13	128
1698.41	124
1699.69	132
1700.98	122
1702.26	112