File: Mixture_Classification/Jesse_Dataset_v2/Pure Raman/Polystyrene/785nm/ps-ppo-6jan25-1,0000-map3_Y07_X06.txt
204.377	844
206.045	876
207.713	854
209.38	852
211.048	900
212.715	912
214.381	932
216.047	926
217.712	942
219.377	926
221.042	934
222.706	928
224.369	878
226.032	866
227.695	804
229.357	760
231.019	782
232.68	700
234.341	630
236.001	616
237.661	548
239.321	530
240.98	456
242.639	422
244.297	412
245.955	370
247.612	358
249.268	330
250.924	304
252.58	290
254.236	288
255.891	286
257.546	280
259.2	280
260.854	288
262.507	282
264.16	246
265.812	266
267.463	264
269.115	272
270.766	254
272.417	254
274.067	262
275.717	240
277.365	252
279.014	240
280.663	230
282.311	246
283.958	222
285.605	216
287.252	214
288.898	208
290.543	192
292.188	192
293.833	192
295.477	182
297.121	176
298.765	188
300.407	178
302.05	196
303.693	188
305.334	182
306.975	172
308.615	188
310.256	192
311.896	176
313.535	172
315.175	194
316.813	186
318.451	180
320.089	178
321.726	180
323.362	194
324.999	182
326.635	182
328.271	180
329.905	178
331.54	188
333.174	182
334.807	182
336.441	178
338.074	168
339.707	178
341.338	176
342.969	166
344.601	170
346.231	164
347.861	168
349.491	164
351.12	156
352.749	160
354.378	154
356.006	160
357.633	164
359.261	164
360.887	164
362.513	162
364.139	156
365.764	164
367.39	176
369.014	176
370.638	176
372.261	176
373.884	170
375.508	182
377.13	178
378.752	168
380.373	188
381.994	178
383.615	186
385.235	200
386.854	188
388.473	208
390.092	204
391.711	206
393.328	208
394.947	202
396.564	218
398.181	210
399.797	224
401.412	228
403.027	238
404.642	240
406.257	234
407.871	242
409.484	232
411.098	214
412.711	216
414.323	212
415.935	188
417.547	196
419.158	178
420.768	190
422.378	170
423.988	168
425.597	176
427.206	158
428.814	170
430.422	162
432.03	164
433.637	146
435.243	164
436.85	152
438.456	152
440.062	142
441.666	154
443.271	148
444.876	146
446.479	134
448.082	136
449.685	144
451.287	132
452.89	134
454.492	120
456.092	118
457.693	122
459.293	122
460.893	118
462.492	126
464.092	118
465.691	122
467.288	122
468.887	118
470.483	110
472.081	116
473.677	120
475.273	118
476.869	104
478.463	110
480.059	116
481.653	106
483.247	110
484.84	114
486.433	110
488.026	106
489.618	112
491.21	118
492.801	102
494.392	112
495.983	108
497.573	106
499.162	116
500.752	106
502.341	118
503.929	118
505.517	124
507.105	118
508.692	110
510.279	116
511.865	122
513.45	118
515.037	126
516.621	110
518.206	118
519.79	116
521.374	124
522.957	126
524.54	120
526.123	132
527.705	122
529.287	128
530.868	130
532.448	142
534.029	140
535.609	142
537.188	160
538.768	156
540.346	158
541.925	160
543.502	154
545.08	146
546.657	156
548.234	150
549.81	142
551.386	156
552.961	146
554.536	150
556.11	140
557.684	132
559.258	138
560.832	154
562.405	150
563.977	144
565.55	144
567.12	148
568.692	138
570.263	144
571.833	140
573.403	152
574.973	146
576.542	140
578.111	132
579.679	124
581.247	130
582.815	122
584.382	118
585.948	118
587.514	122
589.081	110
590.645	120
592.211	116
593.775	116
595.339	120
596.904	120
598.466	116
600.03	124
601.592	126
603.154	130
604.715	152
606.277	154
607.838	152
609.398	150
610.958	166
612.518	164
614.077	186
615.636	234
617.194	330
618.753	518
620.31	730
621.867	700
623.424	468
624.98	280
626.537	206
628.092	178
629.647	148
631.202	130
632.756	136
634.31	126
635.864	112
637.417	110
638.969	112
640.521	104
642.074	88
643.625	98
645.176	90
646.726	92
648.276	90
649.827	90
651.376	84
652.925	90
654.473	86
656.021	92
657.569	80
659.117	86
660.664	88
662.21	86
663.757	84
665.302	88
666.847	86
668.392	82
669.937	84
671.481	88
673.025	88
674.568	84
676.111	72
677.653	80
679.195	82
680.737	82
682.279	82
683.82	78
685.36	90
686.9	88
688.44	84
689.979	80
691.517	84
693.056	92
694.594	90
696.132	88
697.669	88
699.206	102
700.742	108
702.278	100
703.814	108
705.35	104
706.884	106
708.419	96
709.953	112
711.487	98
713.019	110
714.552	102
716.085	94
717.617	108
719.148	108
720.68	124
722.21	140
723.741	154
725.271	154
726.8	148
728.33	130
729.858	124
731.387	142
732.915	138
734.443	140
735.97	148
737.497	168
739.023	184
740.549	192
742.075	190
743.6	190
745.125	190
746.65	188
748.173	182
749.697	214
751.22	206
752.743	222
754.266	222
755.788	224
757.309	244
758.831	232
760.351	224
761.871	234
763.392	250
764.912	216
766.431	222
767.95	210
769.468	218
770.986	210
772.504	208
774.022	200
775.538	202
777.055	206
778.571	218
780.086	218
781.602	228
783.117	254
784.632	264
786.146	290
787.659	304
789.173	308
790.685	340
792.198	338
793.71	352
795.222	344
796.733	356
798.244	336
799.755	322
801.265	282
802.775	272
804.284	228
805.793	212
807.302	212
808.81	198
810.318	172
811.826	180
813.333	168
814.84	150
816.346	152
817.851	138
819.357	138
820.862	134
822.367	134
823.871	112
825.376	124
826.878	122
828.382	122
829.885	124
831.387	120
832.889	132
834.391	124
835.892	136
837.392	142
838.893	156
840.393	162
841.893	164
843.392	152
844.891	158
846.389	154
847.888	146
849.386	136
850.882	130
852.38	134
853.876	130
855.372	130
856.868	128
858.363	120
859.858	142
861.353	130
862.847	126
864.341	126
865.834	132
867.328	116
868.82	130
870.313	128
871.805	136
873.296	128
874.787	118
876.278	132
877.769	130
879.258	108
880.748	128
882.237	112
883.726	114
885.214	116
886.702	126
888.19	114
889.677	126
891.164	114
892.651	118
894.137	124
895.623	118
897.108	122
898.593	124
900.077	128
901.562	130
903.046	150
904.529	150
906.012	152
907.495	148
908.977	148
910.459	138
911.941	128
913.422	130
914.903	116
916.383	108
917.863	110
919.343	112
920.822	108
922.301	104
923.779	100
925.257	100
926.735	96
928.213	98
929.69	96
931.166	100
932.643	98
934.119	104
935.594	116
937.069	106
938.543	100
940.018	106
941.492	102
942.966	108
944.439	110
945.911	100
947.384	108
948.856	108
950.328	100
951.799	98
953.27	106
954.741	104
956.21	118
957.68	106
959.15	110
960.619	122
962.088	134
963.556	126
965.023	132
966.491	130
967.958	140
969.425	132
970.891	126
972.357	134
973.824	140
975.288	144
976.754	158
978.218	160
979.682	172
981.146	212
982.609	228
984.072	256
985.534	262
986.997	316
988.459	440
989.92	588
991.382	804
992.842	852
994.302	810
995.763	856
997.222	1236
998.681	1990
1000.14	2918
1001.6	3304
1003.06	2820
1004.52	1968
1005.97	1202
1007.43	654
1008.89	444
1010.34	318
1011.8	252
1013.25	206
1014.71	204
1016.16	168
1017.62	176
1019.07	186
1020.53	226
1021.98	274
1023.43	322
1024.89	378
1026.34	496
1027.79	632
1029.24	760
1030.69	844
1032.14	922
1033.59	820
1035.04	684
1036.49	532
1037.94	390
1039.39	326
1040.84	268
1042.29	238
1043.73	216
1045.18	186
1046.63	182
1048.08	188
1049.52	170
1050.97	158
1052.41	162
1053.86	156
1055.3	146
1056.75	152
1058.19	156
1059.64	164
1061.08	164
1062.52	162
1063.96	154
1065.41	172
1066.85	174
1068.29	174
1069.73	176
1071.17	174
1072.61	180
1074.05	166
1075.49	174
1076.93	172
1078.37	178
1079.81	172
1081.25	172
1082.68	170
1084.12	176
1085.56	160
1087	170
1088.43	172
1089.87	176
1091.3	170
1092.74	176
1094.17	154
1095.61	178
1097.04	174
1098.48	172
1099.91	182
1101.34	176
1102.78	160
1104.21	162
1105.64	142
1107.07	154
1108.5	142
1109.93	142
1111.36	126
1112.8	134
1114.22	134
1115.65	130
1117.08	126
1118.51	128
1119.94	114
1121.37	120
1122.8	118
1124.22	104
1125.65	98
1127.08	106
1128.5	116
1129.93	112
1131.35	110
1132.78	110
1134.2	112
1135.63	118
1137.05	116
1138.48	132
1139.9	130
1141.32	134
1142.75	138
1144.17	158
1145.59	176
1147.01	186
1148.43	202
1149.85	236
1151.27	290
1152.69	360
1154.11	420
1155.53	400
1156.95	370
1158.37	346
1159.79	290
1161.21	262
1162.62	212
1164.04	230
1165.46	208
1166.87	218
1168.29	206
1169.71	226
1171.12	218
1172.54	234
1173.95	278
1175.37	302
1176.78	348
1178.19	434
1179.61	492
1181.02	532
1182.43	526
1183.84	504
1185.26	472
1186.67	432
1188.08	414
1189.49	438
1190.9	468
1192.31	482
1193.72	474
1195.13	510
1196.54	498
1197.95	528
1199.36	494
1200.76	478
1202.17	452
1203.58	446
1204.99	418
1206.39	382
1207.8	350
1209.2	324
1210.61	302
1212.01	272
1213.42	260
1214.82	248
1216.23	238
1217.63	214
1219.03	212
1220.44	208
1221.84	216
1223.24	194
1224.64	216
1226.05	200
1227.45	204
1228.85	184
1230.25	190
1231.65	186
1233.05	174
1234.45	174
1235.85	174
1237.25	180
1238.64	182
1240.04	178
1241.44	180
1242.84	162
1244.23	182
1245.63	176
1247.03	168
1248.42	160
1249.82	166
1251.21	170
1252.61	184
1254	176
1255.4	170
1256.79	182
1258.19	162
1259.58	182
1260.97	172
1262.36	174
1263.76	180
1265.15	174
1266.54	180
1267.93	174
1269.32	178
1270.71	184
1272.1	178
1273.49	162
1274.88	180
1276.27	170
1277.66	176
1279.05	168
1280.43	182
1281.82	170
1283.21	174
1284.6	180
1285.98	180
1287.37	182
1288.75	204
1290.14	190
1291.53	188
1292.91	188
1294.29	198
1295.68	214
1297.06	220
1298.45	214
1299.83	220
1301.21	214
1302.59	226
1303.98	216
1305.36	228
1306.74	232
1308.12	226
1309.5	232
1310.88	234
1312.26	250
1313.64	242
1315.02	242
1316.4	274
1317.78	260
1319.16	264
1320.53	288
1321.91	284
1323.29	286
1324.67	276
1326.04	302
1327.42	306
1328.79	294
1330.17	312
1331.54	290
1332.92	306
1334.29	280
1335.67	296
1337.04	288
1338.42	278
1339.79	280
1341.16	280
1342.53	276
1343.91	268
1345.28	282
1346.65	262
1348.02	270
1349.39	272
1350.76	274
1352.13	270
1353.5	278
1354.87	256
1356.24	266
1357.61	282
1358.98	284
1360.34	280
1361.71	286
1363.08	300
1364.45	302
1365.81	290
1367.18	288
1368.54	296
1369.91	292
1371.28	266
1372.64	274
1374.01	284
1375.37	286
1376.73	272
1378.1	288
1379.46	280
1380.82	266
1382.19	278
1383.55	278
1384.91	268
1386.27	258
1387.63	258
1388.99	240
1390.35	226
1391.71	224
1393.07	258
1394.43	244
1395.79	234
1397.15	228
1398.51	236
1399.87	240
1401.23	230
1402.58	236
1403.94	238
1405.3	236
1406.65	230
1408.01	246
1409.37	218
1410.72	230
1412.08	246
1413.43	228
1414.79	234
1416.14	226
1417.49	246
1418.85	226
1420.2	222
1421.55	226
1422.91	234
1424.26	232
1425.61	230
1426.96	216
1428.31	224
1429.66	218
1431.01	228
1432.36	242
1433.71	224
1435.06	250
1436.41	268
1437.76	272
1439.11	286
1440.46	306
1441.81	302
1443.15	318
1444.5	320
1445.85	310
1447.19	358
1448.54	340
1449.89	324
1451.23	328
1452.58	320
1453.92	302
1455.27	294
1456.61	286
1457.95	282
1459.3	224
1460.64	224
1461.98	224
1463.33	210
1464.67	202
1466.01	200
1467.35	192
1468.69	196
1470.03	190
1471.37	194
1472.71	186
1474.05	198
1475.39	186
1476.73	182
1478.07	200
1479.41	188
1480.75	196
1482.09	178
1483.42	170
1484.76	186
1486.1	186
1487.43	180
1488.77	196
1490.11	190
1491.44	202
1492.78	192
1494.11	204
1495.45	188
1496.78	166
1498.12	176
1499.45	178
1500.78	180
1502.11	174
1503.45	172
1504.78	174
1506.11	176
1507.44	172
1508.77	158
1510.11	178
1511.44	182
1512.77	176
1514.1	182
1515.43	168
1516.76	170
1518.08	178
1519.41	170
1520.74	184
1522.07	170
1523.4	172
1524.72	158
1526.05	172
1527.38	162
1528.7	170
1530.03	180
1531.36	174
1532.68	168
1534.01	180
1535.33	170
1536.66	156
1537.98	162
1539.3	168
1540.63	164
1541.95	170
1543.27	174
1544.6	166
1545.92	172
1547.24	170
1548.56	166
1549.88	158
1551.2	170
1552.52	164
1553.84	162
1555.17	162
1556.48	166
1557.8	172
1559.12	180
1560.44	180
1561.76	168
1563.08	164
1564.4	174
1565.71	176
1567.03	174
1568.35	180
1569.66	170
1570.98	180
1572.29	202
1573.61	196
1574.93	214
1576.24	218
1577.55	246
1578.87	272
1580.18	340
1581.5	392
1582.81	414
1584.12	394
1585.43	362
1586.75	322
1588.06	266
1589.37	264
1590.68	264
1591.99	270
1593.3	286
1594.61	322
1595.92	348
1597.23	436
1598.54	512
1599.85	622
1601.16	678
1602.47	680
1603.78	654
1605.08	568
1606.39	470
1607.7	384
1609	336
1610.31	278
1611.62	256
1612.92	228
1614.23	218
1615.53	208
1616.84	198
1618.14	190
1619.45	194
1620.75	184
1622.06	176
1623.36	178
1624.66	170
1625.96	172
1627.27	166
1628.57	166
1629.87	160
1631.17	154
1632.47	164
1633.77	162
1635.07	150
1636.37	168
1637.67	152
1638.97	140
1640.27	150
1641.57	154
1642.87	150
1644.17	158
1645.47	162
1646.76	154
1648.06	172
1649.36	170
1650.66	154
1651.95	154
1653.25	158
1654.54	144
1655.84	136
1657.13	142
1658.43	132
1659.72	144
1661.02	128
1662.31	138
1663.6	126
1664.9	144
1666.19	136
1667.48	142
1668.78	142
1670.07	150
1671.36	142
1672.65	144
1673.94	130
1675.23	136
1676.52	138
1677.81	136
1679.1	126
1680.39	136
1681.68	130
1682.97	136
1684.26	144
1685.55	128
1686.83	136
1688.12	140
1689.41	132
1690.7	128
1691.98	140
1693.27	124
1694.55	122
1695.84	126
1697.13	134
1698.41	120
1699.69	118
1700.98	130
1702.26	120