File: Mixture_Classification/Jesse_Dataset_v2/Pure Raman/Polystyrene/785nm/ps-ppo-6jan25-1,0000-map3_Y06_X09.txt
204.377	848
206.045	846
207.713	874
209.38	850
211.048	862
212.715	894
214.381	900
216.047	892
217.712	944
219.377	922
221.042	928
222.706	928
224.369	882
226.032	820
227.695	822
229.357	776
231.019	718
232.68	674
234.341	652
236.001	608
237.661	552
239.321	492
240.98	450
242.639	418
244.297	376
245.955	362
247.612	346
249.268	332
250.924	310
252.58	296
254.236	312
255.891	272
257.546	298
259.2	292
260.854	284
262.507	268
264.16	266
265.812	252
267.463	270
269.115	248
270.766	250
272.417	254
274.067	262
275.717	238
277.365	242
279.014	226
280.663	232
282.311	216
283.958	222
285.605	216
287.252	224
288.898	198
290.543	192
292.188	198
293.833	188
295.477	174
297.121	186
298.765	174
300.407	176
302.05	178
303.693	184
305.334	158
306.975	182
308.615	182
310.256	182
311.896	178
313.535	172
315.175	186
316.813	178
318.451	176
320.089	168
321.726	166
323.362	174
324.999	170
326.635	176
328.271	192
329.905	180
331.54	172
333.174	176
334.807	190
336.441	172
338.074	176
339.707	168
341.338	164
342.969	168
344.601	160
346.231	162
347.861	160
349.491	162
351.12	150
352.749	158
354.378	156
356.006	160
357.633	158
359.261	154
360.887	152
362.513	156
364.139	148
365.764	166
367.39	154
369.014	158
370.638	160
372.261	162
373.884	166
375.508	164
377.13	174
378.752	182
380.373	184
381.994	180
383.615	192
385.235	182
386.854	186
388.473	186
390.092	190
391.711	184
393.328	196
394.947	192
396.564	208
398.181	214
399.797	204
401.412	242
403.027	232
404.642	242
406.257	238
407.871	242
409.484	232
411.098	226
412.711	212
414.323	188
415.935	204
417.547	192
419.158	176
420.768	176
422.378	172
423.988	174
425.597	168
427.206	162
428.814	158
430.422	150
432.03	148
433.637	156
435.243	146
436.85	138
438.456	140
440.062	148
441.666	144
443.271	142
444.876	138
446.479	140
448.082	134
449.685	130
451.287	114
452.89	122
454.492	132
456.092	114
457.693	116
459.293	110
460.893	124
462.492	102
464.092	114
465.691	110
467.288	110
468.887	118
470.483	116
472.081	120
473.677	100
475.273	112
476.869	108
478.463	114
480.059	100
481.653	98
483.247	108
484.84	108
486.433	108
488.026	102
489.618	96
491.21	108
492.801	108
494.392	108
495.983	106
497.573	104
499.162	114
500.752	112
502.341	120
503.929	106
505.517	116
507.105	118
508.692	114
510.279	110
511.865	108
513.45	108
515.037	126
516.621	112
518.206	108
519.79	106
521.374	122
522.957	122
524.54	132
526.123	130
527.705	134
529.287	124
530.868	142
532.448	132
534.029	140
535.609	142
537.188	148
538.768	140
540.346	154
541.925	160
543.502	160
545.08	154
546.657	148
548.234	142
549.81	150
551.386	152
552.961	138
554.536	144
556.11	146
557.684	136
559.258	142
560.832	140
562.405	142
563.977	128
565.55	144
567.12	134
568.692	150
570.263	142
571.833	142
573.403	150
574.973	140
576.542	140
578.111	130
579.679	130
581.247	116
582.815	128
584.382	112
585.948	100
587.514	116
589.081	120
590.645	116
592.211	120
593.775	114
595.339	124
596.904	114
598.466	108
600.03	118
601.592	128
603.154	130
604.715	138
606.277	154
607.838	166
609.398	150
610.958	146
612.518	154
614.077	184
615.636	222
617.194	314
618.753	514
620.31	714
621.867	700
623.424	488
624.98	266
626.537	204
628.092	164
629.647	152
631.202	138
632.756	124
634.31	114
635.864	108
637.417	94
638.969	104
640.521	102
642.074	92
643.625	96
645.176	84
646.726	86
648.276	88
649.827	86
651.376	88
652.925	88
654.473	90
656.021	94
657.569	78
659.117	80
660.664	86
662.21	84
663.757	84
665.302	80
666.847	82
668.392	82
669.937	84
671.481	84
673.025	92
674.568	84
676.111	80
677.653	84
679.195	82
680.737	80
682.279	84
683.82	80
685.36	80
686.9	78
688.44	80
689.979	90
691.517	82
693.056	84
694.594	86
696.132	96
697.669	92
699.206	102
700.742	108
702.278	96
703.814	100
705.35	110
706.884	100
708.419	100
709.953	106
711.487	96
713.019	106
714.552	102
716.085	100
717.617	110
719.148	100
720.68	120
722.21	136
723.741	164
725.271	146
726.8	138
728.33	136
729.858	144
731.387	118
732.915	138
734.443	140
735.97	152
737.497	158
739.023	174
740.549	178
742.075	184
743.6	194
745.125	182
746.65	186
748.173	198
749.697	200
751.22	202
752.743	224
754.266	228
755.788	218
757.309	222
758.831	244
760.351	226
761.871	238
763.392	230
764.912	220
766.431	222
767.95	232
769.468	222
770.986	202
772.504	202
774.022	202
775.538	198
777.055	204
778.571	214
780.086	218
781.602	228
783.117	238
784.632	272
786.146	290
787.659	298
789.173	306
790.685	318
792.198	346
793.71	334
795.222	350
796.733	340
798.244	338
799.755	324
801.265	270
802.775	244
804.284	236
805.793	212
807.302	200
808.81	188
810.318	170
811.826	170
813.333	162
814.84	172
816.346	156
817.851	132
819.357	128
820.862	126
822.367	122
823.871	122
825.376	114
826.878	112
828.382	120
829.885	122
831.387	124
832.889	130
834.391	132
835.892	140
837.392	146
838.893	164
840.393	166
841.893	160
843.392	168
844.891	156
846.389	142
847.888	148
849.386	142
850.882	138
852.38	136
853.876	142
855.372	136
856.868	130
858.363	122
859.858	124
861.353	134
862.847	122
864.341	132
865.834	134
867.328	134
868.82	130
870.313	126
871.805	130
873.296	130
874.787	138
876.278	120
877.769	128
879.258	120
880.748	114
882.237	126
883.726	116
885.214	120
886.702	114
888.19	116
889.677	110
891.164	112
892.651	120
894.137	110
895.623	114
897.108	120
898.593	128
900.077	132
901.562	144
903.046	136
904.529	138
906.012	138
907.495	148
908.977	144
910.459	146
911.941	124
913.422	126
914.903	116
916.383	94
917.863	116
919.343	94
920.822	108
922.301	106
923.779	102
925.257	100
926.735	90
928.213	98
929.69	106
931.166	94
932.643	98
934.119	100
935.594	102
937.069	108
938.543	112
940.018	104
941.492	104
942.966	102
944.439	112
945.911	110
947.384	108
948.856	106
950.328	112
951.799	108
953.27	106
954.741	114
956.21	102
957.68	108
959.15	114
960.619	120
962.088	128
963.556	130
965.023	134
966.491	134
967.958	136
969.425	144
970.891	132
972.357	126
973.824	138
975.288	150
976.754	160
978.218	170
979.682	198
981.146	220
982.609	220
984.072	260
985.534	264
986.997	322
988.459	430
989.92	608
991.382	794
992.842	874
994.302	802
995.763	882
997.222	1284
998.681	2036
1000.14	2936
1001.6	3324
1003.06	2886
1004.52	1940
1005.97	1194
1007.43	704
1008.89	442
1010.34	324
1011.8	262
1013.25	212
1014.71	184
1016.16	190
1017.62	174
1019.07	204
1020.53	218
1021.98	262
1023.43	308
1024.89	394
1026.34	502
1027.79	648
1029.24	758
1030.69	836
1032.14	876
1033.59	822
1035.04	664
1036.49	528
1037.94	410
1039.39	322
1040.84	272
1042.29	254
1043.73	216
1045.18	192
1046.63	190
1048.08	178
1049.52	166
1050.97	154
1052.41	166
1053.86	168
1055.3	168
1056.75	162
1058.19	160
1059.64	162
1061.08	170
1062.52	154
1063.96	178
1065.41	178
1066.85	180
1068.29	180
1069.73	180
1071.17	180
1072.61	178
1074.05	164
1075.49	178
1076.93	170
1078.37	172
1079.81	164
1081.25	178
1082.68	162
1084.12	174
1085.56	170
1087	152
1088.43	166
1089.87	154
1091.3	180
1092.74	170
1094.17	162
1095.61	172
1097.04	176
1098.48	184
1099.91	168
1101.34	180
1102.78	180
1104.21	154
1105.64	148
1107.07	146
1108.5	144
1109.93	146
1111.36	138
1112.8	134
1114.22	134
1115.65	130
1117.08	132
1118.51	122
1119.94	114
1121.37	116
1122.8	110
1124.22	118
1125.65	102
1127.08	124
1128.5	108
1129.93	114
1131.35	108
1132.78	110
1134.2	112
1135.63	120
1137.05	124
1138.48	126
1139.9	122
1141.32	150
1142.75	146
1144.17	154
1145.59	160
1147.01	178
1148.43	194
1149.85	240
1151.27	302
1152.69	348
1154.11	414
1155.53	446
1156.95	416
1158.37	342
1159.79	286
1161.21	254
1162.62	238
1164.04	216
1165.46	212
1166.87	212
1168.29	210
1169.71	222
1171.12	226
1172.54	242
1173.95	276
1175.37	314
1176.78	352
1178.19	408
1179.61	488
1181.02	542
1182.43	526
1183.84	516
1185.26	462
1186.67	430
1188.08	416
1189.49	434
1190.9	466
1192.31	498
1193.72	494
1195.13	524
1196.54	504
1197.95	512
1199.36	484
1200.76	480
1202.17	468
1203.58	444
1204.99	412
1206.39	386
1207.8	340
1209.2	332
1210.61	298
1212.01	268
1213.42	244
1214.82	240
1216.23	222
1217.63	220
1219.03	224
1220.44	226
1221.84	208
1223.24	212
1224.64	216
1226.05	220
1227.45	206
1228.85	198
1230.25	184
1231.65	194
1233.05	184
1234.45	180
1235.85	170
1237.25	168
1238.64	178
1240.04	188
1241.44	166
1242.84	176
1244.23	174
1245.63	180
1247.03	166
1248.42	166
1249.82	160
1251.21	178
1252.61	172
1254	162
1255.4	162
1256.79	188
1258.19	160
1259.58	168
1260.97	170
1262.36	184
1263.76	182
1265.15	176
1266.54	174
1267.93	172
1269.32	182
1270.71	176
1272.1	180
1273.49	174
1274.88	182
1276.27	178
1277.66	188
1279.05	180
1280.43	178
1281.82	188
1283.21	190
1284.6	190
1285.98	190
1287.37	190
1288.75	196
1290.14	190
1291.53	194
1292.91	194
1294.29	206
1295.68	196
1297.06	212
1298.45	212
1299.83	208
1301.21	220
1302.59	222
1303.98	238
1305.36	242
1306.74	218
1308.12	224
1309.5	228
1310.88	252
1312.26	246
1313.64	232
1315.02	248
1316.4	228
1317.78	256
1319.16	280
1320.53	286
1321.91	296
1323.29	296
1324.67	312
1326.04	308
1327.42	306
1328.79	312
1330.17	294
1331.54	294
1332.92	300
1334.29	290
1335.67	288
1337.04	304
1338.42	290
1339.79	300
1341.16	288
1342.53	278
1343.91	274
1345.28	270
1346.65	276
1348.02	266
1349.39	268
1350.76	268
1352.13	274
1353.5	264
1354.87	276
1356.24	288
1357.61	266
1358.98	284
1360.34	284
1361.71	286
1363.08	290
1364.45	276
1365.81	288
1367.18	278
1368.54	300
1369.91	292
1371.28	298
1372.64	294
1374.01	298
1375.37	302
1376.73	296
1378.1	282
1379.46	284
1380.82	276
1382.19	280
1383.55	264
1384.91	272
1386.27	256
1387.63	258
1388.99	256
1390.35	248
1391.71	244
1393.07	238
1394.43	240
1395.79	250
1397.15	224
1398.51	242
1399.87	254
1401.23	256
1402.58	242
1403.94	252
1405.3	244
1406.65	240
1408.01	256
1409.37	244
1410.72	244
1412.08	236
1413.43	224
1414.79	228
1416.14	234
1417.49	232
1418.85	222
1420.2	226
1421.55	236
1422.91	230
1424.26	234
1425.61	228
1426.96	226
1428.31	230
1429.66	232
1431.01	228
1432.36	238
1433.71	242
1435.06	240
1436.41	254
1437.76	272
1439.11	280
1440.46	280
1441.81	294
1443.15	336
1444.5	326
1445.85	326
1447.19	336
1448.54	340
1449.89	338
1451.23	336
1452.58	318
1453.92	318
1455.27	298
1456.61	270
1457.95	254
1459.3	232
1460.64	236
1461.98	224
1463.33	234
1464.67	216
1466.01	208
1467.35	208
1468.69	190
1470.03	212
1471.37	206
1472.71	190
1474.05	196
1475.39	200
1476.73	202
1478.07	194
1479.41	186
1480.75	194
1482.09	182
1483.42	192
1484.76	190
1486.1	178
1487.43	188
1488.77	196
1490.11	190
1491.44	196
1492.78	182
1494.11	192
1495.45	200
1496.78	188
1498.12	182
1499.45	180
1500.78	194
1502.11	178
1503.45	178
1504.78	180
1506.11	176
1507.44	162
1508.77	170
1510.11	182
1511.44	174
1512.77	172
1514.1	178
1515.43	182
1516.76	166
1518.08	178
1519.41	168
1520.74	174
1522.07	176
1523.4	170
1524.72	172
1526.05	170
1527.38	172
1528.7	166
1530.03	176
1531.36	176
1532.68	166
1534.01	176
1535.33	172
1536.66	164
1537.98	170
1539.3	160
1540.63	166
1541.95	172
1543.27	172
1544.6	156
1545.92	156
1547.24	176
1548.56	162
1549.88	164
1551.2	164
1552.52	168
1553.84	180
1555.17	172
1556.48	170
1557.8	166
1559.12	168
1560.44	162
1561.76	160
1563.08	168
1564.4	170
1565.71	178
1567.03	188
1568.35	174
1569.66	182
1570.98	182
1572.29	210
1573.61	202
1574.93	218
1576.24	230
1577.55	256
1578.87	306
1580.18	322
1581.5	392
1582.81	440
1584.12	402
1585.43	356
1586.75	304
1588.06	270
1589.37	266
1590.68	252
1591.99	264
1593.3	286
1594.61	318
1595.92	354
1597.23	434
1598.54	520
1599.85	634
1601.16	708
1602.47	698
1603.78	630
1605.08	548
1606.39	448
1607.7	394
1609	332
1610.31	288
1611.62	260
1612.92	232
1614.23	212
1615.53	198
1616.84	200
1618.14	198
1619.45	192
1620.75	186
1622.06	190
1623.36	170
1624.66	172
1625.96	162
1627.27	158
1628.57	152
1629.87	170
1631.17	164
1632.47	144
1633.77	150
1635.07	156
1636.37	146
1637.67	140
1638.97	148
1640.27	152
1641.57	164
1642.87	152
1644.17	160
1645.47	162
1646.76	164
1648.06	156
1649.36	150
1650.66	160
1651.95	162
1653.25	142
1654.54	144
1655.84	146
1657.13	150
1658.43	136
1659.72	150
1661.02	138
1662.31	140
1663.6	142
1664.9	138
1666.19	140
1667.48	124
1668.78	134
1670.07	138
1671.36	146
1672.65	144
1673.94	140
1675.23	130
1676.52	132
1677.81	138
1679.1	132
1680.39	122
1681.68	140
1682.97	130
1684.26	142
1685.55	124
1686.83	128
1688.12	128
1689.41	124
1690.7	138
1691.98	130
1693.27	134
1694.55	132
1695.84	130
1697.13	130
1698.41	126
1699.69	132
1700.98	118
1702.26	128