File: Mixture_Classification/Jesse_Dataset_v2/Pure Raman/Polystyrene/785nm/ps-ppo-6jan25-1,0000-map3_Y09_X10.txt
204.377	840
206.045	870
207.713	878
209.38	910
211.048	860
212.715	892
214.381	916
216.047	904
217.712	928
219.377	926
221.042	890
222.706	876
224.369	884
226.032	850
227.695	832
229.357	788
231.019	700
232.68	710
234.341	638
236.001	588
237.661	562
239.321	504
240.98	470
242.639	408
244.297	364
245.955	350
247.612	332
249.268	342
250.924	322
252.58	296
254.236	282
255.891	298
257.546	278
259.2	288
260.854	264
262.507	254
264.16	260
265.812	262
267.463	264
269.115	252
270.766	256
272.417	264
274.067	250
275.717	246
277.365	236
279.014	214
280.663	228
282.311	218
283.958	216
285.605	222
287.252	200
288.898	210
290.543	208
292.188	186
293.833	192
295.477	172
297.121	172
298.765	164
300.407	170
302.05	178
303.693	176
305.334	176
306.975	166
308.615	178
310.256	182
311.896	158
313.535	168
315.175	178
316.813	170
318.451	180
320.089	164
321.726	172
323.362	178
324.999	178
326.635	184
328.271	172
329.905	174
331.54	180
333.174	156
334.807	180
336.441	178
338.074	174
339.707	168
341.338	182
342.969	170
344.601	158
346.231	170
347.861	152
349.491	172
351.12	154
352.749	154
354.378	152
356.006	148
357.633	146
359.261	140
360.887	158
362.513	160
364.139	152
365.764	158
367.39	154
369.014	150
370.638	160
372.261	160
373.884	176
375.508	164
377.13	176
378.752	154
380.373	152
381.994	166
383.615	184
385.235	176
386.854	192
388.473	176
390.092	192
391.711	184
393.328	198
394.947	198
396.564	194
398.181	206
399.797	212
401.412	210
403.027	220
404.642	240
406.257	234
407.871	226
409.484	224
411.098	216
412.711	210
414.323	202
415.935	170
417.547	192
419.158	176
420.768	166
422.378	160
423.988	158
425.597	156
427.206	158
428.814	142
430.422	144
432.03	150
433.637	142
435.243	142
436.85	144
438.456	144
440.062	144
441.666	138
443.271	136
444.876	142
446.479	132
448.082	128
449.685	128
451.287	116
452.89	116
454.492	110
456.092	114
457.693	116
459.293	110
460.893	108
462.492	98
464.092	112
465.691	104
467.288	112
468.887	106
470.483	108
472.081	108
473.677	112
475.273	110
476.869	110
478.463	116
480.059	106
481.653	104
483.247	106
484.84	106
486.433	108
488.026	102
489.618	102
491.21	104
492.801	102
494.392	104
495.983	106
497.573	108
499.162	98
500.752	104
502.341	112
503.929	104
505.517	120
507.105	110
508.692	102
510.279	106
511.865	104
513.45	108
515.037	108
516.621	104
518.206	118
519.79	116
521.374	108
522.957	122
524.54	122
526.123	118
527.705	126
529.287	128
530.868	136
532.448	140
534.029	142
535.609	144
537.188	136
538.768	154
540.346	156
541.925	156
543.502	160
545.08	152
546.657	156
548.234	144
549.81	144
551.386	138
552.961	132
554.536	152
556.11	130
557.684	142
559.258	150
560.832	136
562.405	140
563.977	126
565.55	138
567.12	136
568.692	136
570.263	136
571.833	142
573.403	134
574.973	134
576.542	138
578.111	126
579.679	110
581.247	120
582.815	118
584.382	114
585.948	106
587.514	106
589.081	116
590.645	112
592.211	106
593.775	102
595.339	108
596.904	106
598.466	120
600.03	122
601.592	124
603.154	128
604.715	134
606.277	148
607.838	154
609.398	150
610.958	152
612.518	166
614.077	198
615.636	244
617.194	322
618.753	514
620.31	736
621.867	690
623.424	456
624.98	282
626.537	198
628.092	168
629.647	146
631.202	138
632.756	132
634.31	116
635.864	112
637.417	108
638.969	86
640.521	92
642.074	82
643.625	86
645.176	86
646.726	82
648.276	84
649.827	80
651.376	74
652.925	80
654.473	82
656.021	64
657.569	78
659.117	80
660.664	76
662.21	88
663.757	76
665.302	84
666.847	84
668.392	78
669.937	78
671.481	76
673.025	88
674.568	82
676.111	80
677.653	84
679.195	74
680.737	78
682.279	86
683.82	80
685.36	80
686.9	80
688.44	78
689.979	78
691.517	80
693.056	82
694.594	80
696.132	76
697.669	88
699.206	96
700.742	108
702.278	96
703.814	98
705.35	100
706.884	100
708.419	96
709.953	110
711.487	98
713.019	104
714.552	100
716.085	96
717.617	116
719.148	100
720.68	126
722.21	136
723.741	146
725.271	158
726.8	140
728.33	120
729.858	126
731.387	122
732.915	116
734.443	132
735.97	146
737.497	166
739.023	174
740.549	184
742.075	192
743.6	174
745.125	182
746.65	190
748.173	186
749.697	204
751.22	192
752.743	212
754.266	204
755.788	222
757.309	222
758.831	234
760.351	234
761.871	214
763.392	228
764.912	214
766.431	214
767.95	212
769.468	208
770.986	212
772.504	192
774.022	204
775.538	218
777.055	206
778.571	202
780.086	214
781.602	226
783.117	240
784.632	256
786.146	280
787.659	280
789.173	306
790.685	328
792.198	302
793.71	340
795.222	342
796.733	352
798.244	312
799.755	314
801.265	288
802.775	252
804.284	240
805.793	212
807.302	204
808.81	198
810.318	178
811.826	168
813.333	168
814.84	162
816.346	136
817.851	138
819.357	116
820.862	126
822.367	122
823.871	120
825.376	112
826.878	112
828.382	118
829.885	118
831.387	120
832.889	126
834.391	132
835.892	130
837.392	146
838.893	150
840.393	158
841.893	170
843.392	162
844.891	156
846.389	148
847.888	144
849.386	144
850.882	126
852.38	122
853.876	126
855.372	128
856.868	124
858.363	124
859.858	118
861.353	126
862.847	128
864.341	126
865.834	136
867.328	120
868.82	132
870.313	122
871.805	130
873.296	118
874.787	122
876.278	122
877.769	126
879.258	118
880.748	122
882.237	110
883.726	116
885.214	124
886.702	110
888.19	124
889.677	122
891.164	106
892.651	112
894.137	110
895.623	110
897.108	116
898.593	122
900.077	130
901.562	136
903.046	144
904.529	150
906.012	152
907.495	138
908.977	142
910.459	134
911.941	130
913.422	128
914.903	118
916.383	114
917.863	108
919.343	118
920.822	114
922.301	96
923.779	96
925.257	98
926.735	90
928.213	88
929.69	98
931.166	92
932.643	106
934.119	100
935.594	100
937.069	94
938.543	96
940.018	106
941.492	102
942.966	98
944.439	104
945.911	104
947.384	106
948.856	112
950.328	104
951.799	114
953.27	104
954.741	100
956.21	108
957.68	104
959.15	122
960.619	120
962.088	116
963.556	120
965.023	122
966.491	126
967.958	126
969.425	128
970.891	122
972.357	128
973.824	140
975.288	138
976.754	162
978.218	182
979.682	180
981.146	194
982.609	234
984.072	256
985.534	288
986.997	326
988.459	446
989.92	602
991.382	778
992.842	830
994.302	822
995.763	874
997.222	1260
998.681	2000
1000.14	2916
1001.6	3362
1003.06	2822
1004.52	1898
1005.97	1116
1007.43	696
1008.89	454
1010.34	308
1011.8	242
1013.25	216
1014.71	172
1016.16	168
1017.62	192
1019.07	190
1020.53	222
1021.98	266
1023.43	328
1024.89	396
1026.34	480
1027.79	650
1029.24	772
1030.69	846
1032.14	908
1033.59	824
1035.04	646
1036.49	510
1037.94	394
1039.39	330
1040.84	264
1042.29	230
1043.73	204
1045.18	192
1046.63	174
1048.08	176
1049.52	174
1050.97	152
1052.41	154
1053.86	154
1055.3	150
1056.75	140
1058.19	154
1059.64	168
1061.08	168
1062.52	176
1063.96	158
1065.41	164
1066.85	176
1068.29	182
1069.73	180
1071.17	170
1072.61	180
1074.05	172
1075.49	154
1076.93	166
1078.37	156
1079.81	162
1081.25	168
1082.68	168
1084.12	176
1085.56	168
1087	178
1088.43	174
1089.87	166
1091.3	174
1092.74	148
1094.17	170
1095.61	174
1097.04	176
1098.48	178
1099.91	180
1101.34	176
1102.78	166
1104.21	158
1105.64	144
1107.07	144
1108.5	146
1109.93	136
1111.36	142
1112.8	128
1114.22	134
1115.65	116
1117.08	126
1118.51	110
1119.94	116
1121.37	126
1122.8	108
1124.22	104
1125.65	108
1127.08	104
1128.5	110
1129.93	116
1131.35	110
1132.78	112
1134.2	122
1135.63	116
1137.05	114
1138.48	122
1139.9	130
1141.32	126
1142.75	140
1144.17	166
1145.59	154
1147.01	166
1148.43	186
1149.85	236
1151.27	302
1152.69	356
1154.11	432
1155.53	428
1156.95	394
1158.37	328
1159.79	310
1161.21	252
1162.62	220
1164.04	230
1165.46	202
1166.87	208
1168.29	216
1169.71	216
1171.12	224
1172.54	252
1173.95	282
1175.37	312
1176.78	362
1178.19	430
1179.61	474
1181.02	528
1182.43	536
1183.84	492
1185.26	476
1186.67	452
1188.08	426
1189.49	420
1190.9	446
1192.31	500
1193.72	504
1195.13	504
1196.54	496
1197.95	510
1199.36	496
1200.76	486
1202.17	462
1203.58	442
1204.99	412
1206.39	378
1207.8	342
1209.2	314
1210.61	310
1212.01	286
1213.42	256
1214.82	248
1216.23	214
1217.63	208
1219.03	206
1220.44	224
1221.84	214
1223.24	198
1224.64	210
1226.05	208
1227.45	210
1228.85	202
1230.25	186
1231.65	196
1233.05	188
1234.45	184
1235.85	176
1237.25	174
1238.64	178
1240.04	174
1241.44	198
1242.84	162
1244.23	176
1245.63	166
1247.03	166
1248.42	174
1249.82	166
1251.21	166
1252.61	168
1254	184
1255.4	168
1256.79	166
1258.19	176
1259.58	166
1260.97	174
1262.36	170
1263.76	164
1265.15	174
1266.54	180
1267.93	172
1269.32	178
1270.71	178
1272.1	170
1273.49	182
1274.88	170
1276.27	168
1277.66	176
1279.05	168
1280.43	166
1281.82	186
1283.21	172
1284.6	192
1285.98	184
1287.37	194
1288.75	196
1290.14	188
1291.53	190
1292.91	210
1294.29	180
1295.68	214
1297.06	208
1298.45	208
1299.83	210
1301.21	210
1302.59	218
1303.98	226
1305.36	238
1306.74	222
1308.12	230
1309.5	228
1310.88	244
1312.26	230
1313.64	256
1315.02	244
1316.4	264
1317.78	260
1319.16	276
1320.53	286
1321.91	276
1323.29	284
1324.67	288
1326.04	310
1327.42	314
1328.79	298
1330.17	296
1331.54	314
1332.92	310
1334.29	310
1335.67	306
1337.04	280
1338.42	306
1339.79	288
1341.16	290
1342.53	292
1343.91	276
1345.28	262
1346.65	290
1348.02	262
1349.39	278
1350.76	264
1352.13	276
1353.5	286
1354.87	270
1356.24	282
1357.61	286
1358.98	276
1360.34	294
1361.71	282
1363.08	276
1364.45	274
1365.81	276
1367.18	296
1368.54	302
1369.91	294
1371.28	280
1372.64	286
1374.01	290
1375.37	286
1376.73	302
1378.1	282
1379.46	280
1380.82	284
1382.19	276
1383.55	266
1384.91	268
1386.27	252
1387.63	252
1388.99	256
1390.35	246
1391.71	250
1393.07	264
1394.43	264
1395.79	246
1397.15	248
1398.51	248
1399.87	240
1401.23	242
1402.58	258
1403.94	244
1405.3	262
1406.65	250
1408.01	234
1409.37	240
1410.72	238
1412.08	242
1413.43	238
1414.79	242
1416.14	228
1417.49	232
1418.85	228
1420.2	236
1421.55	230
1422.91	230
1424.26	232
1425.61	240
1426.96	244
1428.31	226
1429.66	234
1431.01	240
1432.36	244
1433.71	266
1435.06	246
1436.41	248
1437.76	288
1439.11	282
1440.46	308
1441.81	306
1443.15	306
1444.5	328
1445.85	326
1447.19	356
1448.54	338
1449.89	350
1451.23	348
1452.58	330
1453.92	338
1455.27	310
1456.61	284
1457.95	254
1459.3	254
1460.64	222
1461.98	216
1463.33	224
1464.67	224
1466.01	208
1467.35	216
1468.69	196
1470.03	210
1471.37	198
1472.71	204
1474.05	192
1475.39	194
1476.73	208
1478.07	188
1479.41	182
1480.75	198
1482.09	190
1483.42	190
1484.76	200
1486.1	194
1487.43	170
1488.77	198
1490.11	190
1491.44	196
1492.78	198
1494.11	188
1495.45	196
1496.78	196
1498.12	182
1499.45	190
1500.78	192
1502.11	186
1503.45	182
1504.78	166
1506.11	194
1507.44	164
1508.77	182
1510.11	182
1511.44	166
1512.77	188
1514.1	166
1515.43	168
1516.76	176
1518.08	184
1519.41	176
1520.74	170
1522.07	174
1523.4	178
1524.72	182
1526.05	176
1527.38	170
1528.7	176
1530.03	180
1531.36	174
1532.68	180
1534.01	174
1535.33	176
1536.66	178
1537.98	154
1539.3	156
1540.63	170
1541.95	162
1543.27	168
1544.6	176
1545.92	162
1547.24	160
1548.56	170
1549.88	168
1551.2	170
1552.52	172
1553.84	158
1555.17	174
1556.48	162
1557.8	180
1559.12	172
1560.44	186
1561.76	186
1563.08	170
1564.4	182
1565.71	170
1567.03	174
1568.35	172
1569.66	180
1570.98	190
1572.29	204
1573.61	194
1574.93	224
1576.24	226
1577.55	244
1578.87	280
1580.18	338
1581.5	396
1582.81	420
1584.12	398
1585.43	336
1586.75	300
1588.06	266
1589.37	262
1590.68	254
1591.99	268
1593.3	292
1594.61	318
1595.92	362
1597.23	432
1598.54	550
1599.85	638
1601.16	698
1602.47	674
1603.78	642
1605.08	554
1606.39	470
1607.7	378
1609	316
1610.31	270
1611.62	262
1612.92	230
1614.23	210
1615.53	204
1616.84	188
1618.14	204
1619.45	192
1620.75	190
1622.06	186
1623.36	168
1624.66	174
1625.96	166
1627.27	166
1628.57	162
1629.87	162
1631.17	156
1632.47	146
1633.77	148
1635.07	162
1636.37	160
1637.67	150
1638.97	164
1640.27	170
1641.57	158
1642.87	144
1644.17	148
1645.47	172
1646.76	168
1648.06	162
1649.36	158
1650.66	148
1651.95	160
1653.25	152
1654.54	148
1655.84	142
1657.13	142
1658.43	146
1659.72	148
1661.02	142
1662.31	130
1663.6	148
1664.9	128
1666.19	142
1667.48	142
1668.78	140
1670.07	136
1671.36	138
1672.65	136
1673.94	116
1675.23	138
1676.52	122
1677.81	136
1679.1	138
1680.39	140
1681.68	132
1682.97	130
1684.26	142
1685.55	130
1686.83	130
1688.12	130
1689.41	132
1690.7	132
1691.98	130
1693.27	134
1694.55	126
1695.84	136
1697.13	136
1698.41	124
1699.69	130
1700.98	120
1702.26	128