File: Mixture_Classification/Jesse_Dataset_v2/Pure Raman/Polystyrene/785nm/ps-ppo-6jan25-1,0000-map3_Y06_X00.txt
204.377	834
206.045	840
207.713	870
209.38	900
211.048	880
212.715	898
214.381	888
216.047	914
217.712	902
219.377	904
221.042	920
222.706	856
224.369	878
226.032	842
227.695	822
229.357	746
231.019	708
232.68	664
234.341	628
236.001	568
237.661	526
239.321	482
240.98	468
242.639	420
244.297	388
245.955	356
247.612	322
249.268	322
250.924	302
252.58	302
254.236	278
255.891	276
257.546	270
259.2	278
260.854	264
262.507	256
264.16	256
265.812	242
267.463	266
269.115	254
270.766	236
272.417	236
274.067	242
275.717	240
277.365	226
279.014	204
280.663	214
282.311	214
283.958	212
285.605	214
287.252	196
288.898	186
290.543	186
292.188	182
293.833	180
295.477	170
297.121	172
298.765	176
300.407	172
302.05	166
303.693	172
305.334	168
306.975	168
308.615	166
310.256	164
311.896	166
313.535	168
315.175	168
316.813	158
318.451	174
320.089	170
321.726	172
323.362	162
324.999	178
326.635	168
328.271	160
329.905	174
331.54	176
333.174	158
334.807	158
336.441	164
338.074	174
339.707	160
341.338	156
342.969	156
344.601	148
346.231	154
347.861	152
349.491	154
351.12	148
352.749	146
354.378	146
356.006	148
357.633	156
359.261	140
360.887	154
362.513	150
364.139	148
365.764	134
367.39	140
369.014	136
370.638	150
372.261	150
373.884	162
375.508	166
377.13	154
378.752	148
380.373	160
381.994	172
383.615	174
385.235	174
386.854	166
388.473	174
390.092	174
391.711	178
393.328	196
394.947	188
396.564	180
398.181	192
399.797	216
401.412	204
403.027	220
404.642	232
406.257	228
407.871	222
409.484	232
411.098	198
412.711	214
414.323	198
415.935	182
417.547	176
419.158	172
420.768	166
422.378	170
423.988	156
425.597	150
427.206	144
428.814	130
430.422	138
432.03	142
433.637	142
435.243	138
436.85	132
438.456	132
440.062	128
441.666	122
443.271	130
444.876	124
446.479	130
448.082	126
449.685	118
451.287	114
452.89	112
454.492	100
456.092	112
457.693	98
459.293	106
460.893	104
462.492	108
464.092	106
465.691	104
467.288	100
468.887	104
470.483	108
472.081	118
473.677	110
475.273	102
476.869	98
478.463	104
480.059	88
481.653	92
483.247	100
484.84	86
486.433	110
488.026	106
489.618	98
491.21	90
492.801	106
494.392	92
495.983	98
497.573	104
499.162	106
500.752	98
502.341	102
503.929	106
505.517	110
507.105	106
508.692	104
510.279	110
511.865	108
513.45	100
515.037	104
516.621	112
518.206	118
519.79	98
521.374	112
522.957	110
524.54	112
526.123	116
527.705	118
529.287	128
530.868	122
532.448	136
534.029	136
535.609	146
537.188	136
538.768	144
540.346	152
541.925	154
543.502	148
545.08	130
546.657	154
548.234	140
549.81	150
551.386	146
552.961	136
554.536	148
556.11	128
557.684	136
559.258	138
560.832	134
562.405	128
563.977	126
565.55	144
567.12	140
568.692	118
570.263	128
571.833	136
573.403	140
574.973	136
576.542	120
578.111	122
579.679	112
581.247	118
582.815	114
584.382	110
585.948	110
587.514	102
589.081	116
590.645	104
592.211	114
593.775	110
595.339	110
596.904	114
598.466	102
600.03	110
601.592	116
603.154	116
604.715	132
606.277	146
607.838	156
609.398	138
610.958	140
612.518	156
614.077	186
615.636	218
617.194	314
618.753	488
620.31	724
621.867	694
623.424	464
624.98	290
626.537	194
628.092	158
629.647	144
631.202	126
632.756	116
634.31	122
635.864	110
637.417	108
638.969	84
640.521	86
642.074	94
643.625	86
645.176	78
646.726	70
648.276	82
649.827	84
651.376	84
652.925	78
654.473	74
656.021	74
657.569	82
659.117	72
660.664	84
662.21	76
663.757	74
665.302	74
666.847	76
668.392	74
669.937	78
671.481	74
673.025	78
674.568	76
676.111	80
677.653	82
679.195	78
680.737	78
682.279	76
683.82	74
685.36	68
686.9	78
688.44	76
689.979	70
691.517	80
693.056	80
694.594	72
696.132	82
697.669	80
699.206	80
700.742	100
702.278	100
703.814	90
705.35	96
706.884	88
708.419	98
709.953	92
711.487	94
713.019	92
714.552	88
716.085	90
717.617	100
719.148	108
720.68	118
722.21	124
723.741	150
725.271	140
726.8	144
728.33	122
729.858	126
731.387	118
732.915	126
734.443	142
735.97	146
737.497	150
739.023	172
740.549	176
742.075	190
743.6	186
745.125	182
746.65	172
748.173	182
749.697	188
751.22	196
752.743	218
754.266	216
755.788	234
757.309	234
758.831	240
760.351	232
761.871	226
763.392	238
764.912	226
766.431	214
767.95	204
769.468	196
770.986	204
772.504	196
774.022	202
775.538	202
777.055	190
778.571	192
780.086	208
781.602	218
783.117	236
784.632	250
786.146	284
787.659	298
789.173	314
790.685	326
792.198	318
793.71	328
795.222	338
796.733	338
798.244	332
799.755	306
801.265	290
802.775	242
804.284	220
805.793	212
807.302	202
808.81	184
810.318	178
811.826	166
813.333	158
814.84	158
816.346	142
817.851	124
819.357	124
820.862	112
822.367	120
823.871	114
825.376	116
826.878	120
828.382	112
829.885	104
831.387	118
832.889	126
834.391	132
835.892	146
837.392	136
838.893	150
840.393	150
841.893	156
843.392	160
844.891	138
846.389	160
847.888	146
849.386	136
850.882	140
852.38	114
853.876	128
855.372	118
856.868	120
858.363	118
859.858	136
861.353	124
862.847	120
864.341	110
865.834	122
867.328	120
868.82	116
870.313	106
871.805	114
873.296	116
874.787	118
876.278	120
877.769	112
879.258	116
880.748	118
882.237	122
883.726	106
885.214	116
886.702	114
888.19	112
889.677	102
891.164	114
892.651	108
894.137	120
895.623	124
897.108	112
898.593	124
900.077	124
901.562	130
903.046	138
904.529	158
906.012	134
907.495	144
908.977	140
910.459	140
911.941	138
913.422	126
914.903	116
916.383	114
917.863	112
919.343	104
920.822	102
922.301	100
923.779	96
925.257	96
926.735	92
928.213	94
929.69	96
931.166	90
932.643	92
934.119	94
935.594	104
937.069	100
938.543	96
940.018	102
941.492	102
942.966	108
944.439	108
945.911	92
947.384	94
948.856	102
950.328	98
951.799	94
953.27	104
954.741	102
956.21	100
957.68	110
959.15	114
960.619	112
962.088	114
963.556	124
965.023	126
966.491	130
967.958	128
969.425	122
970.891	124
972.357	138
973.824	128
975.288	142
976.754	148
978.218	172
979.682	180
981.146	204
982.609	218
984.072	232
985.534	274
986.997	302
988.459	402
989.92	572
991.382	748
992.842	774
994.302	746
995.763	848
997.222	1172
998.681	1970
1000.14	2818
1001.6	3342
1003.06	2878
1004.52	1962
1005.97	1198
1007.43	696
1008.89	430
1010.34	302
1011.8	248
1013.25	192
1014.71	186
1016.16	170
1017.62	172
1019.07	206
1020.53	224
1021.98	248
1023.43	320
1024.89	366
1026.34	502
1027.79	636
1029.24	784
1030.69	866
1032.14	910
1033.59	834
1035.04	678
1036.49	506
1037.94	418
1039.39	318
1040.84	264
1042.29	238
1043.73	204
1045.18	190
1046.63	188
1048.08	172
1049.52	158
1050.97	158
1052.41	160
1053.86	158
1055.3	152
1056.75	146
1058.19	150
1059.64	158
1061.08	160
1062.52	166
1063.96	166
1065.41	164
1066.85	156
1068.29	182
1069.73	164
1071.17	182
1072.61	180
1074.05	182
1075.49	162
1076.93	164
1078.37	168
1079.81	180
1081.25	174
1082.68	168
1084.12	180
1085.56	162
1087	156
1088.43	170
1089.87	158
1091.3	188
1092.74	170
1094.17	162
1095.61	156
1097.04	156
1098.48	172
1099.91	174
1101.34	172
1102.78	160
1104.21	152
1105.64	146
1107.07	138
1108.5	130
1109.93	134
1111.36	138
1112.8	126
1114.22	130
1115.65	126
1117.08	120
1118.51	116
1119.94	116
1121.37	114
1122.8	98
1124.22	102
1125.65	106
1127.08	108
1128.5	114
1129.93	98
1131.35	108
1132.78	106
1134.2	104
1135.63	104
1137.05	120
1138.48	122
1139.9	124
1141.32	126
1142.75	142
1144.17	156
1145.59	154
1147.01	154
1148.43	192
1149.85	226
1151.27	284
1152.69	332
1154.11	398
1155.53	404
1156.95	394
1158.37	342
1159.79	288
1161.21	244
1162.62	222
1164.04	224
1165.46	204
1166.87	198
1168.29	204
1169.71	220
1171.12	224
1172.54	234
1173.95	254
1175.37	296
1176.78	336
1178.19	404
1179.61	484
1181.02	502
1182.43	506
1183.84	498
1185.26	474
1186.67	438
1188.08	434
1189.49	446
1190.9	456
1192.31	470
1193.72	494
1195.13	502
1196.54	516
1197.95	490
1199.36	478
1200.76	482
1202.17	452
1203.58	436
1204.99	392
1206.39	394
1207.8	360
1209.2	312
1210.61	278
1212.01	270
1213.42	242
1214.82	216
1216.23	220
1217.63	214
1219.03	208
1220.44	206
1221.84	206
1223.24	210
1224.64	182
1226.05	204
1227.45	188
1228.85	190
1230.25	186
1231.65	172
1233.05	178
1234.45	178
1235.85	172
1237.25	178
1238.64	178
1240.04	174
1241.44	168
1242.84	178
1244.23	166
1245.63	160
1247.03	166
1248.42	166
1249.82	158
1251.21	154
1252.61	166
1254	158
1255.4	164
1256.79	160
1258.19	156
1259.58	154
1260.97	152
1262.36	166
1263.76	166
1265.15	164
1266.54	166
1267.93	176
1269.32	176
1270.71	164
1272.1	154
1273.49	158
1274.88	168
1276.27	164
1277.66	168
1279.05	160
1280.43	174
1281.82	174
1283.21	168
1284.6	182
1285.98	172
1287.37	182
1288.75	186
1290.14	178
1291.53	198
1292.91	188
1294.29	190
1295.68	206
1297.06	206
1298.45	196
1299.83	196
1301.21	208
1302.59	192
1303.98	214
1305.36	218
1306.74	214
1308.12	222
1309.5	220
1310.88	216
1312.26	240
1313.64	236
1315.02	228
1316.4	244
1317.78	238
1319.16	240
1320.53	268
1321.91	264
1323.29	270
1324.67	284
1326.04	288
1327.42	286
1328.79	298
1330.17	294
1331.54	296
1332.92	276
1334.29	296
1335.67	278
1337.04	262
1338.42	266
1339.79	270
1341.16	260
1342.53	250
1343.91	256
1345.28	266
1346.65	250
1348.02	264
1349.39	240
1350.76	262
1352.13	256
1353.5	256
1354.87	240
1356.24	254
1357.61	256
1358.98	260
1360.34	270
1361.71	270
1363.08	248
1364.45	274
1365.81	270
1367.18	254
1368.54	272
1369.91	276
1371.28	278
1372.64	268
1374.01	262
1375.37	242
1376.73	250
1378.1	260
1379.46	262
1380.82	240
1382.19	248
1383.55	248
1384.91	244
1386.27	236
1387.63	240
1388.99	224
1390.35	236
1391.71	238
1393.07	232
1394.43	232
1395.79	220
1397.15	210
1398.51	228
1399.87	210
1401.23	220
1402.58	224
1403.94	224
1405.3	222
1406.65	232
1408.01	222
1409.37	220
1410.72	212
1412.08	206
1413.43	208
1414.79	208
1416.14	200
1417.49	210
1418.85	206
1420.2	216
1421.55	210
1422.91	210
1424.26	224
1425.61	216
1426.96	208
1428.31	230
1429.66	224
1431.01	208
1432.36	224
1433.71	226
1435.06	224
1436.41	248
1437.76	248
1439.11	276
1440.46	268
1441.81	300
1443.15	296
1444.5	298
1445.85	308
1447.19	334
1448.54	340
1449.89	340
1451.23	334
1452.58	314
1453.92	322
1455.27	280
1456.61	260
1457.95	234
1459.3	228
1460.64	218
1461.98	206
1463.33	196
1464.67	202
1466.01	188
1467.35	186
1468.69	178
1470.03	184
1471.37	192
1472.71	182
1474.05	190
1475.39	186
1476.73	182
1478.07	172
1479.41	182
1480.75	166
1482.09	176
1483.42	174
1484.76	166
1486.1	168
1487.43	166
1488.77	172
1490.11	162
1491.44	174
1492.78	192
1494.11	200
1495.45	172
1496.78	182
1498.12	166
1499.45	170
1500.78	176
1502.11	172
1503.45	164
1504.78	164
1506.11	172
1507.44	150
1508.77	164
1510.11	164
1511.44	176
1512.77	166
1514.1	154
1515.43	154
1516.76	170
1518.08	162
1519.41	164
1520.74	156
1522.07	144
1523.4	158
1524.72	154
1526.05	166
1527.38	156
1528.7	146
1530.03	170
1531.36	156
1532.68	160
1534.01	158
1535.33	158
1536.66	160
1537.98	160
1539.3	156
1540.63	156
1541.95	158
1543.27	158
1544.6	164
1545.92	160
1547.24	154
1548.56	152
1549.88	164
1551.2	162
1552.52	138
1553.84	160
1555.17	154
1556.48	164
1557.8	152
1559.12	162
1560.44	152
1561.76	156
1563.08	160
1564.4	154
1565.71	174
1567.03	172
1568.35	158
1569.66	162
1570.98	174
1572.29	180
1573.61	184
1574.93	194
1576.24	208
1577.55	230
1578.87	282
1580.18	326
1581.5	370
1582.81	414
1584.12	392
1585.43	366
1586.75	276
1588.06	258
1589.37	252
1590.68	256
1591.99	248
1593.3	274
1594.61	312
1595.92	340
1597.23	394
1598.54	516
1599.85	600
1601.16	672
1602.47	662
1603.78	610
1605.08	554
1606.39	460
1607.7	388
1609	302
1610.31	266
1611.62	240
1612.92	218
1614.23	192
1615.53	198
1616.84	192
1618.14	170
1619.45	162
1620.75	174
1622.06	172
1623.36	154
1624.66	162
1625.96	154
1627.27	164
1628.57	158
1629.87	150
1631.17	144
1632.47	144
1633.77	142
1635.07	146
1636.37	156
1637.67	138
1638.97	136
1640.27	154
1641.57	134
1642.87	144
1644.17	148
1645.47	146
1646.76	140
1648.06	150
1649.36	160
1650.66	136
1651.95	148
1653.25	132
1654.54	142
1655.84	138
1657.13	124
1658.43	130
1659.72	130
1661.02	118
1662.31	114
1663.6	116
1664.9	124
1666.19	122
1667.48	122
1668.78	122
1670.07	136
1671.36	126
1672.65	124
1673.94	138
1675.23	126
1676.52	122
1677.81	122
1679.1	110
1680.39	132
1681.68	126
1682.97	122
1684.26	132
1685.55	118
1686.83	122
1688.12	118
1689.41	126
1690.7	124
1691.98	118
1693.27	124
1694.55	124
1695.84	124
1697.13	124
1698.41	120
1699.69	108
1700.98	116
1702.26	122