File: Mixture_Classification/Jesse_Dataset_v2/Pure Raman/Polystyrene/785nm/ps-ppo-6jan25-1,0000-map3_Y03_X09.txt
204.377	848
206.045	852
207.713	850
209.38	862
211.048	898
212.715	900
214.381	914
216.047	904
217.712	916
219.377	918
221.042	916
222.706	904
224.369	874
226.032	818
227.695	828
229.357	784
231.019	706
232.68	676
234.341	646
236.001	614
237.661	562
239.321	484
240.98	436
242.639	412
244.297	384
245.955	350
247.612	326
249.268	332
250.924	304
252.58	294
254.236	302
255.891	274
257.546	284
259.2	274
260.854	264
262.507	274
264.16	262
265.812	250
267.463	260
269.115	264
270.766	244
272.417	252
274.067	260
275.717	240
277.365	222
279.014	228
280.663	226
282.311	216
283.958	216
285.605	208
287.252	204
288.898	184
290.543	182
292.188	164
293.833	192
295.477	174
297.121	166
298.765	170
300.407	172
302.05	170
303.693	164
305.334	160
306.975	170
308.615	164
310.256	162
311.896	174
313.535	172
315.175	168
316.813	172
318.451	160
320.089	174
321.726	170
323.362	162
324.999	164
326.635	154
328.271	172
329.905	176
331.54	176
333.174	166
334.807	170
336.441	170
338.074	176
339.707	162
341.338	160
342.969	160
344.601	164
346.231	150
347.861	148
349.491	150
351.12	156
352.749	152
354.378	140
356.006	146
357.633	150
359.261	140
360.887	152
362.513	166
364.139	140
365.764	146
367.39	150
369.014	150
370.638	148
372.261	154
373.884	160
375.508	156
377.13	164
378.752	166
380.373	162
381.994	170
383.615	168
385.235	174
386.854	176
388.473	172
390.092	190
391.711	186
393.328	186
394.947	180
396.564	178
398.181	198
399.797	192
401.412	206
403.027	206
404.642	224
406.257	232
407.871	246
409.484	216
411.098	210
412.711	212
414.323	190
415.935	182
417.547	174
419.158	176
420.768	170
422.378	172
423.988	162
425.597	150
427.206	152
428.814	148
430.422	140
432.03	144
433.637	136
435.243	128
436.85	140
438.456	142
440.062	142
441.666	130
443.271	124
444.876	128
446.479	132
448.082	124
449.685	122
451.287	126
452.89	118
454.492	118
456.092	114
457.693	104
459.293	106
460.893	104
462.492	98
464.092	106
465.691	100
467.288	106
468.887	110
470.483	108
472.081	110
473.677	96
475.273	108
476.869	100
478.463	104
480.059	104
481.653	100
483.247	100
484.84	100
486.433	98
488.026	92
489.618	92
491.21	96
492.801	92
494.392	94
495.983	102
497.573	104
499.162	104
500.752	106
502.341	104
503.929	112
505.517	102
507.105	110
508.692	112
510.279	104
511.865	100
513.45	108
515.037	114
516.621	108
518.206	106
519.79	108
521.374	110
522.957	112
524.54	102
526.123	110
527.705	128
529.287	122
530.868	124
532.448	132
534.029	144
535.609	142
537.188	138
538.768	150
540.346	152
541.925	140
543.502	146
545.08	136
546.657	126
548.234	144
549.81	136
551.386	142
552.961	136
554.536	134
556.11	134
557.684	136
559.258	126
560.832	134
562.405	142
563.977	132
565.55	134
567.12	132
568.692	128
570.263	128
571.833	124
573.403	148
574.973	142
576.542	132
578.111	130
579.679	118
581.247	118
582.815	122
584.382	110
585.948	98
587.514	104
589.081	114
590.645	112
592.211	110
593.775	102
595.339	118
596.904	108
598.466	110
600.03	128
601.592	118
603.154	118
604.715	132
606.277	142
607.838	152
609.398	152
610.958	154
612.518	154
614.077	184
615.636	224
617.194	314
618.753	502
620.31	718
621.867	686
623.424	464
624.98	266
626.537	200
628.092	160
629.647	144
631.202	136
632.756	118
634.31	106
635.864	98
637.417	90
638.969	92
640.521	86
642.074	90
643.625	94
645.176	88
646.726	82
648.276	82
649.827	82
651.376	84
652.925	80
654.473	78
656.021	80
657.569	70
659.117	78
660.664	76
662.21	76
663.757	82
665.302	72
666.847	78
668.392	78
669.937	80
671.481	78
673.025	68
674.568	74
676.111	70
677.653	76
679.195	84
680.737	72
682.279	74
683.82	82
685.36	76
686.9	72
688.44	76
689.979	70
691.517	82
693.056	74
694.594	82
696.132	78
697.669	90
699.206	98
700.742	96
702.278	100
703.814	104
705.35	92
706.884	90
708.419	92
709.953	102
711.487	96
713.019	96
714.552	92
716.085	96
717.617	106
719.148	112
720.68	126
722.21	138
723.741	152
725.271	152
726.8	132
728.33	138
729.858	132
731.387	126
732.915	120
734.443	128
735.97	146
737.497	160
739.023	176
740.549	168
742.075	200
743.6	180
745.125	192
746.65	194
748.173	192
749.697	182
751.22	206
752.743	204
754.266	212
755.788	220
757.309	236
758.831	230
760.351	222
761.871	238
763.392	230
764.912	220
766.431	204
767.95	214
769.468	212
770.986	192
772.504	204
774.022	196
775.538	192
777.055	200
778.571	214
780.086	214
781.602	210
783.117	240
784.632	260
786.146	286
787.659	284
789.173	298
790.685	326
792.198	342
793.71	344
795.222	342
796.733	330
798.244	318
799.755	312
801.265	286
802.775	270
804.284	238
805.793	216
807.302	200
808.81	178
810.318	184
811.826	176
813.333	162
814.84	152
816.346	136
817.851	132
819.357	128
820.862	122
822.367	116
823.871	118
825.376	118
826.878	108
828.382	120
829.885	112
831.387	122
832.889	110
834.391	122
835.892	138
837.392	144
838.893	170
840.393	158
841.893	164
843.392	150
844.891	162
846.389	154
847.888	138
849.386	146
850.882	144
852.38	132
853.876	132
855.372	124
856.868	122
858.363	132
859.858	126
861.353	122
862.847	134
864.341	112
865.834	136
867.328	134
868.82	130
870.313	124
871.805	124
873.296	132
874.787	118
876.278	122
877.769	134
879.258	122
880.748	108
882.237	110
883.726	110
885.214	114
886.702	118
888.19	110
889.677	112
891.164	116
892.651	112
894.137	122
895.623	116
897.108	120
898.593	138
900.077	138
901.562	138
903.046	138
904.529	154
906.012	158
907.495	144
908.977	132
910.459	138
911.941	126
913.422	124
914.903	120
916.383	118
917.863	112
919.343	106
920.822	110
922.301	108
923.779	98
925.257	104
926.735	104
928.213	98
929.69	106
931.166	106
932.643	92
934.119	106
935.594	112
937.069	106
938.543	102
940.018	102
941.492	106
942.966	92
944.439	104
945.911	98
947.384	110
948.856	114
950.328	100
951.799	96
953.27	106
954.741	110
956.21	108
957.68	114
959.15	118
960.619	118
962.088	122
963.556	134
965.023	126
966.491	128
967.958	136
969.425	132
970.891	134
972.357	130
973.824	126
975.288	148
976.754	156
978.218	156
979.682	186
981.146	202
982.609	234
984.072	258
985.534	272
986.997	314
988.459	418
989.92	594
991.382	754
992.842	852
994.302	786
995.763	868
997.222	1220
998.681	1952
1000.14	2886
1001.6	3266
1003.06	2856
1004.52	2000
1005.97	1182
1007.43	708
1008.89	450
1010.34	330
1011.8	254
1013.25	228
1014.71	188
1016.16	190
1017.62	198
1019.07	204
1020.53	240
1021.98	260
1023.43	328
1024.89	396
1026.34	498
1027.79	640
1029.24	768
1030.69	892
1032.14	870
1033.59	834
1035.04	682
1036.49	548
1037.94	396
1039.39	328
1040.84	270
1042.29	240
1043.73	208
1045.18	196
1046.63	190
1048.08	178
1049.52	172
1050.97	170
1052.41	168
1053.86	164
1055.3	164
1056.75	164
1058.19	162
1059.64	166
1061.08	162
1062.52	156
1063.96	168
1065.41	178
1066.85	180
1068.29	172
1069.73	178
1071.17	182
1072.61	182
1074.05	192
1075.49	168
1076.93	176
1078.37	178
1079.81	174
1081.25	168
1082.68	178
1084.12	176
1085.56	172
1087	172
1088.43	184
1089.87	160
1091.3	174
1092.74	178
1094.17	178
1095.61	180
1097.04	174
1098.48	174
1099.91	174
1101.34	170
1102.78	160
1104.21	170
1105.64	160
1107.07	148
1108.5	146
1109.93	134
1111.36	138
1112.8	140
1114.22	132
1115.65	136
1117.08	134
1118.51	124
1119.94	120
1121.37	120
1122.8	108
1124.22	120
1125.65	106
1127.08	114
1128.5	118
1129.93	100
1131.35	114
1132.78	110
1134.2	114
1135.63	108
1137.05	120
1138.48	130
1139.9	138
1141.32	138
1142.75	146
1144.17	162
1145.59	170
1147.01	192
1148.43	208
1149.85	250
1151.27	288
1152.69	346
1154.11	408
1155.53	432
1156.95	414
1158.37	358
1159.79	286
1161.21	262
1162.62	244
1164.04	220
1165.46	214
1166.87	212
1168.29	210
1169.71	212
1171.12	236
1172.54	260
1173.95	284
1175.37	296
1176.78	376
1178.19	424
1179.61	484
1181.02	528
1182.43	540
1183.84	512
1185.26	472
1186.67	446
1188.08	432
1189.49	440
1190.9	480
1192.31	482
1193.72	492
1195.13	518
1196.54	496
1197.95	512
1199.36	494
1200.76	486
1202.17	484
1203.58	460
1204.99	420
1206.39	388
1207.8	362
1209.2	326
1210.61	304
1212.01	274
1213.42	264
1214.82	232
1216.23	240
1217.63	202
1219.03	226
1220.44	202
1221.84	196
1223.24	208
1224.64	206
1226.05	184
1227.45	194
1228.85	192
1230.25	188
1231.65	196
1233.05	180
1234.45	194
1235.85	172
1237.25	174
1238.64	180
1240.04	188
1241.44	174
1242.84	164
1244.23	180
1245.63	176
1247.03	174
1248.42	166
1249.82	170
1251.21	172
1252.61	174
1254	176
1255.4	180
1256.79	168
1258.19	180
1259.58	182
1260.97	164
1262.36	172
1263.76	172
1265.15	184
1266.54	166
1267.93	174
1269.32	166
1270.71	170
1272.1	184
1273.49	160
1274.88	192
1276.27	176
1277.66	170
1279.05	176
1280.43	190
1281.82	190
1283.21	180
1284.6	182
1285.98	180
1287.37	174
1288.75	194
1290.14	194
1291.53	206
1292.91	210
1294.29	198
1295.68	208
1297.06	210
1298.45	216
1299.83	212
1301.21	220
1302.59	220
1303.98	222
1305.36	234
1306.74	234
1308.12	228
1309.5	224
1310.88	236
1312.26	248
1313.64	248
1315.02	242
1316.4	254
1317.78	258
1319.16	268
1320.53	286
1321.91	286
1323.29	306
1324.67	296
1326.04	304
1327.42	292
1328.79	312
1330.17	292
1331.54	298
1332.92	308
1334.29	316
1335.67	308
1337.04	296
1338.42	274
1339.79	270
1341.16	280
1342.53	300
1343.91	264
1345.28	280
1346.65	278
1348.02	270
1349.39	284
1350.76	278
1352.13	282
1353.5	262
1354.87	278
1356.24	278
1357.61	262
1358.98	266
1360.34	284
1361.71	278
1363.08	280
1364.45	290
1365.81	278
1367.18	278
1368.54	272
1369.91	290
1371.28	286
1372.64	276
1374.01	282
1375.37	280
1376.73	272
1378.1	286
1379.46	278
1380.82	268
1382.19	278
1383.55	262
1384.91	248
1386.27	262
1387.63	252
1388.99	270
1390.35	256
1391.71	248
1393.07	244
1394.43	258
1395.79	248
1397.15	264
1398.51	242
1399.87	238
1401.23	234
1402.58	242
1403.94	256
1405.3	240
1406.65	246
1408.01	246
1409.37	234
1410.72	224
1412.08	238
1413.43	242
1414.79	236
1416.14	224
1417.49	224
1418.85	228
1420.2	232
1421.55	224
1422.91	228
1424.26	238
1425.61	206
1426.96	216
1428.31	236
1429.66	236
1431.01	228
1432.36	240
1433.71	232
1435.06	256
1436.41	266
1437.76	278
1439.11	300
1440.46	306
1441.81	296
1443.15	316
1444.5	314
1445.85	346
1447.19	324
1448.54	354
1449.89	356
1451.23	332
1452.58	324
1453.92	328
1455.27	294
1456.61	276
1457.95	252
1459.3	224
1460.64	236
1461.98	224
1463.33	222
1464.67	180
1466.01	218
1467.35	202
1468.69	208
1470.03	186
1471.37	202
1472.71	196
1474.05	210
1475.39	200
1476.73	194
1478.07	182
1479.41	188
1480.75	190
1482.09	188
1483.42	196
1484.76	186
1486.1	194
1487.43	192
1488.77	186
1490.11	182
1491.44	190
1492.78	196
1494.11	186
1495.45	176
1496.78	166
1498.12	182
1499.45	168
1500.78	172
1502.11	172
1503.45	188
1504.78	174
1506.11	168
1507.44	170
1508.77	176
1510.11	178
1511.44	174
1512.77	178
1514.1	170
1515.43	166
1516.76	184
1518.08	166
1519.41	178
1520.74	170
1522.07	170
1523.4	172
1524.72	178
1526.05	164
1527.38	172
1528.7	170
1530.03	166
1531.36	158
1532.68	174
1534.01	166
1535.33	160
1536.66	160
1537.98	162
1539.3	170
1540.63	172
1541.95	170
1543.27	162
1544.6	160
1545.92	166
1547.24	152
1548.56	164
1549.88	174
1551.2	160
1552.52	176
1553.84	164
1555.17	166
1556.48	166
1557.8	166
1559.12	168
1560.44	166
1561.76	164
1563.08	178
1564.4	168
1565.71	176
1567.03	176
1568.35	166
1569.66	172
1570.98	190
1572.29	180
1573.61	202
1574.93	198
1576.24	216
1577.55	254
1578.87	284
1580.18	326
1581.5	398
1582.81	408
1584.12	388
1585.43	350
1586.75	302
1588.06	272
1589.37	250
1590.68	252
1591.99	268
1593.3	296
1594.61	310
1595.92	370
1597.23	418
1598.54	508
1599.85	642
1601.16	698
1602.47	744
1603.78	656
1605.08	556
1606.39	474
1607.7	380
1609	322
1610.31	274
1611.62	240
1612.92	234
1614.23	208
1615.53	190
1616.84	206
1618.14	162
1619.45	174
1620.75	168
1622.06	162
1623.36	176
1624.66	166
1625.96	162
1627.27	164
1628.57	152
1629.87	172
1631.17	158
1632.47	164
1633.77	150
1635.07	162
1636.37	154
1637.67	148
1638.97	148
1640.27	160
1641.57	152
1642.87	154
1644.17	158
1645.47	150
1646.76	162
1648.06	156
1649.36	152
1650.66	156
1651.95	144
1653.25	138
1654.54	140
1655.84	136
1657.13	142
1658.43	142
1659.72	138
1661.02	134
1662.31	132
1663.6	138
1664.9	140
1666.19	136
1667.48	130
1668.78	136
1670.07	130
1671.36	134
1672.65	128
1673.94	126
1675.23	130
1676.52	128
1677.81	126
1679.1	120
1680.39	130
1681.68	130
1682.97	130
1684.26	124
1685.55	134
1686.83	130
1688.12	134
1689.41	128
1690.7	120
1691.98	122
1693.27	122
1694.55	128
1695.84	120
1697.13	122
1698.41	120
1699.69	128
1700.98	126
1702.26	124