File: Mixture_Classification/Jesse_Dataset_v2/Pure Raman/Polystyrene/785nm/ps-ppo-6jan25-1,0000-map3_Y00_X00.txt
204.377	832
206.045	858
207.713	860
209.38	864
211.048	900
212.715	878
214.381	916
216.047	906
217.712	916
219.377	900
221.042	916
222.706	870
224.369	898
226.032	848
227.695	810
229.357	732
231.019	728
232.68	648
234.341	628
236.001	568
237.661	530
239.321	490
240.98	442
242.639	396
244.297	372
245.955	344
247.612	330
249.268	328
250.924	314
252.58	294
254.236	280
255.891	288
257.546	266
259.2	270
260.854	258
262.507	260
264.16	274
265.812	250
267.463	268
269.115	272
270.766	250
272.417	248
274.067	234
275.717	236
277.365	224
279.014	224
280.663	232
282.311	218
283.958	218
285.605	200
287.252	208
288.898	192
290.543	192
292.188	188
293.833	176
295.477	176
297.121	176
298.765	170
300.407	170
302.05	174
303.693	152
305.334	170
306.975	166
308.615	174
310.256	178
311.896	176
313.535	170
315.175	182
316.813	168
318.451	184
320.089	172
321.726	174
323.362	168
324.999	160
326.635	168
328.271	158
329.905	174
331.54	158
333.174	178
334.807	174
336.441	170
338.074	156
339.707	164
341.338	166
342.969	164
344.601	156
346.231	162
347.861	152
349.491	156
351.12	162
352.749	150
354.378	144
356.006	144
357.633	152
359.261	144
360.887	146
362.513	142
364.139	152
365.764	154
367.39	138
369.014	156
370.638	152
372.261	170
373.884	164
375.508	170
377.13	174
378.752	162
380.373	174
381.994	178
383.615	192
385.235	180
386.854	194
388.473	186
390.092	182
391.711	198
393.328	192
394.947	182
396.564	198
398.181	200
399.797	192
401.412	216
403.027	210
404.642	228
406.257	250
407.871	230
409.484	236
411.098	216
412.711	206
414.323	190
415.935	198
417.547	180
419.158	180
420.768	172
422.378	176
423.988	164
425.597	154
427.206	166
428.814	160
430.422	154
432.03	140
433.637	148
435.243	144
436.85	138
438.456	150
440.062	144
441.666	134
443.271	132
444.876	126
446.479	136
448.082	122
449.685	130
451.287	114
452.89	114
454.492	114
456.092	116
457.693	116
459.293	106
460.893	114
462.492	122
464.092	108
465.691	98
467.288	116
468.887	110
470.483	110
472.081	106
473.677	104
475.273	108
476.869	104
478.463	102
480.059	106
481.653	104
483.247	100
484.84	110
486.433	100
488.026	106
489.618	106
491.21	96
492.801	104
494.392	100
495.983	102
497.573	102
499.162	110
500.752	116
502.341	110
503.929	104
505.517	106
507.105	110
508.692	116
510.279	106
511.865	114
513.45	114
515.037	102
516.621	110
518.206	128
519.79	118
521.374	112
522.957	110
524.54	126
526.123	122
527.705	130
529.287	118
530.868	116
532.448	126
534.029	132
535.609	136
537.188	158
538.768	158
540.346	144
541.925	144
543.502	142
545.08	142
546.657	142
548.234	146
549.81	142
551.386	146
552.961	136
554.536	136
556.11	144
557.684	142
559.258	130
560.832	130
562.405	138
563.977	146
565.55	138
567.12	134
568.692	136
570.263	140
571.833	138
573.403	134
574.973	148
576.542	134
578.111	136
579.679	120
581.247	122
582.815	106
584.382	108
585.948	124
587.514	116
589.081	108
590.645	100
592.211	106
593.775	114
595.339	108
596.904	104
598.466	116
600.03	118
601.592	116
603.154	122
604.715	140
606.277	150
607.838	150
609.398	132
610.958	136
612.518	154
614.077	206
615.636	234
617.194	332
618.753	508
620.31	728
621.867	684
623.424	458
624.98	288
626.537	190
628.092	168
629.647	148
631.202	118
632.756	118
634.31	112
635.864	108
637.417	96
638.969	104
640.521	94
642.074	86
643.625	88
645.176	86
646.726	80
648.276	82
649.827	78
651.376	80
652.925	76
654.473	82
656.021	82
657.569	74
659.117	78
660.664	84
662.21	76
663.757	76
665.302	84
666.847	80
668.392	80
669.937	74
671.481	76
673.025	78
674.568	74
676.111	80
677.653	80
679.195	80
680.737	84
682.279	76
683.82	84
685.36	76
686.9	82
688.44	80
689.979	88
691.517	74
693.056	82
694.594	86
696.132	84
697.669	98
699.206	92
700.742	100
702.278	110
703.814	96
705.35	88
706.884	110
708.419	98
709.953	100
711.487	86
713.019	94
714.552	92
716.085	98
717.617	106
719.148	106
720.68	118
722.21	132
723.741	154
725.271	158
726.8	144
728.33	142
729.858	122
731.387	124
732.915	126
734.443	150
735.97	152
737.497	168
739.023	178
740.549	174
742.075	186
743.6	166
745.125	188
746.65	188
748.173	202
749.697	188
751.22	200
752.743	206
754.266	214
755.788	222
757.309	232
758.831	238
760.351	232
761.871	230
763.392	234
764.912	214
766.431	210
767.95	198
769.468	200
770.986	198
772.504	206
774.022	184
775.538	188
777.055	206
778.571	212
780.086	220
781.602	226
783.117	234
784.632	260
786.146	266
787.659	304
789.173	312
790.685	330
792.198	330
793.71	338
795.222	352
796.733	344
798.244	328
799.755	298
801.265	272
802.775	238
804.284	228
805.793	208
807.302	204
808.81	188
810.318	184
811.826	164
813.333	160
814.84	152
816.346	142
817.851	128
819.357	134
820.862	120
822.367	116
823.871	110
825.376	120
826.878	116
828.382	112
829.885	116
831.387	116
832.889	114
834.391	128
835.892	138
837.392	154
838.893	142
840.393	152
841.893	162
843.392	150
844.891	154
846.389	136
847.888	146
849.386	142
850.882	132
852.38	126
853.876	126
855.372	126
856.868	120
858.363	126
859.858	122
861.353	118
862.847	126
864.341	128
865.834	124
867.328	128
868.82	130
870.313	124
871.805	118
873.296	134
874.787	122
876.278	118
877.769	110
879.258	120
880.748	112
882.237	112
883.726	126
885.214	120
886.702	112
888.19	120
889.677	118
891.164	114
892.651	116
894.137	116
895.623	102
897.108	126
898.593	134
900.077	130
901.562	142
903.046	150
904.529	140
906.012	152
907.495	142
908.977	140
910.459	126
911.941	134
913.422	126
914.903	114
916.383	116
917.863	110
919.343	104
920.822	108
922.301	98
923.779	98
925.257	110
926.735	96
928.213	90
929.69	86
931.166	98
932.643	94
934.119	92
935.594	96
937.069	100
938.543	98
940.018	110
941.492	98
942.966	102
944.439	100
945.911	116
947.384	104
948.856	100
950.328	106
951.799	82
953.27	96
954.741	96
956.21	114
957.68	98
959.15	118
960.619	116
962.088	120
963.556	130
965.023	122
966.491	138
967.958	126
969.425	132
970.891	120
972.357	130
973.824	130
975.288	136
976.754	148
978.218	168
979.682	182
981.146	210
982.609	222
984.072	232
985.534	262
986.997	318
988.459	408
989.92	568
991.382	698
992.842	760
994.302	758
995.763	820
997.222	1198
998.681	1910
1000.14	2906
1001.6	3322
1003.06	2890
1004.52	1966
1005.97	1182
1007.43	676
1008.89	438
1010.34	306
1011.8	258
1013.25	210
1014.71	194
1016.16	176
1017.62	184
1019.07	192
1020.53	226
1021.98	254
1023.43	292
1024.89	394
1026.34	504
1027.79	610
1029.24	742
1030.69	844
1032.14	942
1033.59	824
1035.04	684
1036.49	502
1037.94	400
1039.39	320
1040.84	266
1042.29	220
1043.73	190
1045.18	200
1046.63	192
1048.08	166
1049.52	146
1050.97	160
1052.41	156
1053.86	158
1055.3	152
1056.75	148
1058.19	154
1059.64	158
1061.08	174
1062.52	166
1063.96	168
1065.41	168
1066.85	172
1068.29	178
1069.73	178
1071.17	180
1072.61	168
1074.05	166
1075.49	166
1076.93	170
1078.37	164
1079.81	174
1081.25	164
1082.68	164
1084.12	156
1085.56	172
1087	172
1088.43	158
1089.87	164
1091.3	156
1092.74	162
1094.17	164
1095.61	178
1097.04	178
1098.48	180
1099.91	162
1101.34	154
1102.78	148
1104.21	150
1105.64	144
1107.07	138
1108.5	130
1109.93	122
1111.36	134
1112.8	126
1114.22	126
1115.65	124
1117.08	120
1118.51	112
1119.94	122
1121.37	108
1122.8	114
1124.22	100
1125.65	104
1127.08	108
1128.5	98
1129.93	116
1131.35	110
1132.78	108
1134.2	106
1135.63	112
1137.05	114
1138.48	112
1139.9	116
1141.32	136
1142.75	140
1144.17	156
1145.59	160
1147.01	166
1148.43	194
1149.85	228
1151.27	288
1152.69	370
1154.11	392
1155.53	404
1156.95	374
1158.37	344
1159.79	312
1161.21	240
1162.62	216
1164.04	220
1165.46	196
1166.87	198
1168.29	206
1169.71	198
1171.12	206
1172.54	236
1173.95	262
1175.37	274
1176.78	328
1178.19	408
1179.61	468
1181.02	510
1182.43	536
1183.84	512
1185.26	434
1186.67	428
1188.08	412
1189.49	442
1190.9	442
1192.31	492
1193.72	470
1195.13	490
1196.54	502
1197.95	504
1199.36	486
1200.76	462
1202.17	460
1203.58	426
1204.99	414
1206.39	366
1207.8	348
1209.2	338
1210.61	258
1212.01	258
1213.42	246
1214.82	224
1216.23	220
1217.63	212
1219.03	208
1220.44	216
1221.84	210
1223.24	186
1224.64	192
1226.05	188
1227.45	192
1228.85	190
1230.25	182
1231.65	186
1233.05	166
1234.45	166
1235.85	176
1237.25	156
1238.64	162
1240.04	170
1241.44	164
1242.84	172
1244.23	156
1245.63	166
1247.03	164
1248.42	166
1249.82	152
1251.21	176
1252.61	158
1254	154
1255.4	164
1256.79	166
1258.19	150
1259.58	164
1260.97	158
1262.36	172
1263.76	168
1265.15	164
1266.54	168
1267.93	162
1269.32	162
1270.71	156
1272.1	168
1273.49	160
1274.88	164
1276.27	160
1277.66	162
1279.05	176
1280.43	164
1281.82	166
1283.21	176
1284.6	180
1285.98	166
1287.37	172
1288.75	174
1290.14	182
1291.53	180
1292.91	186
1294.29	200
1295.68	204
1297.06	206
1298.45	198
1299.83	196
1301.21	206
1302.59	214
1303.98	204
1305.36	220
1306.74	216
1308.12	220
1309.5	212
1310.88	220
1312.26	224
1313.64	234
1315.02	230
1316.4	232
1317.78	246
1319.16	264
1320.53	246
1321.91	274
1323.29	244
1324.67	288
1326.04	284
1327.42	292
1328.79	284
1330.17	272
1331.54	278
1332.92	304
1334.29	280
1335.67	286
1337.04	278
1338.42	280
1339.79	256
1341.16	274
1342.53	252
1343.91	254
1345.28	256
1346.65	254
1348.02	252
1349.39	232
1350.76	250
1352.13	256
1353.5	256
1354.87	258
1356.24	256
1357.61	250
1358.98	258
1360.34	256
1361.71	262
1363.08	272
1364.45	272
1365.81	260
1367.18	270
1368.54	284
1369.91	272
1371.28	268
1372.64	264
1374.01	252
1375.37	270
1376.73	266
1378.1	260
1379.46	268
1380.82	238
1382.19	258
1383.55	242
1384.91	240
1386.27	236
1387.63	224
1388.99	228
1390.35	228
1391.71	236
1393.07	212
1394.43	220
1395.79	224
1397.15	218
1398.51	218
1399.87	216
1401.23	228
1402.58	222
1403.94	222
1405.3	222
1406.65	208
1408.01	214
1409.37	220
1410.72	212
1412.08	200
1413.43	206
1414.79	214
1416.14	212
1417.49	220
1418.85	220
1420.2	222
1421.55	208
1422.91	204
1424.26	208
1425.61	198
1426.96	202
1428.31	212
1429.66	208
1431.01	216
1432.36	206
1433.71	222
1435.06	238
1436.41	240
1437.76	258
1439.11	250
1440.46	280
1441.81	304
1443.15	300
1444.5	296
1445.85	320
1447.19	314
1448.54	334
1449.89	308
1451.23	316
1452.58	330
1453.92	292
1455.27	294
1456.61	270
1457.95	252
1459.3	224
1460.64	214
1461.98	196
1463.33	198
1464.67	194
1466.01	192
1467.35	184
1468.69	174
1470.03	180
1471.37	196
1472.71	180
1474.05	196
1475.39	172
1476.73	188
1478.07	174
1479.41	178
1480.75	178
1482.09	174
1483.42	168
1484.76	162
1486.1	164
1487.43	176
1488.77	164
1490.11	168
1491.44	166
1492.78	178
1494.11	176
1495.45	172
1496.78	164
1498.12	174
1499.45	160
1500.78	162
1502.11	166
1503.45	156
1504.78	174
1506.11	158
1507.44	164
1508.77	152
1510.11	160
1511.44	156
1512.77	154
1514.1	158
1515.43	158
1516.76	152
1518.08	152
1519.41	172
1520.74	150
1522.07	152
1523.4	156
1524.72	156
1526.05	156
1527.38	162
1528.7	150
1530.03	166
1531.36	142
1532.68	162
1534.01	146
1535.33	144
1536.66	146
1537.98	156
1539.3	156
1540.63	152
1541.95	152
1543.27	156
1544.6	156
1545.92	164
1547.24	164
1548.56	148
1549.88	156
1551.2	148
1552.52	166
1553.84	162
1555.17	158
1556.48	150
1557.8	162
1559.12	158
1560.44	162
1561.76	158
1563.08	166
1564.4	168
1565.71	162
1567.03	170
1568.35	176
1569.66	170
1570.98	168
1572.29	174
1573.61	182
1574.93	194
1576.24	218
1577.55	218
1578.87	272
1580.18	316
1581.5	374
1582.81	420
1584.12	414
1585.43	352
1586.75	288
1588.06	260
1589.37	244
1590.68	260
1591.99	254
1593.3	268
1594.61	286
1595.92	352
1597.23	406
1598.54	520
1599.85	608
1601.16	676
1602.47	692
1603.78	638
1605.08	536
1606.39	446
1607.7	370
1609	322
1610.31	276
1611.62	238
1612.92	210
1614.23	210
1615.53	190
1616.84	190
1618.14	182
1619.45	166
1620.75	162
1622.06	172
1623.36	160
1624.66	162
1625.96	134
1627.27	162
1628.57	146
1629.87	154
1631.17	148
1632.47	146
1633.77	146
1635.07	152
1636.37	154
1637.67	140
1638.97	134
1640.27	146
1641.57	156
1642.87	160
1644.17	152
1645.47	152
1646.76	148
1648.06	146
1649.36	136
1650.66	150
1651.95	140
1653.25	138
1654.54	132
1655.84	140
1657.13	138
1658.43	122
1659.72	130
1661.02	134
1662.31	132
1663.6	134
1664.9	118
1666.19	128
1667.48	128
1668.78	120
1670.07	120
1671.36	116
1672.65	114
1673.94	132
1675.23	128
1676.52	124
1677.81	124
1679.1	124
1680.39	120
1681.68	110
1682.97	136
1684.26	126
1685.55	122
1686.83	124
1688.12	126
1689.41	126
1690.7	126
1691.98	120
1693.27	130
1694.55	114
1695.84	110
1697.13	124
1698.41	114
1699.69	122
1700.98	130
1702.26	116