File: Mixture_Classification/Jesse_Dataset_v2/Pure Raman/Polystyrene/785nm/ps-ppo-6jan25-1,0000-map3_Y01_X06.txt
204.377	826
206.045	856
207.713	862
209.38	888
211.048	896
212.715	890
214.381	906
216.047	924
217.712	910
219.377	902
221.042	918
222.706	882
224.369	852
226.032	854
227.695	814
229.357	782
231.019	702
232.68	658
234.341	638
236.001	572
237.661	522
239.321	488
240.98	460
242.639	406
244.297	392
245.955	348
247.612	330
249.268	324
250.924	318
252.58	292
254.236	290
255.891	280
257.546	258
259.2	286
260.854	258
262.507	260
264.16	242
265.812	238
267.463	248
269.115	250
270.766	232
272.417	248
274.067	218
275.717	234
277.365	232
279.014	216
280.663	214
282.311	206
283.958	224
285.605	206
287.252	202
288.898	194
290.543	186
292.188	192
293.833	184
295.477	172
297.121	168
298.765	156
300.407	168
302.05	166
303.693	170
305.334	152
306.975	176
308.615	166
310.256	152
311.896	164
313.535	170
315.175	164
316.813	164
318.451	172
320.089	160
321.726	160
323.362	164
324.999	176
326.635	168
328.271	174
329.905	160
331.54	154
333.174	158
334.807	172
336.441	176
338.074	152
339.707	162
341.338	152
342.969	150
344.601	152
346.231	148
347.861	164
349.491	138
351.12	138
352.749	138
354.378	146
356.006	132
357.633	142
359.261	136
360.887	152
362.513	150
364.139	146
365.764	152
367.39	144
369.014	142
370.638	146
372.261	152
373.884	150
375.508	160
377.13	154
378.752	164
380.373	170
381.994	182
383.615	170
385.235	180
386.854	170
388.473	184
390.092	162
391.711	180
393.328	182
394.947	190
396.564	192
398.181	196
399.797	206
401.412	208
403.027	228
404.642	240
406.257	228
407.871	228
409.484	202
411.098	216
412.711	202
414.323	190
415.935	178
417.547	188
419.158	176
420.768	164
422.378	158
423.988	170
425.597	148
427.206	150
428.814	148
430.422	140
432.03	144
433.637	144
435.243	142
436.85	138
438.456	126
440.062	130
441.666	134
443.271	128
444.876	130
446.479	124
448.082	114
449.685	118
451.287	118
452.89	112
454.492	104
456.092	114
457.693	108
459.293	106
460.893	100
462.492	90
464.092	100
465.691	102
467.288	106
468.887	92
470.483	98
472.081	110
473.677	96
475.273	106
476.869	100
478.463	94
480.059	98
481.653	88
483.247	88
484.84	92
486.433	92
488.026	96
489.618	104
491.21	92
492.801	98
494.392	94
495.983	90
497.573	98
499.162	104
500.752	104
502.341	108
503.929	104
505.517	102
507.105	106
508.692	108
510.279	108
511.865	96
513.45	104
515.037	110
516.621	108
518.206	110
519.79	104
521.374	106
522.957	116
524.54	110
526.123	116
527.705	116
529.287	116
530.868	128
532.448	136
534.029	136
535.609	138
537.188	140
538.768	140
540.346	140
541.925	130
543.502	156
545.08	142
546.657	150
548.234	140
549.81	140
551.386	132
552.961	136
554.536	136
556.11	140
557.684	130
559.258	142
560.832	130
562.405	122
563.977	142
565.55	136
567.12	138
568.692	138
570.263	138
571.833	140
573.403	134
574.973	142
576.542	122
578.111	122
579.679	118
581.247	108
582.815	120
584.382	98
585.948	112
587.514	112
589.081	106
590.645	102
592.211	100
593.775	106
595.339	106
596.904	112
598.466	102
600.03	122
601.592	112
603.154	112
604.715	126
606.277	138
607.838	146
609.398	144
610.958	150
612.518	152
614.077	180
615.636	218
617.194	306
618.753	480
620.31	742
621.867	682
623.424	456
624.98	280
626.537	198
628.092	164
629.647	146
631.202	132
632.756	118
634.31	108
635.864	100
637.417	98
638.969	94
640.521	90
642.074	82
643.625	96
645.176	78
646.726	80
648.276	78
649.827	80
651.376	72
652.925	76
654.473	76
656.021	72
657.569	82
659.117	70
660.664	74
662.21	70
663.757	76
665.302	70
666.847	68
668.392	74
669.937	76
671.481	74
673.025	56
674.568	72
676.111	70
677.653	68
679.195	80
680.737	72
682.279	80
683.82	72
685.36	76
686.9	76
688.44	72
689.979	68
691.517	74
693.056	76
694.594	84
696.132	76
697.669	88
699.206	78
700.742	98
702.278	94
703.814	92
705.35	92
706.884	94
708.419	96
709.953	88
711.487	98
713.019	98
714.552	100
716.085	96
717.617	94
719.148	100
720.68	118
722.21	124
723.741	142
725.271	146
726.8	136
728.33	138
729.858	130
731.387	120
732.915	128
734.443	128
735.97	142
737.497	156
739.023	164
740.549	156
742.075	184
743.6	200
745.125	184
746.65	188
748.173	188
749.697	186
751.22	200
752.743	214
754.266	222
755.788	214
757.309	228
758.831	234
760.351	222
761.871	232
763.392	202
764.912	214
766.431	210
767.95	218
769.468	210
770.986	188
772.504	178
774.022	208
775.538	210
777.055	186
778.571	188
780.086	198
781.602	230
783.117	260
784.632	266
786.146	278
787.659	288
789.173	298
790.685	314
792.198	320
793.71	336
795.222	342
796.733	338
798.244	316
799.755	298
801.265	276
802.775	268
804.284	220
805.793	202
807.302	186
808.81	186
810.318	174
811.826	170
813.333	160
814.84	148
816.346	152
817.851	136
819.357	122
820.862	120
822.367	118
823.871	114
825.376	110
826.878	114
828.382	110
829.885	108
831.387	126
832.889	126
834.391	124
835.892	128
837.392	138
838.893	146
840.393	154
841.893	158
843.392	152
844.891	150
846.389	156
847.888	134
849.386	134
850.882	142
852.38	128
853.876	128
855.372	124
856.868	130
858.363	116
859.858	120
861.353	116
862.847	120
864.341	124
865.834	116
867.328	122
868.82	116
870.313	118
871.805	118
873.296	116
874.787	112
876.278	126
877.769	108
879.258	120
880.748	106
882.237	112
883.726	118
885.214	112
886.702	116
888.19	108
889.677	112
891.164	108
892.651	118
894.137	116
895.623	114
897.108	116
898.593	124
900.077	116
901.562	142
903.046	130
904.529	142
906.012	128
907.495	140
908.977	132
910.459	128
911.941	126
913.422	126
914.903	108
916.383	116
917.863	112
919.343	106
920.822	102
922.301	96
923.779	90
925.257	98
926.735	102
928.213	88
929.69	84
931.166	94
932.643	100
934.119	110
935.594	96
937.069	94
938.543	104
940.018	102
941.492	92
942.966	104
944.439	92
945.911	102
947.384	100
948.856	100
950.328	106
951.799	94
953.27	92
954.741	108
956.21	102
957.68	108
959.15	116
960.619	116
962.088	112
963.556	118
965.023	122
966.491	134
967.958	134
969.425	126
970.891	124
972.357	128
973.824	132
975.288	138
976.754	150
978.218	164
979.682	190
981.146	198
982.609	222
984.072	260
985.534	266
986.997	326
988.459	410
989.92	576
991.382	772
992.842	800
994.302	794
995.763	838
997.222	1198
998.681	1950
1000.14	2890
1001.6	3346
1003.06	2938
1004.52	1994
1005.97	1202
1007.43	700
1008.89	426
1010.34	328
1011.8	246
1013.25	208
1014.71	184
1016.16	192
1017.62	192
1019.07	194
1020.53	220
1021.98	248
1023.43	318
1024.89	394
1026.34	476
1027.79	616
1029.24	754
1030.69	848
1032.14	924
1033.59	808
1035.04	656
1036.49	538
1037.94	402
1039.39	308
1040.84	262
1042.29	226
1043.73	204
1045.18	190
1046.63	172
1048.08	170
1049.52	160
1050.97	142
1052.41	160
1053.86	156
1055.3	158
1056.75	152
1058.19	154
1059.64	156
1061.08	144
1062.52	160
1063.96	158
1065.41	180
1066.85	170
1068.29	180
1069.73	168
1071.17	180
1072.61	176
1074.05	174
1075.49	158
1076.93	164
1078.37	156
1079.81	172
1081.25	170
1082.68	160
1084.12	164
1085.56	168
1087	158
1088.43	166
1089.87	156
1091.3	156
1092.74	168
1094.17	160
1095.61	152
1097.04	166
1098.48	164
1099.91	164
1101.34	160
1102.78	148
1104.21	148
1105.64	156
1107.07	132
1108.5	146
1109.93	140
1111.36	132
1112.8	116
1114.22	132
1115.65	128
1117.08	120
1118.51	126
1119.94	114
1121.37	108
1122.8	110
1124.22	104
1125.65	104
1127.08	108
1128.5	102
1129.93	112
1131.35	100
1132.78	108
1134.2	102
1135.63	114
1137.05	112
1138.48	118
1139.9	124
1141.32	140
1142.75	144
1144.17	146
1145.59	168
1147.01	174
1148.43	194
1149.85	228
1151.27	288
1152.69	354
1154.11	378
1155.53	406
1156.95	380
1158.37	344
1159.79	290
1161.21	262
1162.62	220
1164.04	220
1165.46	208
1166.87	204
1168.29	214
1169.71	210
1171.12	222
1172.54	246
1173.95	264
1175.37	296
1176.78	354
1178.19	402
1179.61	488
1181.02	512
1182.43	526
1183.84	498
1185.26	448
1186.67	410
1188.08	420
1189.49	438
1190.9	450
1192.31	464
1193.72	496
1195.13	486
1196.54	514
1197.95	496
1199.36	492
1200.76	462
1202.17	460
1203.58	434
1204.99	392
1206.39	390
1207.8	340
1209.2	306
1210.61	286
1212.01	268
1213.42	250
1214.82	242
1216.23	224
1217.63	216
1219.03	220
1220.44	208
1221.84	196
1223.24	194
1224.64	180
1226.05	192
1227.45	188
1228.85	188
1230.25	192
1231.65	178
1233.05	180
1234.45	170
1235.85	166
1237.25	170
1238.64	172
1240.04	172
1241.44	162
1242.84	168
1244.23	158
1245.63	164
1247.03	156
1248.42	162
1249.82	158
1251.21	162
1252.61	156
1254	168
1255.4	176
1256.79	168
1258.19	170
1259.58	168
1260.97	164
1262.36	174
1263.76	172
1265.15	164
1266.54	182
1267.93	162
1269.32	168
1270.71	172
1272.1	178
1273.49	174
1274.88	164
1276.27	170
1277.66	172
1279.05	172
1280.43	170
1281.82	176
1283.21	184
1284.6	154
1285.98	180
1287.37	172
1288.75	176
1290.14	186
1291.53	196
1292.91	182
1294.29	200
1295.68	200
1297.06	208
1298.45	196
1299.83	198
1301.21	212
1302.59	196
1303.98	220
1305.36	224
1306.74	228
1308.12	234
1309.5	218
1310.88	208
1312.26	232
1313.64	228
1315.02	246
1316.4	248
1317.78	238
1319.16	258
1320.53	256
1321.91	264
1323.29	282
1324.67	280
1326.04	276
1327.42	284
1328.79	294
1330.17	292
1331.54	308
1332.92	302
1334.29	288
1335.67	298
1337.04	260
1338.42	284
1339.79	284
1341.16	256
1342.53	262
1343.91	272
1345.28	260
1346.65	264
1348.02	264
1349.39	270
1350.76	258
1352.13	252
1353.5	260
1354.87	266
1356.24	268
1357.61	252
1358.98	268
1360.34	270
1361.71	268
1363.08	276
1364.45	282
1365.81	252
1367.18	270
1368.54	284
1369.91	274
1371.28	268
1372.64	286
1374.01	288
1375.37	278
1376.73	258
1378.1	272
1379.46	262
1380.82	238
1382.19	262
1383.55	250
1384.91	242
1386.27	238
1387.63	238
1388.99	224
1390.35	230
1391.71	242
1393.07	230
1394.43	246
1395.79	226
1397.15	230
1398.51	238
1399.87	232
1401.23	232
1402.58	232
1403.94	236
1405.3	234
1406.65	226
1408.01	238
1409.37	212
1410.72	208
1412.08	214
1413.43	218
1414.79	216
1416.14	228
1417.49	224
1418.85	204
1420.2	222
1421.55	222
1422.91	218
1424.26	204
1425.61	224
1426.96	218
1428.31	228
1429.66	218
1431.01	222
1432.36	244
1433.71	244
1435.06	256
1436.41	262
1437.76	258
1439.11	272
1440.46	282
1441.81	292
1443.15	304
1444.5	308
1445.85	316
1447.19	322
1448.54	330
1449.89	320
1451.23	322
1452.58	324
1453.92	306
1455.27	306
1456.61	270
1457.95	256
1459.3	242
1460.64	224
1461.98	228
1463.33	204
1464.67	194
1466.01	196
1467.35	192
1468.69	190
1470.03	182
1471.37	178
1472.71	190
1474.05	202
1475.39	186
1476.73	182
1478.07	180
1479.41	196
1480.75	186
1482.09	192
1483.42	186
1484.76	172
1486.1	176
1487.43	182
1488.77	174
1490.11	170
1491.44	180
1492.78	184
1494.11	182
1495.45	188
1496.78	178
1498.12	164
1499.45	174
1500.78	170
1502.11	170
1503.45	162
1504.78	158
1506.11	164
1507.44	160
1508.77	164
1510.11	174
1511.44	164
1512.77	158
1514.1	168
1515.43	164
1516.76	164
1518.08	166
1519.41	174
1520.74	164
1522.07	162
1523.4	152
1524.72	166
1526.05	170
1527.38	164
1528.7	166
1530.03	160
1531.36	162
1532.68	166
1534.01	156
1535.33	170
1536.66	154
1537.98	168
1539.3	148
1540.63	164
1541.95	150
1543.27	156
1544.6	166
1545.92	142
1547.24	160
1548.56	148
1549.88	172
1551.2	160
1552.52	160
1553.84	164
1555.17	162
1556.48	160
1557.8	162
1559.12	158
1560.44	158
1561.76	160
1563.08	172
1564.4	158
1565.71	164
1567.03	158
1568.35	176
1569.66	176
1570.98	180
1572.29	180
1573.61	210
1574.93	202
1576.24	212
1577.55	230
1578.87	258
1580.18	320
1581.5	400
1582.81	428
1584.12	398
1585.43	354
1586.75	272
1588.06	256
1589.37	246
1590.68	234
1591.99	258
1593.3	272
1594.61	302
1595.92	348
1597.23	410
1598.54	500
1599.85	618
1601.16	702
1602.47	692
1603.78	642
1605.08	518
1606.39	462
1607.7	364
1609	320
1610.31	290
1611.62	236
1612.92	214
1614.23	214
1615.53	190
1616.84	186
1618.14	182
1619.45	178
1620.75	162
1622.06	164
1623.36	178
1624.66	154
1625.96	152
1627.27	152
1628.57	142
1629.87	150
1631.17	154
1632.47	148
1633.77	148
1635.07	140
1636.37	156
1637.67	146
1638.97	150
1640.27	148
1641.57	156
1642.87	158
1644.17	144
1645.47	158
1646.76	152
1648.06	148
1649.36	144
1650.66	152
1651.95	148
1653.25	148
1654.54	130
1655.84	138
1657.13	140
1658.43	136
1659.72	128
1661.02	130
1662.31	132
1663.6	132
1664.9	132
1666.19	142
1667.48	134
1668.78	134
1670.07	134
1671.36	136
1672.65	124
1673.94	120
1675.23	132
1676.52	132
1677.81	128
1679.1	134
1680.39	120
1681.68	112
1682.97	126
1684.26	126
1685.55	120
1686.83	118
1688.12	122
1689.41	126
1690.7	118
1691.98	124
1693.27	122
1694.55	110
1695.84	112
1697.13	128
1698.41	114
1699.69	116
1700.98	114
1702.26	132