File: Mixture_Classification/Jesse_Dataset_v2/Pure Raman/Polystyrene/785nm/ps-ppo-6jan25-1,0000-map3_Y00_X10.txt
204.377	828
206.045	830
207.713	858
209.38	890
211.048	874
212.715	858
214.381	886
216.047	914
217.712	914
219.377	926
221.042	934
222.706	914
224.369	878
226.032	860
227.695	818
229.357	776
231.019	730
232.68	662
234.341	626
236.001	574
237.661	544
239.321	502
240.98	488
242.639	416
244.297	378
245.955	342
247.612	338
249.268	320
250.924	298
252.58	308
254.236	300
255.891	276
257.546	276
259.2	266
260.854	268
262.507	262
264.16	262
265.812	238
267.463	250
269.115	250
270.766	252
272.417	254
274.067	244
275.717	230
277.365	232
279.014	220
280.663	220
282.311	222
283.958	204
285.605	218
287.252	206
288.898	202
290.543	194
292.188	180
293.833	178
295.477	176
297.121	176
298.765	170
300.407	160
302.05	170
303.693	164
305.334	170
306.975	162
308.615	166
310.256	150
311.896	166
313.535	174
315.175	168
316.813	180
318.451	160
320.089	178
321.726	156
323.362	172
324.999	170
326.635	172
328.271	168
329.905	172
331.54	170
333.174	156
334.807	160
336.441	154
338.074	170
339.707	162
341.338	162
342.969	164
344.601	152
346.231	152
347.861	154
349.491	152
351.12	156
352.749	150
354.378	148
356.006	150
357.633	146
359.261	144
360.887	142
362.513	146
364.139	144
365.764	158
367.39	154
369.014	146
370.638	146
372.261	138
373.884	156
375.508	168
377.13	156
378.752	168
380.373	162
381.994	176
383.615	188
385.235	176
386.854	174
388.473	184
390.092	188
391.711	186
393.328	194
394.947	198
396.564	192
398.181	198
399.797	196
401.412	206
403.027	220
404.642	214
406.257	238
407.871	228
409.484	232
411.098	208
412.711	208
414.323	198
415.935	182
417.547	170
419.158	170
420.768	166
422.378	162
423.988	152
425.597	154
427.206	156
428.814	150
430.422	148
432.03	142
433.637	136
435.243	136
436.85	130
438.456	136
440.062	132
441.666	126
443.271	140
444.876	126
446.479	122
448.082	110
449.685	120
451.287	120
452.89	118
454.492	116
456.092	116
457.693	110
459.293	116
460.893	104
462.492	108
464.092	106
465.691	108
467.288	114
468.887	100
470.483	108
472.081	110
473.677	100
475.273	100
476.869	106
478.463	102
480.059	100
481.653	102
483.247	92
484.84	90
486.433	100
488.026	100
489.618	100
491.21	96
492.801	98
494.392	94
495.983	92
497.573	102
499.162	88
500.752	108
502.341	110
503.929	114
505.517	108
507.105	104
508.692	104
510.279	106
511.865	108
513.45	98
515.037	104
516.621	102
518.206	104
519.79	104
521.374	104
522.957	110
524.54	116
526.123	118
527.705	122
529.287	134
530.868	124
532.448	132
534.029	144
535.609	140
537.188	152
538.768	136
540.346	152
541.925	158
543.502	136
545.08	144
546.657	154
548.234	136
549.81	140
551.386	130
552.961	142
554.536	138
556.11	144
557.684	138
559.258	130
560.832	138
562.405	138
563.977	126
565.55	140
567.12	134
568.692	122
570.263	130
571.833	144
573.403	138
574.973	144
576.542	130
578.111	134
579.679	110
581.247	110
582.815	114
584.382	118
585.948	100
587.514	122
589.081	110
590.645	112
592.211	100
593.775	106
595.339	100
596.904	106
598.466	110
600.03	112
601.592	106
603.154	116
604.715	126
606.277	138
607.838	142
609.398	154
610.958	144
612.518	156
614.077	186
615.636	226
617.194	316
618.753	528
620.31	720
621.867	708
623.424	472
624.98	270
626.537	190
628.092	168
629.647	146
631.202	132
632.756	134
634.31	114
635.864	94
637.417	100
638.969	90
640.521	88
642.074	86
643.625	82
645.176	86
646.726	84
648.276	80
649.827	76
651.376	78
652.925	88
654.473	80
656.021	82
657.569	82
659.117	80
660.664	78
662.21	78
663.757	82
665.302	72
666.847	74
668.392	80
669.937	82
671.481	78
673.025	74
674.568	76
676.111	74
677.653	72
679.195	78
680.737	80
682.279	76
683.82	76
685.36	76
686.9	74
688.44	78
689.979	78
691.517	72
693.056	78
694.594	76
696.132	84
697.669	86
699.206	98
700.742	92
702.278	90
703.814	102
705.35	98
706.884	96
708.419	96
709.953	92
711.487	96
713.019	102
714.552	90
716.085	98
717.617	98
719.148	100
720.68	122
722.21	130
723.741	142
725.271	148
726.8	144
728.33	136
729.858	120
731.387	128
732.915	122
734.443	136
735.97	140
737.497	162
739.023	184
740.549	160
742.075	184
743.6	174
745.125	176
746.65	194
748.173	188
749.697	190
751.22	192
752.743	200
754.266	200
755.788	236
757.309	222
758.831	230
760.351	234
761.871	222
763.392	232
764.912	218
766.431	216
767.95	214
769.468	204
770.986	202
772.504	196
774.022	188
775.538	196
777.055	180
778.571	198
780.086	206
781.602	228
783.117	246
784.632	248
786.146	268
787.659	296
789.173	308
790.685	334
792.198	330
793.71	322
795.222	348
796.733	344
798.244	314
799.755	304
801.265	274
802.775	254
804.284	214
805.793	220
807.302	198
808.81	186
810.318	168
811.826	170
813.333	160
814.84	154
816.346	132
817.851	140
819.357	122
820.862	126
822.367	116
823.871	108
825.376	116
826.878	114
828.382	120
829.885	110
831.387	114
832.889	126
834.391	124
835.892	134
837.392	146
838.893	156
840.393	170
841.893	150
843.392	156
844.891	158
846.389	150
847.888	144
849.386	136
850.882	124
852.38	122
853.876	124
855.372	134
856.868	130
858.363	116
859.858	124
861.353	124
862.847	126
864.341	128
865.834	128
867.328	122
868.82	130
870.313	116
871.805	116
873.296	114
874.787	116
876.278	122
877.769	110
879.258	112
880.748	104
882.237	104
883.726	122
885.214	104
886.702	108
888.19	116
889.677	120
891.164	116
892.651	116
894.137	114
895.623	120
897.108	130
898.593	124
900.077	132
901.562	138
903.046	142
904.529	144
906.012	144
907.495	140
908.977	148
910.459	136
911.941	128
913.422	126
914.903	114
916.383	106
917.863	108
919.343	100
920.822	102
922.301	98
923.779	92
925.257	102
926.735	102
928.213	90
929.69	90
931.166	96
932.643	98
934.119	102
935.594	96
937.069	96
938.543	100
940.018	98
941.492	98
942.966	104
944.439	102
945.911	102
947.384	102
948.856	102
950.328	102
951.799	104
953.27	98
954.741	92
956.21	108
957.68	106
959.15	112
960.619	114
962.088	124
963.556	116
965.023	122
966.491	130
967.958	142
969.425	124
970.891	120
972.357	122
973.824	136
975.288	142
976.754	158
978.218	172
979.682	188
981.146	176
982.609	220
984.072	240
985.534	276
986.997	336
988.459	420
989.92	620
991.382	790
992.842	854
994.302	810
995.763	868
997.222	1218
998.681	1954
1000.14	2846
1001.6	3360
1003.06	2856
1004.52	1988
1005.97	1198
1007.43	698
1008.89	434
1010.34	322
1011.8	248
1013.25	208
1014.71	216
1016.16	180
1017.62	170
1019.07	212
1020.53	218
1021.98	256
1023.43	320
1024.89	364
1026.34	482
1027.79	620
1029.24	744
1030.69	852
1032.14	876
1033.59	838
1035.04	702
1036.49	548
1037.94	406
1039.39	314
1040.84	272
1042.29	218
1043.73	208
1045.18	182
1046.63	190
1048.08	166
1049.52	152
1050.97	150
1052.41	152
1053.86	160
1055.3	152
1056.75	148
1058.19	162
1059.64	162
1061.08	166
1062.52	160
1063.96	160
1065.41	178
1066.85	172
1068.29	176
1069.73	178
1071.17	172
1072.61	180
1074.05	182
1075.49	176
1076.93	180
1078.37	178
1079.81	170
1081.25	168
1082.68	162
1084.12	154
1085.56	170
1087	172
1088.43	158
1089.87	156
1091.3	164
1092.74	168
1094.17	168
1095.61	164
1097.04	166
1098.48	170
1099.91	162
1101.34	168
1102.78	158
1104.21	164
1105.64	150
1107.07	148
1108.5	138
1109.93	132
1111.36	130
1112.8	120
1114.22	134
1115.65	124
1117.08	118
1118.51	118
1119.94	116
1121.37	112
1122.8	108
1124.22	110
1125.65	106
1127.08	110
1128.5	104
1129.93	116
1131.35	104
1132.78	106
1134.2	104
1135.63	114
1137.05	126
1138.48	118
1139.9	122
1141.32	126
1142.75	128
1144.17	152
1145.59	162
1147.01	164
1148.43	188
1149.85	218
1151.27	288
1152.69	362
1154.11	412
1155.53	436
1156.95	396
1158.37	330
1159.79	292
1161.21	268
1162.62	238
1164.04	206
1165.46	216
1166.87	184
1168.29	214
1169.71	208
1171.12	226
1172.54	230
1173.95	270
1175.37	312
1176.78	364
1178.19	392
1179.61	480
1181.02	530
1182.43	534
1183.84	502
1185.26	470
1186.67	424
1188.08	436
1189.49	450
1190.9	462
1192.31	476
1193.72	502
1195.13	500
1196.54	528
1197.95	512
1199.36	496
1200.76	476
1202.17	466
1203.58	466
1204.99	414
1206.39	376
1207.8	346
1209.2	334
1210.61	292
1212.01	260
1213.42	254
1214.82	234
1216.23	232
1217.63	222
1219.03	216
1220.44	210
1221.84	202
1223.24	192
1224.64	194
1226.05	202
1227.45	202
1228.85	198
1230.25	190
1231.65	182
1233.05	176
1234.45	186
1235.85	176
1237.25	172
1238.64	188
1240.04	168
1241.44	160
1242.84	170
1244.23	174
1245.63	176
1247.03	170
1248.42	164
1249.82	158
1251.21	152
1252.61	172
1254	174
1255.4	176
1256.79	144
1258.19	166
1259.58	162
1260.97	154
1262.36	176
1263.76	176
1265.15	172
1266.54	164
1267.93	170
1269.32	180
1270.71	162
1272.1	176
1273.49	170
1274.88	164
1276.27	164
1277.66	168
1279.05	166
1280.43	188
1281.82	182
1283.21	184
1284.6	174
1285.98	176
1287.37	184
1288.75	182
1290.14	182
1291.53	186
1292.91	198
1294.29	196
1295.68	196
1297.06	214
1298.45	216
1299.83	222
1301.21	212
1302.59	220
1303.98	230
1305.36	228
1306.74	232
1308.12	220
1309.5	220
1310.88	230
1312.26	248
1313.64	240
1315.02	234
1316.4	246
1317.78	260
1319.16	266
1320.53	292
1321.91	282
1323.29	290
1324.67	312
1326.04	312
1327.42	298
1328.79	288
1330.17	312
1331.54	306
1332.92	288
1334.29	318
1335.67	286
1337.04	292
1338.42	290
1339.79	274
1341.16	262
1342.53	268
1343.91	282
1345.28	280
1346.65	272
1348.02	258
1349.39	264
1350.76	274
1352.13	260
1353.5	262
1354.87	254
1356.24	274
1357.61	268
1358.98	270
1360.34	282
1361.71	286
1363.08	276
1364.45	274
1365.81	278
1367.18	282
1368.54	270
1369.91	284
1371.28	296
1372.64	308
1374.01	282
1375.37	280
1376.73	288
1378.1	262
1379.46	268
1380.82	282
1382.19	260
1383.55	248
1384.91	254
1386.27	250
1387.63	240
1388.99	240
1390.35	260
1391.71	242
1393.07	240
1394.43	238
1395.79	252
1397.15	246
1398.51	236
1399.87	240
1401.23	242
1402.58	240
1403.94	244
1405.3	232
1406.65	238
1408.01	234
1409.37	246
1410.72	232
1412.08	226
1413.43	230
1414.79	226
1416.14	228
1417.49	220
1418.85	232
1420.2	222
1421.55	236
1422.91	228
1424.26	230
1425.61	208
1426.96	234
1428.31	220
1429.66	224
1431.01	232
1432.36	238
1433.71	228
1435.06	246
1436.41	252
1437.76	268
1439.11	282
1440.46	290
1441.81	318
1443.15	294
1444.5	320
1445.85	318
1447.19	334
1448.54	346
1449.89	338
1451.23	336
1452.58	334
1453.92	318
1455.27	310
1456.61	262
1457.95	252
1459.3	230
1460.64	228
1461.98	212
1463.33	204
1464.67	214
1466.01	196
1467.35	190
1468.69	178
1470.03	186
1471.37	184
1472.71	186
1474.05	192
1475.39	190
1476.73	188
1478.07	186
1479.41	176
1480.75	194
1482.09	186
1483.42	168
1484.76	186
1486.1	186
1487.43	172
1488.77	194
1490.11	180
1491.44	184
1492.78	196
1494.11	182
1495.45	188
1496.78	182
1498.12	182
1499.45	178
1500.78	174
1502.11	178
1503.45	186
1504.78	180
1506.11	182
1507.44	162
1508.77	166
1510.11	180
1511.44	170
1512.77	180
1514.1	176
1515.43	172
1516.76	174
1518.08	168
1519.41	164
1520.74	176
1522.07	172
1523.4	174
1524.72	172
1526.05	166
1527.38	168
1528.7	166
1530.03	166
1531.36	170
1532.68	172
1534.01	154
1535.33	164
1536.66	176
1537.98	158
1539.3	154
1540.63	168
1541.95	166
1543.27	178
1544.6	176
1545.92	166
1547.24	158
1548.56	166
1549.88	164
1551.2	160
1552.52	174
1553.84	162
1555.17	176
1556.48	176
1557.8	172
1559.12	160
1560.44	174
1561.76	168
1563.08	168
1564.4	166
1565.71	176
1567.03	174
1568.35	192
1569.66	182
1570.98	190
1572.29	190
1573.61	198
1574.93	202
1576.24	222
1577.55	246
1578.87	278
1580.18	328
1581.5	384
1582.81	428
1584.12	400
1585.43	350
1586.75	306
1588.06	280
1589.37	276
1590.68	248
1591.99	260
1593.3	294
1594.61	316
1595.92	376
1597.23	458
1598.54	520
1599.85	636
1601.16	682
1602.47	704
1603.78	642
1605.08	568
1606.39	478
1607.7	386
1609	330
1610.31	284
1611.62	252
1612.92	226
1614.23	214
1615.53	202
1616.84	188
1618.14	192
1619.45	188
1620.75	192
1622.06	172
1623.36	166
1624.66	168
1625.96	168
1627.27	156
1628.57	154
1629.87	166
1631.17	156
1632.47	150
1633.77	150
1635.07	154
1636.37	158
1637.67	146
1638.97	160
1640.27	170
1641.57	162
1642.87	156
1644.17	154
1645.47	148
1646.76	142
1648.06	170
1649.36	152
1650.66	156
1651.95	158
1653.25	142
1654.54	148
1655.84	130
1657.13	142
1658.43	134
1659.72	138
1661.02	138
1662.31	136
1663.6	122
1664.9	134
1666.19	138
1667.48	136
1668.78	138
1670.07	132
1671.36	144
1672.65	146
1673.94	136
1675.23	134
1676.52	142
1677.81	138
1679.1	126
1680.39	140
1681.68	136
1682.97	130
1684.26	136
1685.55	126
1686.83	138
1688.12	136
1689.41	138
1690.7	130
1691.98	122
1693.27	128
1694.55	122
1695.84	122
1697.13	120
1698.41	116
1699.69	120
1700.98	122
1702.26	116