File: Mixture_Classification/Jesse_Dataset_v2/Pure Raman/Polystyrene/785nm/ps-ppo-6jan25-1,0000-map3_Y07_X01.txt
204.377	842
206.045	854
207.713	874
209.38	866
211.048	908
212.715	912
214.381	906
216.047	908
217.712	912
219.377	900
221.042	906
222.706	862
224.369	858
226.032	870
227.695	814
229.357	770
231.019	712
232.68	704
234.341	636
236.001	580
237.661	548
239.321	498
240.98	454
242.639	410
244.297	392
245.955	342
247.612	336
249.268	330
250.924	304
252.58	322
254.236	304
255.891	286
257.546	290
259.2	268
260.854	290
262.507	274
264.16	256
265.812	246
267.463	260
269.115	254
270.766	254
272.417	240
274.067	236
275.717	234
277.365	234
279.014	230
280.663	236
282.311	220
283.958	216
285.605	206
287.252	208
288.898	184
290.543	198
292.188	192
293.833	182
295.477	172
297.121	172
298.765	178
300.407	174
302.05	166
303.693	170
305.334	168
306.975	170
308.615	168
310.256	168
311.896	162
313.535	160
315.175	168
316.813	188
318.451	174
320.089	162
321.726	170
323.362	174
324.999	172
326.635	170
328.271	166
329.905	186
331.54	186
333.174	172
334.807	170
336.441	166
338.074	176
339.707	176
341.338	168
342.969	156
344.601	176
346.231	166
347.861	160
349.491	150
351.12	154
352.749	154
354.378	148
356.006	158
357.633	158
359.261	162
360.887	162
362.513	150
364.139	142
365.764	146
367.39	162
369.014	160
370.638	162
372.261	162
373.884	168
375.508	134
377.13	160
378.752	178
380.373	164
381.994	178
383.615	190
385.235	180
386.854	188
388.473	194
390.092	206
391.711	190
393.328	188
394.947	202
396.564	200
398.181	218
399.797	212
401.412	210
403.027	224
404.642	240
406.257	260
407.871	236
409.484	232
411.098	224
412.711	222
414.323	206
415.935	184
417.547	174
419.158	198
420.768	176
422.378	176
423.988	176
425.597	162
427.206	152
428.814	156
430.422	150
432.03	146
433.637	156
435.243	146
436.85	138
438.456	142
440.062	146
441.666	140
443.271	144
444.876	138
446.479	136
448.082	122
449.685	136
451.287	124
452.89	112
454.492	110
456.092	118
457.693	126
459.293	122
460.893	124
462.492	126
464.092	106
465.691	122
467.288	114
468.887	114
470.483	112
472.081	106
473.677	124
475.273	114
476.869	100
478.463	102
480.059	112
481.653	108
483.247	104
484.84	106
486.433	112
488.026	96
489.618	104
491.21	110
492.801	104
494.392	106
495.983	96
497.573	104
499.162	116
500.752	120
502.341	112
503.929	110
505.517	112
507.105	120
508.692	112
510.279	118
511.865	118
513.45	116
515.037	124
516.621	126
518.206	114
519.79	112
521.374	120
522.957	124
524.54	116
526.123	120
527.705	132
529.287	132
530.868	138
532.448	144
534.029	156
535.609	142
537.188	142
538.768	162
540.346	144
541.925	144
543.502	160
545.08	148
546.657	148
548.234	156
549.81	154
551.386	150
552.961	148
554.536	148
556.11	150
557.684	146
559.258	142
560.832	142
562.405	150
563.977	140
565.55	142
567.12	138
568.692	146
570.263	140
571.833	144
573.403	154
574.973	150
576.542	152
578.111	122
579.679	132
581.247	120
582.815	126
584.382	118
585.948	124
587.514	118
589.081	106
590.645	118
592.211	110
593.775	122
595.339	118
596.904	118
598.466	120
600.03	122
601.592	112
603.154	120
604.715	134
606.277	150
607.838	162
609.398	146
610.958	156
612.518	168
614.077	172
615.636	238
617.194	342
618.753	518
620.31	712
621.867	688
623.424	468
624.98	292
626.537	218
628.092	178
629.647	144
631.202	138
632.756	128
634.31	122
635.864	118
637.417	110
638.969	100
640.521	96
642.074	90
643.625	96
645.176	94
646.726	92
648.276	92
649.827	88
651.376	88
652.925	78
654.473	86
656.021	90
657.569	86
659.117	82
660.664	90
662.21	76
663.757	80
665.302	84
666.847	90
668.392	88
669.937	90
671.481	80
673.025	82
674.568	82
676.111	94
677.653	78
679.195	66
680.737	90
682.279	86
683.82	80
685.36	90
686.9	82
688.44	82
689.979	74
691.517	84
693.056	90
694.594	82
696.132	88
697.669	88
699.206	106
700.742	102
702.278	104
703.814	110
705.35	106
706.884	98
708.419	102
709.953	108
711.487	104
713.019	92
714.552	100
716.085	102
717.617	114
719.148	112
720.68	126
722.21	134
723.741	150
725.271	138
726.8	154
728.33	122
729.858	124
731.387	116
732.915	134
734.443	134
735.97	164
737.497	170
739.023	170
740.549	180
742.075	178
743.6	194
745.125	198
746.65	198
748.173	196
749.697	198
751.22	198
752.743	224
754.266	220
755.788	242
757.309	246
758.831	228
760.351	242
761.871	242
763.392	246
764.912	222
766.431	218
767.95	214
769.468	212
770.986	200
772.504	212
774.022	202
775.538	210
777.055	210
778.571	206
780.086	228
781.602	234
783.117	246
784.632	268
786.146	280
787.659	300
789.173	316
790.685	320
792.198	326
793.71	360
795.222	362
796.733	352
798.244	336
799.755	304
801.265	294
802.775	270
804.284	238
805.793	222
807.302	198
808.81	194
810.318	182
811.826	180
813.333	174
814.84	162
816.346	148
817.851	134
819.357	136
820.862	128
822.367	126
823.871	124
825.376	122
826.878	124
828.382	124
829.885	118
831.387	124
832.889	128
834.391	138
835.892	138
837.392	152
838.893	172
840.393	150
841.893	164
843.392	162
844.891	154
846.389	154
847.888	144
849.386	144
850.882	134
852.38	132
853.876	126
855.372	130
856.868	130
858.363	128
859.858	132
861.353	136
862.847	128
864.341	132
865.834	126
867.328	136
868.82	136
870.313	130
871.805	128
873.296	132
874.787	138
876.278	124
877.769	124
879.258	116
880.748	110
882.237	134
883.726	122
885.214	122
886.702	124
888.19	120
889.677	108
891.164	116
892.651	122
894.137	122
895.623	124
897.108	124
898.593	128
900.077	128
901.562	142
903.046	146
904.529	148
906.012	148
907.495	150
908.977	156
910.459	152
911.941	128
913.422	132
914.903	128
916.383	112
917.863	108
919.343	114
920.822	112
922.301	100
923.779	104
925.257	100
926.735	100
928.213	98
929.69	98
931.166	106
932.643	108
934.119	102
935.594	108
937.069	94
938.543	106
940.018	98
941.492	102
942.966	104
944.439	104
945.911	100
947.384	106
948.856	104
950.328	106
951.799	102
953.27	110
954.741	102
956.21	110
957.68	110
959.15	124
960.619	118
962.088	124
963.556	128
965.023	128
966.491	144
967.958	128
969.425	134
970.891	126
972.357	124
973.824	124
975.288	146
976.754	164
978.218	180
979.682	180
981.146	194
982.609	234
984.072	260
985.534	268
986.997	324
988.459	416
989.92	562
991.382	762
992.842	834
994.302	792
995.763	852
997.222	1218
998.681	1984
1000.14	2962
1001.6	3324
1003.06	2882
1004.52	1910
1005.97	1174
1007.43	698
1008.89	436
1010.34	320
1011.8	242
1013.25	214
1014.71	194
1016.16	180
1017.62	182
1019.07	200
1020.53	204
1021.98	260
1023.43	302
1024.89	384
1026.34	496
1027.79	638
1029.24	780
1030.69	826
1032.14	866
1033.59	830
1035.04	666
1036.49	528
1037.94	398
1039.39	324
1040.84	270
1042.29	224
1043.73	202
1045.18	196
1046.63	190
1048.08	168
1049.52	178
1050.97	162
1052.41	164
1053.86	164
1055.3	150
1056.75	158
1058.19	154
1059.64	148
1061.08	162
1062.52	168
1063.96	166
1065.41	166
1066.85	184
1068.29	178
1069.73	156
1071.17	186
1072.61	178
1074.05	178
1075.49	172
1076.93	178
1078.37	174
1079.81	166
1081.25	166
1082.68	170
1084.12	162
1085.56	168
1087	162
1088.43	162
1089.87	174
1091.3	164
1092.74	180
1094.17	170
1095.61	172
1097.04	176
1098.48	172
1099.91	166
1101.34	168
1102.78	156
1104.21	156
1105.64	146
1107.07	152
1108.5	136
1109.93	136
1111.36	130
1112.8	134
1114.22	136
1115.65	132
1117.08	118
1118.51	126
1119.94	112
1121.37	114
1122.8	108
1124.22	106
1125.65	98
1127.08	110
1128.5	110
1129.93	100
1131.35	112
1132.78	118
1134.2	112
1135.63	112
1137.05	114
1138.48	128
1139.9	128
1141.32	134
1142.75	140
1144.17	144
1145.59	158
1147.01	180
1148.43	202
1149.85	234
1151.27	272
1152.69	360
1154.11	410
1155.53	418
1156.95	390
1158.37	354
1159.79	298
1161.21	254
1162.62	242
1164.04	216
1165.46	210
1166.87	198
1168.29	216
1169.71	216
1171.12	230
1172.54	246
1173.95	270
1175.37	300
1176.78	354
1178.19	414
1179.61	458
1181.02	518
1182.43	530
1183.84	492
1185.26	474
1186.67	432
1188.08	434
1189.49	458
1190.9	434
1192.31	488
1193.72	492
1195.13	516
1196.54	520
1197.95	488
1199.36	494
1200.76	486
1202.17	460
1203.58	416
1204.99	420
1206.39	376
1207.8	354
1209.2	322
1210.61	276
1212.01	266
1213.42	250
1214.82	242
1216.23	228
1217.63	224
1219.03	206
1220.44	210
1221.84	202
1223.24	198
1224.64	202
1226.05	190
1227.45	202
1228.85	178
1230.25	188
1231.65	198
1233.05	170
1234.45	170
1235.85	180
1237.25	176
1238.64	172
1240.04	166
1241.44	166
1242.84	174
1244.23	182
1245.63	176
1247.03	156
1248.42	182
1249.82	152
1251.21	174
1252.61	154
1254	158
1255.4	170
1256.79	178
1258.19	156
1259.58	168
1260.97	164
1262.36	156
1263.76	170
1265.15	164
1266.54	180
1267.93	162
1269.32	164
1270.71	178
1272.1	160
1273.49	170
1274.88	166
1276.27	158
1277.66	156
1279.05	170
1280.43	176
1281.82	182
1283.21	170
1284.6	184
1285.98	192
1287.37	186
1288.75	168
1290.14	194
1291.53	182
1292.91	214
1294.29	202
1295.68	210
1297.06	204
1298.45	198
1299.83	208
1301.21	206
1302.59	198
1303.98	216
1305.36	222
1306.74	216
1308.12	220
1309.5	226
1310.88	236
1312.26	212
1313.64	226
1315.02	252
1316.4	252
1317.78	248
1319.16	264
1320.53	252
1321.91	280
1323.29	268
1324.67	296
1326.04	296
1327.42	288
1328.79	300
1330.17	302
1331.54	294
1332.92	290
1334.29	284
1335.67	306
1337.04	280
1338.42	268
1339.79	262
1341.16	276
1342.53	252
1343.91	268
1345.28	242
1346.65	264
1348.02	268
1349.39	252
1350.76	260
1352.13	256
1353.5	264
1354.87	264
1356.24	278
1357.61	262
1358.98	274
1360.34	248
1361.71	276
1363.08	278
1364.45	246
1365.81	270
1367.18	268
1368.54	268
1369.91	290
1371.28	272
1372.64	268
1374.01	252
1375.37	256
1376.73	250
1378.1	260
1379.46	274
1380.82	246
1382.19	256
1383.55	258
1384.91	260
1386.27	244
1387.63	242
1388.99	234
1390.35	238
1391.71	224
1393.07	226
1394.43	240
1395.79	232
1397.15	218
1398.51	228
1399.87	238
1401.23	230
1402.58	242
1403.94	236
1405.3	226
1406.65	224
1408.01	222
1409.37	236
1410.72	234
1412.08	226
1413.43	230
1414.79	222
1416.14	214
1417.49	212
1418.85	218
1420.2	206
1421.55	214
1422.91	216
1424.26	210
1425.61	198
1426.96	220
1428.31	222
1429.66	222
1431.01	230
1432.36	226
1433.71	234
1435.06	250
1436.41	244
1437.76	254
1439.11	280
1440.46	288
1441.81	294
1443.15	296
1444.5	322
1445.85	328
1447.19	348
1448.54	326
1449.89	330
1451.23	314
1452.58	302
1453.92	288
1455.27	290
1456.61	268
1457.95	248
1459.3	226
1460.64	218
1461.98	206
1463.33	200
1464.67	192
1466.01	192
1467.35	190
1468.69	196
1470.03	180
1471.37	174
1472.71	196
1474.05	182
1475.39	190
1476.73	172
1478.07	182
1479.41	178
1480.75	180
1482.09	190
1483.42	186
1484.76	170
1486.1	178
1487.43	186
1488.77	174
1490.11	182
1491.44	182
1492.78	192
1494.11	166
1495.45	176
1496.78	176
1498.12	172
1499.45	184
1500.78	164
1502.11	172
1503.45	162
1504.78	176
1506.11	164
1507.44	160
1508.77	160
1510.11	160
1511.44	156
1512.77	162
1514.1	168
1515.43	168
1516.76	158
1518.08	164
1519.41	154
1520.74	172
1522.07	162
1523.4	164
1524.72	168
1526.05	156
1527.38	156
1528.7	162
1530.03	170
1531.36	144
1532.68	160
1534.01	154
1535.33	164
1536.66	164
1537.98	156
1539.3	156
1540.63	156
1541.95	142
1543.27	158
1544.6	164
1545.92	166
1547.24	156
1548.56	146
1549.88	158
1551.2	164
1552.52	158
1553.84	158
1555.17	162
1556.48	156
1557.8	154
1559.12	160
1560.44	164
1561.76	164
1563.08	166
1564.4	166
1565.71	160
1567.03	166
1568.35	168
1569.66	170
1570.98	186
1572.29	182
1573.61	194
1574.93	206
1576.24	204
1577.55	238
1578.87	268
1580.18	322
1581.5	384
1582.81	428
1584.12	384
1585.43	366
1586.75	294
1588.06	286
1589.37	236
1590.68	238
1591.99	254
1593.3	272
1594.61	330
1595.92	352
1597.23	442
1598.54	508
1599.85	596
1601.16	692
1602.47	682
1603.78	630
1605.08	554
1606.39	464
1607.7	372
1609	324
1610.31	272
1611.62	236
1612.92	222
1614.23	214
1615.53	206
1616.84	188
1618.14	178
1619.45	186
1620.75	166
1622.06	180
1623.36	162
1624.66	168
1625.96	162
1627.27	160
1628.57	158
1629.87	156
1631.17	152
1632.47	144
1633.77	146
1635.07	132
1636.37	144
1637.67	146
1638.97	154
1640.27	144
1641.57	162
1642.87	160
1644.17	152
1645.47	142
1646.76	148
1648.06	156
1649.36	152
1650.66	144
1651.95	140
1653.25	148
1654.54	148
1655.84	134
1657.13	128
1658.43	136
1659.72	148
1661.02	126
1662.31	132
1663.6	132
1664.9	136
1666.19	138
1667.48	142
1668.78	126
1670.07	136
1671.36	128
1672.65	138
1673.94	128
1675.23	132
1676.52	136
1677.81	126
1679.1	128
1680.39	122
1681.68	130
1682.97	114
1684.26	118
1685.55	128
1686.83	118
1688.12	138
1689.41	136
1690.7	122
1691.98	124
1693.27	118
1694.55	124
1695.84	108
1697.13	132
1698.41	120
1699.69	112
1700.98	122
1702.26	114