File: Mixture_Classification/Jesse_Dataset_v2/Pure Raman/Polystyrene/785nm/ps-ppo-6jan25-1,0000-map3_Y08_X04.txt
204.377	826
206.045	838
207.713	870
209.38	880
211.048	900
212.715	880
214.381	932
216.047	954
217.712	906
219.377	944
221.042	886
222.706	898
224.369	896
226.032	864
227.695	812
229.357	776
231.019	710
232.68	700
234.341	630
236.001	580
237.661	538
239.321	498
240.98	452
242.639	414
244.297	392
245.955	358
247.612	338
249.268	328
250.924	314
252.58	308
254.236	282
255.891	280
257.546	276
259.2	256
260.854	272
262.507	274
264.16	264
265.812	264
267.463	246
269.115	252
270.766	244
272.417	240
274.067	236
275.717	234
277.365	218
279.014	222
280.663	226
282.311	208
283.958	224
285.605	208
287.252	196
288.898	200
290.543	192
292.188	186
293.833	196
295.477	184
297.121	168
298.765	162
300.407	172
302.05	170
303.693	164
305.334	184
306.975	172
308.615	158
310.256	170
311.896	168
313.535	166
315.175	156
316.813	186
318.451	174
320.089	164
321.726	166
323.362	178
324.999	174
326.635	176
328.271	158
329.905	162
331.54	166
333.174	166
334.807	172
336.441	174
338.074	176
339.707	168
341.338	164
342.969	164
344.601	168
346.231	156
347.861	166
349.491	156
351.12	158
352.749	160
354.378	148
356.006	144
357.633	158
359.261	156
360.887	152
362.513	150
364.139	146
365.764	156
367.39	150
369.014	154
370.638	160
372.261	156
373.884	164
375.508	170
377.13	166
378.752	162
380.373	168
381.994	174
383.615	184
385.235	182
386.854	180
388.473	190
390.092	192
391.711	180
393.328	188
394.947	194
396.564	196
398.181	208
399.797	206
401.412	214
403.027	218
404.642	232
406.257	234
407.871	232
409.484	228
411.098	204
412.711	202
414.323	204
415.935	188
417.547	184
419.158	180
420.768	164
422.378	164
423.988	166
425.597	166
427.206	156
428.814	158
430.422	134
432.03	150
433.637	148
435.243	154
436.85	140
438.456	138
440.062	142
441.666	136
443.271	140
444.876	138
446.479	128
448.082	140
449.685	128
451.287	120
452.89	118
454.492	106
456.092	116
457.693	98
459.293	106
460.893	108
462.492	104
464.092	104
465.691	106
467.288	112
468.887	110
470.483	108
472.081	106
473.677	104
475.273	108
476.869	104
478.463	100
480.059	100
481.653	104
483.247	100
484.84	98
486.433	98
488.026	100
489.618	106
491.21	100
492.801	98
494.392	102
495.983	92
497.573	100
499.162	114
500.752	108
502.341	114
503.929	114
505.517	114
507.105	104
508.692	104
510.279	112
511.865	110
513.45	108
515.037	108
516.621	112
518.206	112
519.79	114
521.374	112
522.957	104
524.54	104
526.123	118
527.705	116
529.287	130
530.868	120
532.448	124
534.029	148
535.609	136
537.188	140
538.768	152
540.346	148
541.925	144
543.502	160
545.08	152
546.657	144
548.234	140
549.81	136
551.386	136
552.961	134
554.536	148
556.11	138
557.684	132
559.258	144
560.832	142
562.405	136
563.977	142
565.55	120
567.12	132
568.692	146
570.263	138
571.833	144
573.403	142
574.973	138
576.542	126
578.111	126
579.679	112
581.247	112
582.815	116
584.382	108
585.948	116
587.514	116
589.081	106
590.645	110
592.211	110
593.775	118
595.339	108
596.904	110
598.466	118
600.03	124
601.592	118
603.154	122
604.715	138
606.277	140
607.838	154
609.398	146
610.958	156
612.518	152
614.077	182
615.636	216
617.194	324
618.753	544
620.31	718
621.867	700
623.424	456
624.98	280
626.537	200
628.092	154
629.647	154
631.202	124
632.756	122
634.31	112
635.864	104
637.417	110
638.969	90
640.521	100
642.074	80
643.625	80
645.176	92
646.726	78
648.276	80
649.827	76
651.376	78
652.925	78
654.473	80
656.021	78
657.569	82
659.117	90
660.664	84
662.21	68
663.757	76
665.302	78
666.847	70
668.392	74
669.937	80
671.481	78
673.025	68
674.568	80
676.111	74
677.653	74
679.195	72
680.737	78
682.279	68
683.82	70
685.36	72
686.9	76
688.44	76
689.979	78
691.517	78
693.056	76
694.594	70
696.132	78
697.669	86
699.206	92
700.742	88
702.278	106
703.814	98
705.35	94
706.884	106
708.419	98
709.953	96
711.487	98
713.019	98
714.552	92
716.085	96
717.617	92
719.148	108
720.68	106
722.21	130
723.741	152
725.271	152
726.8	134
728.33	124
729.858	116
731.387	120
732.915	120
734.443	134
735.97	148
737.497	164
739.023	174
740.549	172
742.075	186
743.6	184
745.125	172
746.65	174
748.173	196
749.697	194
751.22	196
752.743	198
754.266	222
755.788	224
757.309	222
758.831	234
760.351	238
761.871	242
763.392	214
764.912	230
766.431	228
767.95	202
769.468	202
770.986	194
772.504	192
774.022	194
775.538	206
777.055	212
778.571	210
780.086	214
781.602	222
783.117	250
784.632	250
786.146	288
787.659	292
789.173	306
790.685	312
792.198	332
793.71	340
795.222	350
796.733	346
798.244	332
799.755	310
801.265	288
802.775	234
804.284	216
805.793	214
807.302	198
808.81	188
810.318	182
811.826	162
813.333	158
814.84	144
816.346	142
817.851	138
819.357	124
820.862	122
822.367	114
823.871	114
825.376	114
826.878	108
828.382	122
829.885	114
831.387	106
832.889	120
834.391	126
835.892	140
837.392	148
838.893	146
840.393	156
841.893	162
843.392	168
844.891	146
846.389	156
847.888	136
849.386	136
850.882	128
852.38	120
853.876	106
855.372	126
856.868	116
858.363	116
859.858	124
861.353	112
862.847	128
864.341	110
865.834	128
867.328	120
868.82	128
870.313	128
871.805	116
873.296	122
874.787	126
876.278	120
877.769	114
879.258	108
880.748	116
882.237	116
883.726	116
885.214	110
886.702	110
888.19	116
889.677	114
891.164	108
892.651	114
894.137	104
895.623	110
897.108	124
898.593	128
900.077	130
901.562	130
903.046	148
904.529	144
906.012	130
907.495	152
908.977	142
910.459	140
911.941	122
913.422	120
914.903	116
916.383	110
917.863	110
919.343	112
920.822	98
922.301	94
923.779	98
925.257	98
926.735	104
928.213	92
929.69	94
931.166	98
932.643	88
934.119	94
935.594	96
937.069	92
938.543	100
940.018	88
941.492	98
942.966	108
944.439	102
945.911	100
947.384	102
948.856	110
950.328	106
951.799	106
953.27	94
954.741	100
956.21	102
957.68	110
959.15	122
960.619	120
962.088	116
963.556	126
965.023	134
966.491	126
967.958	122
969.425	118
970.891	128
972.357	130
973.824	136
975.288	136
976.754	152
978.218	166
979.682	178
981.146	192
982.609	230
984.072	250
985.534	292
986.997	316
988.459	418
989.92	600
991.382	772
992.842	806
994.302	760
995.763	832
997.222	1222
998.681	2040
1000.14	2892
1001.6	3362
1003.06	2864
1004.52	1970
1005.97	1170
1007.43	696
1008.89	438
1010.34	322
1011.8	236
1013.25	202
1014.71	184
1016.16	184
1017.62	180
1019.07	202
1020.53	224
1021.98	256
1023.43	300
1024.89	396
1026.34	500
1027.79	612
1029.24	764
1030.69	874
1032.14	876
1033.59	810
1035.04	660
1036.49	528
1037.94	410
1039.39	322
1040.84	270
1042.29	226
1043.73	208
1045.18	180
1046.63	198
1048.08	174
1049.52	156
1050.97	156
1052.41	144
1053.86	156
1055.3	152
1056.75	152
1058.19	160
1059.64	152
1061.08	160
1062.52	166
1063.96	162
1065.41	158
1066.85	172
1068.29	168
1069.73	168
1071.17	172
1072.61	180
1074.05	174
1075.49	174
1076.93	158
1078.37	166
1079.81	180
1081.25	158
1082.68	154
1084.12	154
1085.56	168
1087	174
1088.43	178
1089.87	168
1091.3	170
1092.74	174
1094.17	160
1095.61	174
1097.04	164
1098.48	178
1099.91	170
1101.34	162
1102.78	150
1104.21	152
1105.64	146
1107.07	146
1108.5	136
1109.93	128
1111.36	124
1112.8	134
1114.22	124
1115.65	126
1117.08	124
1118.51	108
1119.94	114
1121.37	106
1122.8	114
1124.22	102
1125.65	104
1127.08	104
1128.5	108
1129.93	96
1131.35	110
1132.78	116
1134.2	112
1135.63	116
1137.05	120
1138.48	118
1139.9	124
1141.32	134
1142.75	140
1144.17	152
1145.59	148
1147.01	166
1148.43	198
1149.85	220
1151.27	292
1152.69	346
1154.11	414
1155.53	404
1156.95	396
1158.37	348
1159.79	298
1161.21	268
1162.62	222
1164.04	208
1165.46	196
1166.87	202
1168.29	210
1169.71	212
1171.12	224
1172.54	222
1173.95	264
1175.37	292
1176.78	352
1178.19	438
1179.61	488
1181.02	532
1182.43	530
1183.84	512
1185.26	468
1186.67	432
1188.08	420
1189.49	416
1190.9	460
1192.31	460
1193.72	510
1195.13	476
1196.54	510
1197.95	484
1199.36	496
1200.76	482
1202.17	474
1203.58	460
1204.99	420
1206.39	368
1207.8	344
1209.2	312
1210.61	308
1212.01	268
1213.42	248
1214.82	230
1216.23	230
1217.63	216
1219.03	210
1220.44	200
1221.84	216
1223.24	202
1224.64	192
1226.05	200
1227.45	188
1228.85	178
1230.25	176
1231.65	178
1233.05	176
1234.45	172
1235.85	172
1237.25	170
1238.64	182
1240.04	168
1241.44	158
1242.84	178
1244.23	178
1245.63	162
1247.03	162
1248.42	172
1249.82	166
1251.21	158
1252.61	164
1254	158
1255.4	162
1256.79	162
1258.19	170
1259.58	182
1260.97	178
1262.36	174
1263.76	162
1265.15	170
1266.54	164
1267.93	178
1269.32	176
1270.71	174
1272.1	166
1273.49	170
1274.88	172
1276.27	174
1277.66	180
1279.05	178
1280.43	174
1281.82	174
1283.21	176
1284.6	168
1285.98	194
1287.37	180
1288.75	192
1290.14	178
1291.53	186
1292.91	198
1294.29	188
1295.68	202
1297.06	206
1298.45	202
1299.83	212
1301.21	222
1302.59	232
1303.98	218
1305.36	218
1306.74	214
1308.12	216
1309.5	228
1310.88	218
1312.26	238
1313.64	238
1315.02	252
1316.4	242
1317.78	248
1319.16	272
1320.53	290
1321.91	272
1323.29	286
1324.67	300
1326.04	290
1327.42	296
1328.79	290
1330.17	306
1331.54	296
1332.92	298
1334.29	294
1335.67	292
1337.04	288
1338.42	284
1339.79	266
1341.16	282
1342.53	270
1343.91	270
1345.28	248
1346.65	262
1348.02	244
1349.39	264
1350.76	264
1352.13	274
1353.5	268
1354.87	258
1356.24	270
1357.61	270
1358.98	256
1360.34	282
1361.71	266
1363.08	278
1364.45	290
1365.81	286
1367.18	264
1368.54	280
1369.91	274
1371.28	282
1372.64	266
1374.01	276
1375.37	272
1376.73	272
1378.1	264
1379.46	270
1380.82	252
1382.19	250
1383.55	262
1384.91	238
1386.27	252
1387.63	222
1388.99	242
1390.35	252
1391.71	220
1393.07	242
1394.43	228
1395.79	230
1397.15	232
1398.51	246
1399.87	246
1401.23	238
1402.58	242
1403.94	234
1405.3	240
1406.65	232
1408.01	220
1409.37	230
1410.72	230
1412.08	220
1413.43	230
1414.79	226
1416.14	210
1417.49	234
1418.85	226
1420.2	222
1421.55	216
1422.91	232
1424.26	222
1425.61	224
1426.96	230
1428.31	220
1429.66	208
1431.01	226
1432.36	234
1433.71	246
1435.06	236
1436.41	254
1437.76	264
1439.11	276
1440.46	296
1441.81	280
1443.15	304
1444.5	300
1445.85	316
1447.19	332
1448.54	350
1449.89	346
1451.23	338
1452.58	316
1453.92	300
1455.27	288
1456.61	266
1457.95	258
1459.3	226
1460.64	230
1461.98	214
1463.33	208
1464.67	194
1466.01	194
1467.35	206
1468.69	206
1470.03	190
1471.37	188
1472.71	192
1474.05	190
1475.39	178
1476.73	188
1478.07	172
1479.41	182
1480.75	180
1482.09	180
1483.42	188
1484.76	180
1486.1	178
1487.43	178
1488.77	178
1490.11	166
1491.44	184
1492.78	194
1494.11	186
1495.45	178
1496.78	176
1498.12	182
1499.45	182
1500.78	162
1502.11	170
1503.45	172
1504.78	176
1506.11	164
1507.44	168
1508.77	170
1510.11	164
1511.44	172
1512.77	172
1514.1	178
1515.43	170
1516.76	168
1518.08	168
1519.41	160
1520.74	180
1522.07	176
1523.4	160
1524.72	172
1526.05	168
1527.38	172
1528.7	162
1530.03	162
1531.36	180
1532.68	156
1534.01	154
1535.33	156
1536.66	150
1537.98	162
1539.3	158
1540.63	162
1541.95	174
1543.27	152
1544.6	146
1545.92	162
1547.24	160
1548.56	170
1549.88	158
1551.2	172
1552.52	164
1553.84	168
1555.17	162
1556.48	160
1557.8	166
1559.12	164
1560.44	172
1561.76	172
1563.08	174
1564.4	172
1565.71	174
1567.03	176
1568.35	186
1569.66	180
1570.98	180
1572.29	182
1573.61	192
1574.93	208
1576.24	218
1577.55	240
1578.87	272
1580.18	318
1581.5	386
1582.81	404
1584.12	392
1585.43	328
1586.75	284
1588.06	252
1589.37	240
1590.68	252
1591.99	274
1593.3	274
1594.61	304
1595.92	350
1597.23	416
1598.54	512
1599.85	600
1601.16	684
1602.47	678
1603.78	626
1605.08	532
1606.39	446
1607.7	366
1609	316
1610.31	266
1611.62	256
1612.92	224
1614.23	206
1615.53	194
1616.84	198
1618.14	192
1619.45	178
1620.75	180
1622.06	168
1623.36	160
1624.66	166
1625.96	162
1627.27	146
1628.57	142
1629.87	154
1631.17	142
1632.47	164
1633.77	158
1635.07	148
1636.37	142
1637.67	150
1638.97	154
1640.27	138
1641.57	146
1642.87	154
1644.17	152
1645.47	158
1646.76	150
1648.06	144
1649.36	158
1650.66	146
1651.95	142
1653.25	132
1654.54	144
1655.84	154
1657.13	124
1658.43	130
1659.72	120
1661.02	128
1662.31	126
1663.6	130
1664.9	138
1666.19	136
1667.48	128
1668.78	122
1670.07	128
1671.36	130
1672.65	118
1673.94	134
1675.23	134
1676.52	124
1677.81	128
1679.1	136
1680.39	130
1681.68	128
1682.97	118
1684.26	134
1685.55	128
1686.83	126
1688.12	116
1689.41	126
1690.7	122
1691.98	130
1693.27	122
1694.55	122
1695.84	122
1697.13	122
1698.41	124
1699.69	120
1700.98	126
1702.26	132