File: Mixture_Classification/Jesse_Dataset_v2/Pure Raman/Polystyrene/785nm/ps-ppo-6jan25-1,0000-map3_Y06_X10.txt
204.377	820
206.045	844
207.713	858
209.38	872
211.048	898
212.715	890
214.381	926
216.047	940
217.712	910
219.377	928
221.042	898
222.706	906
224.369	852
226.032	862
227.695	818
229.357	770
231.019	714
232.68	686
234.341	616
236.001	610
237.661	516
239.321	510
240.98	458
242.639	432
244.297	402
245.955	348
247.612	340
249.268	314
250.924	320
252.58	302
254.236	292
255.891	298
257.546	256
259.2	290
260.854	276
262.507	280
264.16	274
265.812	266
267.463	260
269.115	264
270.766	258
272.417	266
274.067	252
275.717	244
277.365	246
279.014	228
280.663	230
282.311	222
283.958	214
285.605	210
287.252	216
288.898	216
290.543	200
292.188	204
293.833	186
295.477	178
297.121	186
298.765	186
300.407	176
302.05	170
303.693	170
305.334	176
306.975	174
308.615	168
310.256	176
311.896	168
313.535	176
315.175	170
316.813	168
318.451	178
320.089	194
321.726	180
323.362	172
324.999	170
326.635	180
328.271	168
329.905	162
331.54	174
333.174	174
334.807	168
336.441	180
338.074	164
339.707	168
341.338	154
342.969	168
344.601	164
346.231	158
347.861	162
349.491	162
351.12	156
352.749	150
354.378	164
356.006	160
357.633	162
359.261	158
360.887	164
362.513	170
364.139	160
365.764	162
367.39	142
369.014	174
370.638	150
372.261	164
373.884	162
375.508	164
377.13	170
378.752	174
380.373	172
381.994	184
383.615	176
385.235	192
386.854	180
388.473	178
390.092	192
391.711	196
393.328	190
394.947	204
396.564	196
398.181	210
399.797	216
401.412	220
403.027	246
404.642	270
406.257	240
407.871	226
409.484	220
411.098	226
412.711	208
414.323	206
415.935	188
417.547	178
419.158	182
420.768	184
422.378	162
423.988	158
425.597	156
427.206	162
428.814	154
430.422	146
432.03	140
433.637	152
435.243	150
436.85	146
438.456	140
440.062	132
441.666	154
443.271	146
444.876	142
446.479	126
448.082	134
449.685	132
451.287	138
452.89	134
454.492	120
456.092	104
457.693	108
459.293	120
460.893	114
462.492	120
464.092	122
465.691	106
467.288	108
468.887	114
470.483	114
472.081	116
473.677	114
475.273	106
476.869	114
478.463	114
480.059	104
481.653	96
483.247	102
484.84	108
486.433	116
488.026	104
489.618	98
491.21	104
492.801	106
494.392	104
495.983	108
497.573	114
499.162	108
500.752	112
502.341	110
503.929	126
505.517	118
507.105	116
508.692	112
510.279	110
511.865	106
513.45	114
515.037	112
516.621	108
518.206	106
519.79	122
521.374	108
522.957	116
524.54	130
526.123	120
527.705	126
529.287	118
530.868	128
532.448	132
534.029	144
535.609	150
537.188	154
538.768	158
540.346	174
541.925	150
543.502	142
545.08	152
546.657	154
548.234	152
549.81	134
551.386	154
552.961	134
554.536	138
556.11	138
557.684	140
559.258	136
560.832	134
562.405	146
563.977	140
565.55	134
567.12	136
568.692	140
570.263	138
571.833	146
573.403	136
574.973	142
576.542	134
578.111	128
579.679	120
581.247	116
582.815	126
584.382	118
585.948	108
587.514	120
589.081	110
590.645	118
592.211	118
593.775	122
595.339	112
596.904	108
598.466	116
600.03	122
601.592	122
603.154	128
604.715	134
606.277	142
607.838	152
609.398	166
610.958	144
612.518	168
614.077	190
615.636	234
617.194	342
618.753	532
620.31	738
621.867	682
623.424	484
624.98	296
626.537	204
628.092	174
629.647	142
631.202	132
632.756	132
634.31	124
635.864	108
637.417	104
638.969	94
640.521	94
642.074	100
643.625	90
645.176	84
646.726	88
648.276	82
649.827	82
651.376	74
652.925	84
654.473	84
656.021	88
657.569	78
659.117	76
660.664	78
662.21	78
663.757	74
665.302	74
666.847	82
668.392	82
669.937	76
671.481	84
673.025	82
674.568	82
676.111	76
677.653	82
679.195	78
680.737	84
682.279	80
683.82	76
685.36	74
686.9	80
688.44	86
689.979	80
691.517	80
693.056	84
694.594	86
696.132	88
697.669	96
699.206	94
700.742	106
702.278	108
703.814	106
705.35	106
706.884	102
708.419	94
709.953	96
711.487	100
713.019	96
714.552	86
716.085	96
717.617	98
719.148	108
720.68	122
722.21	142
723.741	150
725.271	150
726.8	148
728.33	140
729.858	122
731.387	124
732.915	132
734.443	136
735.97	150
737.497	176
739.023	176
740.549	176
742.075	206
743.6	180
745.125	196
746.65	190
748.173	188
749.697	202
751.22	210
752.743	218
754.266	220
755.788	216
757.309	234
758.831	240
760.351	252
761.871	244
763.392	218
764.912	226
766.431	214
767.95	212
769.468	206
770.986	204
772.504	196
774.022	204
775.538	196
777.055	212
778.571	210
780.086	224
781.602	226
783.117	240
784.632	262
786.146	278
787.659	294
789.173	314
790.685	328
792.198	332
793.71	354
795.222	350
796.733	356
798.244	330
799.755	310
801.265	278
802.775	270
804.284	230
805.793	206
807.302	192
808.81	186
810.318	194
811.826	168
813.333	164
814.84	152
816.346	148
817.851	130
819.357	134
820.862	114
822.367	116
823.871	114
825.376	112
826.878	104
828.382	114
829.885	120
831.387	124
832.889	126
834.391	138
835.892	130
837.392	140
838.893	156
840.393	158
841.893	158
843.392	162
844.891	162
846.389	162
847.888	140
849.386	136
850.882	132
852.38	132
853.876	134
855.372	124
856.868	126
858.363	134
859.858	124
861.353	120
862.847	128
864.341	136
865.834	130
867.328	122
868.82	126
870.313	124
871.805	124
873.296	126
874.787	132
876.278	114
877.769	118
879.258	120
880.748	114
882.237	122
883.726	112
885.214	112
886.702	114
888.19	114
889.677	118
891.164	112
892.651	126
894.137	114
895.623	122
897.108	124
898.593	128
900.077	138
901.562	144
903.046	148
904.529	160
906.012	150
907.495	152
908.977	146
910.459	140
911.941	128
913.422	130
914.903	116
916.383	114
917.863	116
919.343	114
920.822	100
922.301	108
923.779	100
925.257	110
926.735	102
928.213	100
929.69	106
931.166	94
932.643	96
934.119	98
935.594	108
937.069	100
938.543	106
940.018	96
941.492	102
942.966	102
944.439	106
945.911	100
947.384	96
948.856	100
950.328	106
951.799	102
953.27	110
954.741	88
956.21	102
957.68	118
959.15	116
960.619	118
962.088	122
963.556	124
965.023	130
966.491	132
967.958	124
969.425	136
970.891	126
972.357	138
973.824	136
975.288	144
976.754	164
978.218	186
979.682	198
981.146	210
982.609	224
984.072	242
985.534	276
986.997	336
988.459	428
989.92	592
991.382	800
992.842	872
994.302	780
995.763	854
997.222	1252
998.681	2090
1000.14	2882
1001.6	3382
1003.06	2848
1004.52	1936
1005.97	1156
1007.43	704
1008.89	446
1010.34	292
1011.8	248
1013.25	214
1014.71	194
1016.16	178
1017.62	180
1019.07	194
1020.53	224
1021.98	266
1023.43	324
1024.89	414
1026.34	498
1027.79	660
1029.24	772
1030.69	884
1032.14	886
1033.59	822
1035.04	668
1036.49	514
1037.94	398
1039.39	324
1040.84	276
1042.29	238
1043.73	202
1045.18	204
1046.63	162
1048.08	174
1049.52	170
1050.97	162
1052.41	162
1053.86	158
1055.3	150
1056.75	164
1058.19	170
1059.64	160
1061.08	168
1062.52	172
1063.96	170
1065.41	160
1066.85	184
1068.29	168
1069.73	184
1071.17	172
1072.61	168
1074.05	178
1075.49	184
1076.93	168
1078.37	176
1079.81	168
1081.25	172
1082.68	172
1084.12	166
1085.56	176
1087	156
1088.43	176
1089.87	172
1091.3	170
1092.74	178
1094.17	168
1095.61	172
1097.04	172
1098.48	176
1099.91	172
1101.34	170
1102.78	160
1104.21	154
1105.64	150
1107.07	136
1108.5	138
1109.93	138
1111.36	120
1112.8	134
1114.22	132
1115.65	128
1117.08	116
1118.51	130
1119.94	118
1121.37	116
1122.8	110
1124.22	108
1125.65	114
1127.08	108
1128.5	108
1129.93	112
1131.35	98
1132.78	104
1134.2	112
1135.63	124
1137.05	118
1138.48	124
1139.9	132
1141.32	128
1142.75	146
1144.17	150
1145.59	154
1147.01	170
1148.43	180
1149.85	228
1151.27	298
1152.69	360
1154.11	410
1155.53	430
1156.95	398
1158.37	344
1159.79	298
1161.21	244
1162.62	218
1164.04	194
1165.46	204
1166.87	228
1168.29	202
1169.71	218
1171.12	220
1172.54	246
1173.95	266
1175.37	314
1176.78	370
1178.19	422
1179.61	478
1181.02	506
1182.43	536
1183.84	522
1185.26	474
1186.67	426
1188.08	412
1189.49	434
1190.9	478
1192.31	472
1193.72	500
1195.13	494
1196.54	522
1197.95	512
1199.36	512
1200.76	490
1202.17	468
1203.58	462
1204.99	416
1206.39	378
1207.8	376
1209.2	318
1210.61	298
1212.01	276
1213.42	256
1214.82	232
1216.23	226
1217.63	234
1219.03	212
1220.44	216
1221.84	216
1223.24	202
1224.64	198
1226.05	196
1227.45	196
1228.85	188
1230.25	190
1231.65	188
1233.05	188
1234.45	180
1235.85	180
1237.25	192
1238.64	172
1240.04	180
1241.44	194
1242.84	172
1244.23	174
1245.63	180
1247.03	162
1248.42	174
1249.82	180
1251.21	176
1252.61	178
1254	168
1255.4	174
1256.79	174
1258.19	174
1259.58	180
1260.97	172
1262.36	178
1263.76	178
1265.15	178
1266.54	166
1267.93	180
1269.32	176
1270.71	172
1272.1	182
1273.49	176
1274.88	176
1276.27	186
1277.66	154
1279.05	190
1280.43	190
1281.82	188
1283.21	180
1284.6	164
1285.98	178
1287.37	170
1288.75	196
1290.14	188
1291.53	194
1292.91	202
1294.29	200
1295.68	200
1297.06	220
1298.45	214
1299.83	208
1301.21	222
1302.59	220
1303.98	226
1305.36	228
1306.74	234
1308.12	236
1309.5	242
1310.88	230
1312.26	246
1313.64	254
1315.02	254
1316.4	248
1317.78	268
1319.16	268
1320.53	282
1321.91	284
1323.29	288
1324.67	296
1326.04	292
1327.42	300
1328.79	296
1330.17	302
1331.54	308
1332.92	306
1334.29	302
1335.67	306
1337.04	310
1338.42	292
1339.79	272
1341.16	292
1342.53	282
1343.91	264
1345.28	298
1346.65	268
1348.02	268
1349.39	286
1350.76	266
1352.13	286
1353.5	272
1354.87	280
1356.24	270
1357.61	268
1358.98	274
1360.34	290
1361.71	290
1363.08	282
1364.45	272
1365.81	298
1367.18	300
1368.54	286
1369.91	294
1371.28	288
1372.64	302
1374.01	296
1375.37	294
1376.73	300
1378.1	290
1379.46	272
1380.82	282
1382.19	274
1383.55	278
1384.91	266
1386.27	262
1387.63	248
1388.99	252
1390.35	262
1391.71	244
1393.07	262
1394.43	254
1395.79	262
1397.15	236
1398.51	242
1399.87	240
1401.23	244
1402.58	232
1403.94	240
1405.3	242
1406.65	252
1408.01	246
1409.37	244
1410.72	234
1412.08	230
1413.43	242
1414.79	234
1416.14	218
1417.49	236
1418.85	244
1420.2	242
1421.55	234
1422.91	226
1424.26	236
1425.61	228
1426.96	246
1428.31	238
1429.66	240
1431.01	240
1432.36	258
1433.71	244
1435.06	252
1436.41	276
1437.76	280
1439.11	278
1440.46	290
1441.81	294
1443.15	314
1444.5	342
1445.85	342
1447.19	348
1448.54	354
1449.89	330
1451.23	350
1452.58	326
1453.92	334
1455.27	298
1456.61	286
1457.95	262
1459.3	230
1460.64	240
1461.98	228
1463.33	210
1464.67	220
1466.01	210
1467.35	220
1468.69	204
1470.03	196
1471.37	204
1472.71	190
1474.05	174
1475.39	190
1476.73	192
1478.07	194
1479.41	200
1480.75	194
1482.09	196
1483.42	192
1484.76	184
1486.1	172
1487.43	192
1488.77	174
1490.11	194
1491.44	200
1492.78	204
1494.11	190
1495.45	170
1496.78	180
1498.12	186
1499.45	190
1500.78	180
1502.11	182
1503.45	166
1504.78	188
1506.11	186
1507.44	164
1508.77	186
1510.11	170
1511.44	174
1512.77	160
1514.1	180
1515.43	180
1516.76	172
1518.08	172
1519.41	192
1520.74	172
1522.07	174
1523.4	166
1524.72	176
1526.05	172
1527.38	176
1528.7	170
1530.03	174
1531.36	172
1532.68	176
1534.01	158
1535.33	176
1536.66	166
1537.98	180
1539.3	166
1540.63	166
1541.95	166
1543.27	162
1544.6	158
1545.92	168
1547.24	170
1548.56	166
1549.88	168
1551.2	172
1552.52	168
1553.84	162
1555.17	160
1556.48	170
1557.8	178
1559.12	172
1560.44	182
1561.76	178
1563.08	172
1564.4	180
1565.71	180
1567.03	174
1568.35	182
1569.66	188
1570.98	208
1572.29	204
1573.61	190
1574.93	222
1576.24	226
1577.55	248
1578.87	286
1580.18	336
1581.5	368
1582.81	430
1584.12	398
1585.43	356
1586.75	304
1588.06	266
1589.37	264
1590.68	272
1591.99	284
1593.3	290
1594.61	334
1595.92	350
1597.23	440
1598.54	524
1599.85	616
1601.16	672
1602.47	700
1603.78	656
1605.08	562
1606.39	460
1607.7	394
1609	330
1610.31	256
1611.62	252
1612.92	240
1614.23	224
1615.53	200
1616.84	202
1618.14	190
1619.45	186
1620.75	192
1622.06	186
1623.36	172
1624.66	180
1625.96	180
1627.27	172
1628.57	160
1629.87	162
1631.17	162
1632.47	152
1633.77	154
1635.07	158
1636.37	156
1637.67	156
1638.97	152
1640.27	140
1641.57	156
1642.87	158
1644.17	170
1645.47	170
1646.76	154
1648.06	156
1649.36	158
1650.66	162
1651.95	154
1653.25	148
1654.54	146
1655.84	150
1657.13	142
1658.43	140
1659.72	138
1661.02	142
1662.31	134
1663.6	126
1664.9	136
1666.19	134
1667.48	138
1668.78	140
1670.07	138
1671.36	134
1672.65	142
1673.94	148
1675.23	140
1676.52	144
1677.81	126
1679.1	128
1680.39	136
1681.68	134
1682.97	146
1684.26	136
1685.55	130
1686.83	130
1688.12	116
1689.41	126
1690.7	130
1691.98	126
1693.27	134
1694.55	144
1695.84	128
1697.13	122
1698.41	128
1699.69	124
1700.98	126
1702.26	130