File: Mixture_Classification/Jesse_Dataset_v2/Pure Raman/Polystyrene/785nm/ps-ppo-6jan25-1,0000-map3_Y05_X10.txt
204.377	840
206.045	860
207.713	854
209.38	894
211.048	896
212.715	918
214.381	950
216.047	926
217.712	918
219.377	924
221.042	912
222.706	906
224.369	882
226.032	862
227.695	794
229.357	768
231.019	712
232.68	694
234.341	642
236.001	576
237.661	556
239.321	496
240.98	472
242.639	436
244.297	390
245.955	378
247.612	332
249.268	326
250.924	302
252.58	300
254.236	298
255.891	286
257.546	276
259.2	260
260.854	272
262.507	268
264.16	258
265.812	258
267.463	258
269.115	260
270.766	264
272.417	240
274.067	246
275.717	246
277.365	236
279.014	244
280.663	232
282.311	220
283.958	210
285.605	218
287.252	212
288.898	202
290.543	196
292.188	188
293.833	180
295.477	178
297.121	186
298.765	172
300.407	170
302.05	180
303.693	176
305.334	176
306.975	178
308.615	184
310.256	168
311.896	182
313.535	180
315.175	178
316.813	168
318.451	182
320.089	188
321.726	180
323.362	174
324.999	168
326.635	178
328.271	178
329.905	178
331.54	182
333.174	186
334.807	164
336.441	170
338.074	166
339.707	176
341.338	162
342.969	174
344.601	168
346.231	172
347.861	158
349.491	148
351.12	148
352.749	152
354.378	146
356.006	158
357.633	146
359.261	156
360.887	146
362.513	154
364.139	156
365.764	152
367.39	158
369.014	150
370.638	164
372.261	166
373.884	168
375.508	162
377.13	166
378.752	168
380.373	166
381.994	178
383.615	180
385.235	188
386.854	186
388.473	178
390.092	190
391.711	188
393.328	190
394.947	200
396.564	200
398.181	192
399.797	206
401.412	222
403.027	230
404.642	236
406.257	238
407.871	230
409.484	230
411.098	218
412.711	224
414.323	202
415.935	184
417.547	178
419.158	168
420.768	166
422.378	168
423.988	172
425.597	166
427.206	160
428.814	158
430.422	150
432.03	154
433.637	142
435.243	146
436.85	128
438.456	150
440.062	144
441.666	128
443.271	134
444.876	124
446.479	134
448.082	130
449.685	134
451.287	122
452.89	122
454.492	136
456.092	114
457.693	112
459.293	106
460.893	118
462.492	110
464.092	114
465.691	110
467.288	106
468.887	110
470.483	112
472.081	116
473.677	112
475.273	106
476.869	104
478.463	98
480.059	104
481.653	106
483.247	112
484.84	108
486.433	112
488.026	104
489.618	100
491.21	106
492.801	106
494.392	108
495.983	102
497.573	110
499.162	114
500.752	110
502.341	114
503.929	100
505.517	114
507.105	122
508.692	108
510.279	118
511.865	110
513.45	114
515.037	112
516.621	104
518.206	120
519.79	114
521.374	118
522.957	112
524.54	126
526.123	124
527.705	118
529.287	124
530.868	132
532.448	142
534.029	136
535.609	140
537.188	150
538.768	146
540.346	160
541.925	150
543.502	164
545.08	144
546.657	154
548.234	146
549.81	152
551.386	142
552.961	140
554.536	118
556.11	142
557.684	136
559.258	138
560.832	146
562.405	136
563.977	132
565.55	136
567.12	138
568.692	134
570.263	130
571.833	134
573.403	142
574.973	146
576.542	126
578.111	126
579.679	122
581.247	128
582.815	124
584.382	116
585.948	118
587.514	116
589.081	114
590.645	114
592.211	116
593.775	108
595.339	108
596.904	120
598.466	118
600.03	114
601.592	114
603.154	132
604.715	142
606.277	156
607.838	150
609.398	144
610.958	142
612.518	150
614.077	190
615.636	232
617.194	330
618.753	516
620.31	714
621.867	682
623.424	454
624.98	274
626.537	192
628.092	170
629.647	156
631.202	138
632.756	122
634.31	122
635.864	114
637.417	106
638.969	100
640.521	94
642.074	84
643.625	90
645.176	92
646.726	86
648.276	86
649.827	76
651.376	82
652.925	80
654.473	86
656.021	78
657.569	84
659.117	84
660.664	76
662.21	84
663.757	82
665.302	88
666.847	88
668.392	82
669.937	86
671.481	80
673.025	86
674.568	82
676.111	78
677.653	84
679.195	84
680.737	74
682.279	82
683.82	84
685.36	76
686.9	80
688.44	82
689.979	70
691.517	76
693.056	80
694.594	86
696.132	84
697.669	82
699.206	96
700.742	94
702.278	100
703.814	106
705.35	108
706.884	110
708.419	102
709.953	108
711.487	98
713.019	108
714.552	90
716.085	108
717.617	98
719.148	112
720.68	124
722.21	136
723.741	138
725.271	152
726.8	152
728.33	132
729.858	132
731.387	118
732.915	124
734.443	134
735.97	150
737.497	154
739.023	168
740.549	178
742.075	194
743.6	190
745.125	186
746.65	194
748.173	202
749.697	204
751.22	194
752.743	210
754.266	212
755.788	218
757.309	230
758.831	240
760.351	246
761.871	232
763.392	228
764.912	216
766.431	212
767.95	216
769.468	198
770.986	218
772.504	206
774.022	202
775.538	196
777.055	198
778.571	204
780.086	208
781.602	230
783.117	238
784.632	258
786.146	286
787.659	294
789.173	306
790.685	326
792.198	342
793.71	328
795.222	364
796.733	340
798.244	340
799.755	316
801.265	300
802.775	258
804.284	232
805.793	204
807.302	188
808.81	196
810.318	172
811.826	176
813.333	162
814.84	160
816.346	150
817.851	124
819.357	138
820.862	118
822.367	118
823.871	120
825.376	106
826.878	114
828.382	108
829.885	116
831.387	110
832.889	122
834.391	130
835.892	138
837.392	158
838.893	144
840.393	156
841.893	160
843.392	164
844.891	166
846.389	148
847.888	148
849.386	142
850.882	138
852.38	142
853.876	130
855.372	134
856.868	128
858.363	142
859.858	130
861.353	130
862.847	136
864.341	128
865.834	124
867.328	132
868.82	126
870.313	120
871.805	124
873.296	122
874.787	122
876.278	118
877.769	114
879.258	122
880.748	114
882.237	120
883.726	118
885.214	102
886.702	120
888.19	114
889.677	104
891.164	118
892.651	116
894.137	106
895.623	124
897.108	116
898.593	128
900.077	130
901.562	136
903.046	162
904.529	142
906.012	144
907.495	146
908.977	134
910.459	140
911.941	134
913.422	134
914.903	120
916.383	120
917.863	110
919.343	110
920.822	106
922.301	104
923.779	110
925.257	98
926.735	104
928.213	94
929.69	96
931.166	102
932.643	100
934.119	108
935.594	104
937.069	106
938.543	86
940.018	96
941.492	108
942.966	106
944.439	108
945.911	102
947.384	112
948.856	100
950.328	116
951.799	102
953.27	106
954.741	102
956.21	106
957.68	110
959.15	114
960.619	114
962.088	118
963.556	128
965.023	124
966.491	132
967.958	130
969.425	142
970.891	132
972.357	134
973.824	126
975.288	140
976.754	150
978.218	156
979.682	190
981.146	196
982.609	236
984.072	260
985.534	278
986.997	316
988.459	414
989.92	612
991.382	792
992.842	838
994.302	828
995.763	894
997.222	1238
998.681	1962
1000.14	2922
1001.6	3346
1003.06	2812
1004.52	1974
1005.97	1186
1007.43	688
1008.89	434
1010.34	310
1011.8	266
1013.25	210
1014.71	194
1016.16	192
1017.62	184
1019.07	212
1020.53	230
1021.98	258
1023.43	324
1024.89	386
1026.34	522
1027.79	628
1029.24	764
1030.69	862
1032.14	866
1033.59	834
1035.04	694
1036.49	500
1037.94	408
1039.39	332
1040.84	268
1042.29	228
1043.73	216
1045.18	196
1046.63	186
1048.08	174
1049.52	174
1050.97	170
1052.41	154
1053.86	158
1055.3	164
1056.75	158
1058.19	164
1059.64	146
1061.08	150
1062.52	166
1063.96	174
1065.41	182
1066.85	182
1068.29	172
1069.73	174
1071.17	176
1072.61	174
1074.05	170
1075.49	166
1076.93	168
1078.37	172
1079.81	166
1081.25	188
1082.68	166
1084.12	172
1085.56	162
1087	172
1088.43	168
1089.87	176
1091.3	180
1092.74	168
1094.17	180
1095.61	178
1097.04	186
1098.48	174
1099.91	184
1101.34	170
1102.78	156
1104.21	162
1105.64	150
1107.07	144
1108.5	148
1109.93	130
1111.36	130
1112.8	144
1114.22	124
1115.65	130
1117.08	122
1118.51	124
1119.94	112
1121.37	122
1122.8	100
1124.22	108
1125.65	114
1127.08	112
1128.5	108
1129.93	110
1131.35	116
1132.78	118
1134.2	110
1135.63	110
1137.05	114
1138.48	118
1139.9	116
1141.32	134
1142.75	136
1144.17	152
1145.59	160
1147.01	170
1148.43	202
1149.85	230
1151.27	306
1152.69	346
1154.11	386
1155.53	454
1156.95	388
1158.37	370
1159.79	306
1161.21	252
1162.62	230
1164.04	210
1165.46	214
1166.87	196
1168.29	216
1169.71	234
1171.12	232
1172.54	256
1173.95	256
1175.37	306
1176.78	348
1178.19	412
1179.61	480
1181.02	526
1182.43	536
1183.84	500
1185.26	480
1186.67	442
1188.08	406
1189.49	430
1190.9	452
1192.31	478
1193.72	472
1195.13	486
1196.54	506
1197.95	498
1199.36	504
1200.76	470
1202.17	480
1203.58	446
1204.99	412
1206.39	374
1207.8	352
1209.2	328
1210.61	304
1212.01	268
1213.42	258
1214.82	242
1216.23	230
1217.63	224
1219.03	202
1220.44	220
1221.84	228
1223.24	198
1224.64	194
1226.05	202
1227.45	202
1228.85	180
1230.25	188
1231.65	180
1233.05	188
1234.45	174
1235.85	172
1237.25	174
1238.64	174
1240.04	166
1241.44	176
1242.84	164
1244.23	166
1245.63	168
1247.03	182
1248.42	178
1249.82	170
1251.21	174
1252.61	170
1254	172
1255.4	162
1256.79	158
1258.19	176
1259.58	166
1260.97	170
1262.36	194
1263.76	176
1265.15	188
1266.54	174
1267.93	168
1269.32	188
1270.71	178
1272.1	184
1273.49	166
1274.88	180
1276.27	172
1277.66	202
1279.05	174
1280.43	176
1281.82	184
1283.21	180
1284.6	186
1285.98	182
1287.37	186
1288.75	192
1290.14	200
1291.53	198
1292.91	196
1294.29	210
1295.68	214
1297.06	212
1298.45	218
1299.83	204
1301.21	216
1302.59	204
1303.98	224
1305.36	222
1306.74	232
1308.12	228
1309.5	240
1310.88	224
1312.26	236
1313.64	246
1315.02	246
1316.4	268
1317.78	270
1319.16	264
1320.53	284
1321.91	278
1323.29	292
1324.67	304
1326.04	306
1327.42	302
1328.79	304
1330.17	294
1331.54	310
1332.92	292
1334.29	304
1335.67	288
1337.04	302
1338.42	264
1339.79	274
1341.16	280
1342.53	296
1343.91	294
1345.28	264
1346.65	258
1348.02	264
1349.39	280
1350.76	274
1352.13	258
1353.5	282
1354.87	288
1356.24	280
1357.61	260
1358.98	274
1360.34	260
1361.71	276
1363.08	294
1364.45	290
1365.81	288
1367.18	284
1368.54	300
1369.91	286
1371.28	300
1372.64	308
1374.01	286
1375.37	290
1376.73	294
1378.1	298
1379.46	276
1380.82	268
1382.19	260
1383.55	276
1384.91	256
1386.27	262
1387.63	264
1388.99	262
1390.35	242
1391.71	230
1393.07	254
1394.43	254
1395.79	258
1397.15	250
1398.51	246
1399.87	252
1401.23	242
1402.58	240
1403.94	242
1405.3	250
1406.65	248
1408.01	234
1409.37	256
1410.72	242
1412.08	236
1413.43	218
1414.79	228
1416.14	242
1417.49	242
1418.85	238
1420.2	222
1421.55	240
1422.91	244
1424.26	224
1425.61	226
1426.96	228
1428.31	226
1429.66	242
1431.01	240
1432.36	240
1433.71	244
1435.06	258
1436.41	274
1437.76	286
1439.11	282
1440.46	294
1441.81	318
1443.15	314
1444.5	314
1445.85	338
1447.19	348
1448.54	358
1449.89	342
1451.23	326
1452.58	340
1453.92	308
1455.27	296
1456.61	268
1457.95	264
1459.3	248
1460.64	220
1461.98	218
1463.33	208
1464.67	216
1466.01	206
1467.35	202
1468.69	200
1470.03	198
1471.37	198
1472.71	184
1474.05	184
1475.39	192
1476.73	202
1478.07	194
1479.41	188
1480.75	198
1482.09	178
1483.42	194
1484.76	188
1486.1	182
1487.43	174
1488.77	196
1490.11	196
1491.44	198
1492.78	200
1494.11	212
1495.45	186
1496.78	194
1498.12	180
1499.45	184
1500.78	190
1502.11	176
1503.45	180
1504.78	166
1506.11	176
1507.44	190
1508.77	176
1510.11	176
1511.44	186
1512.77	166
1514.1	176
1515.43	166
1516.76	168
1518.08	178
1519.41	168
1520.74	164
1522.07	184
1523.4	168
1524.72	158
1526.05	168
1527.38	178
1528.7	176
1530.03	162
1531.36	174
1532.68	182
1534.01	178
1535.33	166
1536.66	166
1537.98	178
1539.3	166
1540.63	166
1541.95	166
1543.27	162
1544.6	168
1545.92	170
1547.24	156
1548.56	170
1549.88	172
1551.2	160
1552.52	168
1553.84	166
1555.17	168
1556.48	166
1557.8	176
1559.12	176
1560.44	170
1561.76	170
1563.08	186
1564.4	180
1565.71	176
1567.03	186
1568.35	182
1569.66	186
1570.98	192
1572.29	198
1573.61	204
1574.93	210
1576.24	224
1577.55	248
1578.87	282
1580.18	340
1581.5	388
1582.81	412
1584.12	412
1585.43	364
1586.75	320
1588.06	246
1589.37	262
1590.68	262
1591.99	266
1593.3	268
1594.61	326
1595.92	348
1597.23	430
1598.54	506
1599.85	630
1601.16	674
1602.47	710
1603.78	642
1605.08	548
1606.39	466
1607.7	386
1609	344
1610.31	264
1611.62	244
1612.92	224
1614.23	218
1615.53	196
1616.84	192
1618.14	178
1619.45	180
1620.75	184
1622.06	178
1623.36	174
1624.66	170
1625.96	160
1627.27	176
1628.57	166
1629.87	166
1631.17	164
1632.47	160
1633.77	162
1635.07	158
1636.37	142
1637.67	152
1638.97	162
1640.27	162
1641.57	164
1642.87	162
1644.17	164
1645.47	170
1646.76	158
1648.06	166
1649.36	164
1650.66	160
1651.95	154
1653.25	148
1654.54	158
1655.84	140
1657.13	128
1658.43	148
1659.72	128
1661.02	138
1662.31	136
1663.6	146
1664.9	142
1666.19	134
1667.48	136
1668.78	140
1670.07	138
1671.36	134
1672.65	126
1673.94	138
1675.23	134
1676.52	144
1677.81	130
1679.1	132
1680.39	136
1681.68	132
1682.97	134
1684.26	130
1685.55	132
1686.83	134
1688.12	138
1689.41	130
1690.7	122
1691.98	130
1693.27	140
1694.55	140
1695.84	134
1697.13	124
1698.41	124
1699.69	124
1700.98	112
1702.26	120