File: Mixture_Classification/Jesse_Dataset_v2/Pure Raman/Polystyrene/785nm/ps-ppo-6jan25-1,0000-map3_Y09_X08.txt
204.377	850
206.045	866
207.713	872
209.38	864
211.048	908
212.715	898
214.381	940
216.047	906
217.712	918
219.377	912
221.042	928
222.706	900
224.369	880
226.032	870
227.695	824
229.357	792
231.019	700
232.68	698
234.341	634
236.001	622
237.661	556
239.321	524
240.98	472
242.639	430
244.297	394
245.955	372
247.612	338
249.268	342
250.924	322
252.58	326
254.236	326
255.891	298
257.546	312
259.2	276
260.854	286
262.507	274
264.16	266
265.812	274
267.463	270
269.115	258
270.766	254
272.417	254
274.067	238
275.717	266
277.365	260
279.014	236
280.663	236
282.311	238
283.958	232
285.605	210
287.252	214
288.898	216
290.543	208
292.188	202
293.833	194
295.477	184
297.121	190
298.765	182
300.407	188
302.05	178
303.693	170
305.334	184
306.975	176
308.615	180
310.256	174
311.896	180
313.535	184
315.175	184
316.813	182
318.451	198
320.089	182
321.726	188
323.362	192
324.999	178
326.635	186
328.271	196
329.905	188
331.54	172
333.174	194
334.807	192
336.441	190
338.074	186
339.707	174
341.338	176
342.969	188
344.601	180
346.231	170
347.861	160
349.491	166
351.12	164
352.749	160
354.378	164
356.006	164
357.633	158
359.261	150
360.887	162
362.513	144
364.139	162
365.764	168
367.39	174
369.014	164
370.638	182
372.261	170
373.884	166
375.508	182
377.13	152
378.752	190
380.373	182
381.994	184
383.615	184
385.235	196
386.854	194
388.473	200
390.092	192
391.711	204
393.328	202
394.947	204
396.564	212
398.181	216
399.797	218
401.412	210
403.027	246
404.642	246
406.257	260
407.871	248
409.484	244
411.098	218
412.711	202
414.323	206
415.935	194
417.547	194
419.158	200
420.768	182
422.378	176
423.988	170
425.597	178
427.206	170
428.814	150
430.422	160
432.03	156
433.637	150
435.243	162
436.85	146
438.456	152
440.062	144
441.666	146
443.271	142
444.876	146
446.479	148
448.082	126
449.685	140
451.287	132
452.89	128
454.492	128
456.092	118
457.693	122
459.293	124
460.893	122
462.492	122
464.092	126
465.691	120
467.288	120
468.887	114
470.483	116
472.081	112
473.677	120
475.273	116
476.869	120
478.463	114
480.059	110
481.653	114
483.247	118
484.84	104
486.433	114
488.026	106
489.618	108
491.21	112
492.801	114
494.392	104
495.983	108
497.573	118
499.162	102
500.752	118
502.341	122
503.929	126
505.517	116
507.105	126
508.692	126
510.279	112
511.865	120
513.45	124
515.037	116
516.621	126
518.206	114
519.79	128
521.374	116
522.957	126
524.54	126
526.123	130
527.705	130
529.287	130
530.868	142
532.448	146
534.029	146
535.609	152
537.188	152
538.768	166
540.346	152
541.925	158
543.502	154
545.08	158
546.657	140
548.234	152
549.81	146
551.386	146
552.961	146
554.536	144
556.11	162
557.684	134
559.258	160
560.832	142
562.405	156
563.977	140
565.55	152
567.12	142
568.692	144
570.263	138
571.833	160
573.403	158
574.973	142
576.542	150
578.111	144
579.679	134
581.247	130
582.815	120
584.382	132
585.948	130
587.514	116
589.081	132
590.645	126
592.211	128
593.775	118
595.339	126
596.904	120
598.466	122
600.03	124
601.592	124
603.154	140
604.715	140
606.277	162
607.838	162
609.398	156
610.958	152
612.518	160
614.077	188
615.636	240
617.194	332
618.753	536
620.31	736
621.867	690
623.424	460
624.98	270
626.537	210
628.092	182
629.647	162
631.202	136
632.756	134
634.31	134
635.864	110
637.417	108
638.969	104
640.521	96
642.074	96
643.625	94
645.176	106
646.726	96
648.276	96
649.827	80
651.376	86
652.925	86
654.473	88
656.021	92
657.569	86
659.117	84
660.664	82
662.21	90
663.757	90
665.302	88
666.847	92
668.392	82
669.937	86
671.481	86
673.025	86
674.568	86
676.111	84
677.653	82
679.195	88
680.737	72
682.279	86
683.82	82
685.36	86
686.9	84
688.44	82
689.979	86
691.517	84
693.056	86
694.594	92
696.132	94
697.669	98
699.206	104
700.742	100
702.278	98
703.814	110
705.35	108
706.884	110
708.419	102
709.953	108
711.487	112
713.019	98
714.552	102
716.085	104
717.617	102
719.148	116
720.68	136
722.21	138
723.741	160
725.271	164
726.8	154
728.33	134
729.858	122
731.387	128
732.915	142
734.443	142
735.97	152
737.497	162
739.023	200
740.549	188
742.075	190
743.6	198
745.125	206
746.65	200
748.173	188
749.697	194
751.22	218
752.743	200
754.266	220
755.788	232
757.309	236
758.831	256
760.351	236
761.871	230
763.392	224
764.912	236
766.431	208
767.95	218
769.468	198
770.986	210
772.504	192
774.022	220
775.538	222
777.055	196
778.571	212
780.086	230
781.602	244
783.117	240
784.632	256
786.146	276
787.659	320
789.173	310
790.685	326
792.198	340
793.71	346
795.222	348
796.733	356
798.244	348
799.755	324
801.265	290
802.775	266
804.284	232
805.793	216
807.302	206
808.81	192
810.318	184
811.826	164
813.333	168
814.84	150
816.346	150
817.851	136
819.357	138
820.862	126
822.367	116
823.871	122
825.376	118
826.878	120
828.382	126
829.885	114
831.387	124
832.889	132
834.391	128
835.892	138
837.392	148
838.893	166
840.393	162
841.893	156
843.392	166
844.891	152
846.389	164
847.888	154
849.386	136
850.882	140
852.38	126
853.876	134
855.372	124
856.868	128
858.363	130
859.858	126
861.353	130
862.847	140
864.341	126
865.834	128
867.328	126
868.82	132
870.313	126
871.805	126
873.296	120
874.787	132
876.278	118
877.769	130
879.258	118
880.748	134
882.237	120
883.726	122
885.214	116
886.702	124
888.19	126
889.677	118
891.164	116
892.651	124
894.137	110
895.623	126
897.108	126
898.593	128
900.077	118
901.562	142
903.046	146
904.529	146
906.012	158
907.495	158
908.977	156
910.459	138
911.941	124
913.422	126
914.903	104
916.383	104
917.863	108
919.343	112
920.822	104
922.301	102
923.779	104
925.257	98
926.735	100
928.213	104
929.69	96
931.166	98
932.643	92
934.119	110
935.594	96
937.069	108
938.543	102
940.018	94
941.492	100
942.966	100
944.439	108
945.911	100
947.384	104
948.856	108
950.328	104
951.799	100
953.27	104
954.741	102
956.21	108
957.68	114
959.15	110
960.619	126
962.088	122
963.556	124
965.023	134
966.491	128
967.958	136
969.425	130
970.891	132
972.357	136
973.824	140
975.288	156
976.754	144
978.218	176
979.682	174
981.146	206
982.609	236
984.072	256
985.534	274
986.997	338
988.459	424
989.92	614
991.382	822
992.842	864
994.302	794
995.763	864
997.222	1296
998.681	2008
1000.14	2978
1001.6	3378
1003.06	2856
1004.52	1928
1005.97	1148
1007.43	692
1008.89	436
1010.34	310
1011.8	248
1013.25	210
1014.71	194
1016.16	192
1017.62	188
1019.07	214
1020.53	230
1021.98	250
1023.43	320
1024.89	386
1026.34	504
1027.79	652
1029.24	782
1030.69	840
1032.14	896
1033.59	804
1035.04	678
1036.49	520
1037.94	424
1039.39	322
1040.84	270
1042.29	234
1043.73	202
1045.18	194
1046.63	176
1048.08	168
1049.52	178
1050.97	164
1052.41	164
1053.86	156
1055.3	156
1056.75	152
1058.19	166
1059.64	156
1061.08	156
1062.52	154
1063.96	178
1065.41	180
1066.85	184
1068.29	176
1069.73	166
1071.17	178
1072.61	180
1074.05	176
1075.49	178
1076.93	168
1078.37	166
1079.81	174
1081.25	170
1082.68	154
1084.12	172
1085.56	172
1087	174
1088.43	166
1089.87	184
1091.3	178
1092.74	174
1094.17	174
1095.61	162
1097.04	184
1098.48	178
1099.91	182
1101.34	168
1102.78	172
1104.21	168
1105.64	164
1107.07	156
1108.5	154
1109.93	146
1111.36	132
1112.8	142
1114.22	134
1115.65	130
1117.08	122
1118.51	128
1119.94	120
1121.37	114
1122.8	126
1124.22	112
1125.65	124
1127.08	116
1128.5	120
1129.93	114
1131.35	126
1132.78	120
1134.2	122
1135.63	110
1137.05	126
1138.48	134
1139.9	136
1141.32	142
1142.75	160
1144.17	156
1145.59	162
1147.01	182
1148.43	204
1149.85	218
1151.27	292
1152.69	348
1154.11	414
1155.53	418
1156.95	400
1158.37	338
1159.79	296
1161.21	258
1162.62	234
1164.04	222
1165.46	218
1166.87	196
1168.29	224
1169.71	214
1171.12	230
1172.54	246
1173.95	270
1175.37	316
1176.78	362
1178.19	418
1179.61	494
1181.02	546
1182.43	544
1183.84	510
1185.26	466
1186.67	428
1188.08	416
1189.49	444
1190.9	472
1192.31	474
1193.72	494
1195.13	512
1196.54	502
1197.95	506
1199.36	486
1200.76	474
1202.17	456
1203.58	446
1204.99	414
1206.39	382
1207.8	354
1209.2	332
1210.61	282
1212.01	268
1213.42	248
1214.82	254
1216.23	244
1217.63	218
1219.03	216
1220.44	228
1221.84	210
1223.24	208
1224.64	190
1226.05	204
1227.45	192
1228.85	196
1230.25	190
1231.65	200
1233.05	180
1234.45	178
1235.85	168
1237.25	184
1238.64	180
1240.04	172
1241.44	192
1242.84	170
1244.23	178
1245.63	182
1247.03	186
1248.42	180
1249.82	174
1251.21	186
1252.61	162
1254	176
1255.4	174
1256.79	186
1258.19	178
1259.58	180
1260.97	178
1262.36	176
1263.76	172
1265.15	170
1266.54	172
1267.93	182
1269.32	182
1270.71	176
1272.1	168
1273.49	174
1274.88	172
1276.27	180
1277.66	170
1279.05	174
1280.43	178
1281.82	184
1283.21	192
1284.6	194
1285.98	176
1287.37	198
1288.75	190
1290.14	198
1291.53	188
1292.91	186
1294.29	208
1295.68	204
1297.06	206
1298.45	212
1299.83	218
1301.21	216
1302.59	224
1303.98	214
1305.36	228
1306.74	226
1308.12	232
1309.5	222
1310.88	242
1312.26	234
1313.64	242
1315.02	254
1316.4	256
1317.78	262
1319.16	264
1320.53	282
1321.91	284
1323.29	286
1324.67	298
1326.04	300
1327.42	298
1328.79	316
1330.17	310
1331.54	320
1332.92	308
1334.29	298
1335.67	296
1337.04	294
1338.42	280
1339.79	282
1341.16	286
1342.53	274
1343.91	272
1345.28	278
1346.65	256
1348.02	264
1349.39	280
1350.76	282
1352.13	270
1353.5	282
1354.87	274
1356.24	278
1357.61	280
1358.98	276
1360.34	294
1361.71	302
1363.08	286
1364.45	286
1365.81	282
1367.18	302
1368.54	298
1369.91	282
1371.28	292
1372.64	284
1374.01	306
1375.37	300
1376.73	296
1378.1	296
1379.46	278
1380.82	276
1382.19	268
1383.55	274
1384.91	256
1386.27	278
1387.63	270
1388.99	252
1390.35	232
1391.71	254
1393.07	246
1394.43	246
1395.79	254
1397.15	260
1398.51	240
1399.87	252
1401.23	246
1402.58	250
1403.94	244
1405.3	246
1406.65	240
1408.01	244
1409.37	246
1410.72	244
1412.08	232
1413.43	232
1414.79	248
1416.14	234
1417.49	230
1418.85	236
1420.2	228
1421.55	226
1422.91	230
1424.26	226
1425.61	224
1426.96	240
1428.31	234
1429.66	232
1431.01	220
1432.36	246
1433.71	242
1435.06	260
1436.41	274
1437.76	272
1439.11	286
1440.46	294
1441.81	294
1443.15	328
1444.5	320
1445.85	330
1447.19	344
1448.54	354
1449.89	336
1451.23	350
1452.58	328
1453.92	330
1455.27	306
1456.61	276
1457.95	262
1459.3	238
1460.64	226
1461.98	230
1463.33	222
1464.67	210
1466.01	204
1467.35	214
1468.69	204
1470.03	200
1471.37	200
1472.71	206
1474.05	192
1475.39	192
1476.73	202
1478.07	186
1479.41	194
1480.75	200
1482.09	190
1483.42	172
1484.76	190
1486.1	190
1487.43	182
1488.77	182
1490.11	194
1491.44	184
1492.78	192
1494.11	196
1495.45	198
1496.78	196
1498.12	182
1499.45	176
1500.78	172
1502.11	176
1503.45	178
1504.78	182
1506.11	182
1507.44	178
1508.77	174
1510.11	168
1511.44	170
1512.77	178
1514.1	172
1515.43	182
1516.76	182
1518.08	176
1519.41	160
1520.74	176
1522.07	168
1523.4	180
1524.72	176
1526.05	176
1527.38	174
1528.7	168
1530.03	172
1531.36	176
1532.68	172
1534.01	168
1535.33	160
1536.66	168
1537.98	154
1539.3	164
1540.63	174
1541.95	176
1543.27	178
1544.6	166
1545.92	166
1547.24	166
1548.56	172
1549.88	178
1551.2	146
1552.52	168
1553.84	170
1555.17	160
1556.48	176
1557.8	174
1559.12	170
1560.44	170
1561.76	174
1563.08	170
1564.4	172
1565.71	182
1567.03	172
1568.35	184
1569.66	190
1570.98	194
1572.29	194
1573.61	198
1574.93	210
1576.24	234
1577.55	242
1578.87	284
1580.18	340
1581.5	390
1582.81	426
1584.12	410
1585.43	354
1586.75	302
1588.06	270
1589.37	256
1590.68	272
1591.99	260
1593.3	286
1594.61	304
1595.92	366
1597.23	426
1598.54	532
1599.85	606
1601.16	674
1602.47	706
1603.78	664
1605.08	576
1606.39	460
1607.7	388
1609	330
1610.31	284
1611.62	250
1612.92	250
1614.23	224
1615.53	198
1616.84	194
1618.14	200
1619.45	194
1620.75	178
1622.06	168
1623.36	170
1624.66	176
1625.96	164
1627.27	152
1628.57	172
1629.87	150
1631.17	164
1632.47	150
1633.77	146
1635.07	158
1636.37	156
1637.67	158
1638.97	156
1640.27	158
1641.57	160
1642.87	164
1644.17	146
1645.47	158
1646.76	160
1648.06	168
1649.36	166
1650.66	150
1651.95	150
1653.25	148
1654.54	142
1655.84	146
1657.13	148
1658.43	136
1659.72	150
1661.02	136
1662.31	140
1663.6	142
1664.9	136
1666.19	126
1667.48	140
1668.78	136
1670.07	138
1671.36	142
1672.65	134
1673.94	138
1675.23	138
1676.52	144
1677.81	140
1679.1	140
1680.39	136
1681.68	142
1682.97	138
1684.26	132
1685.55	140
1686.83	128
1688.12	132
1689.41	136
1690.7	144
1691.98	134
1693.27	138
1694.55	122
1695.84	138
1697.13	126
1698.41	122
1699.69	130
1700.98	124
1702.26	128