File: Mixture_Classification/Jesse_Dataset_v2/Pure Raman/Polystyrene/785nm/ps-ppo-6jan25-1,0000-map3_Y02_X01.txt
204.377	830
206.045	830
207.713	848
209.38	870
211.048	890
212.715	906
214.381	878
216.047	896
217.712	920
219.377	908
221.042	906
222.706	906
224.369	870
226.032	842
227.695	816
229.357	742
231.019	708
232.68	662
234.341	628
236.001	570
237.661	558
239.321	508
240.98	456
242.639	414
244.297	390
245.955	350
247.612	336
249.268	320
250.924	302
252.58	304
254.236	290
255.891	280
257.546	272
259.2	260
260.854	268
262.507	264
264.16	268
265.812	272
267.463	246
269.115	240
270.766	238
272.417	248
274.067	232
275.717	230
277.365	234
279.014	234
280.663	224
282.311	234
283.958	222
285.605	200
287.252	204
288.898	188
290.543	188
292.188	192
293.833	180
295.477	184
297.121	168
298.765	172
300.407	174
302.05	168
303.693	156
305.334	164
306.975	170
308.615	178
310.256	168
311.896	170
313.535	180
315.175	176
316.813	162
318.451	158
320.089	170
321.726	170
323.362	172
324.999	168
326.635	168
328.271	164
329.905	174
331.54	172
333.174	176
334.807	172
336.441	174
338.074	166
339.707	166
341.338	170
342.969	154
344.601	160
346.231	158
347.861	160
349.491	154
351.12	160
352.749	152
354.378	148
356.006	154
357.633	144
359.261	152
360.887	152
362.513	156
364.139	146
365.764	150
367.39	146
369.014	154
370.638	158
372.261	160
373.884	158
375.508	152
377.13	166
378.752	168
380.373	172
381.994	156
383.615	170
385.235	192
386.854	174
388.473	184
390.092	198
391.711	176
393.328	186
394.947	186
396.564	172
398.181	202
399.797	210
401.412	226
403.027	218
404.642	238
406.257	228
407.871	236
409.484	224
411.098	210
412.711	216
414.323	192
415.935	182
417.547	190
419.158	192
420.768	172
422.378	162
423.988	150
425.597	150
427.206	160
428.814	152
430.422	152
432.03	150
433.637	144
435.243	134
436.85	130
438.456	142
440.062	128
441.666	142
443.271	130
444.876	138
446.479	122
448.082	134
449.685	116
451.287	116
452.89	118
454.492	116
456.092	102
457.693	108
459.293	108
460.893	106
462.492	108
464.092	112
465.691	104
467.288	100
468.887	106
470.483	104
472.081	112
473.677	112
475.273	114
476.869	108
478.463	104
480.059	110
481.653	106
483.247	94
484.84	96
486.433	96
488.026	92
489.618	98
491.21	98
492.801	100
494.392	104
495.983	96
497.573	106
499.162	114
500.752	102
502.341	102
503.929	112
505.517	98
507.105	108
508.692	118
510.279	118
511.865	100
513.45	112
515.037	108
516.621	112
518.206	112
519.79	106
521.374	108
522.957	116
524.54	108
526.123	114
527.705	116
529.287	118
530.868	130
532.448	120
534.029	134
535.609	134
537.188	150
538.768	150
540.346	148
541.925	138
543.502	140
545.08	144
546.657	142
548.234	148
549.81	148
551.386	136
552.961	142
554.536	144
556.11	138
557.684	124
559.258	132
560.832	134
562.405	136
563.977	130
565.55	138
567.12	126
568.692	132
570.263	136
571.833	138
573.403	140
574.973	142
576.542	140
578.111	122
579.679	120
581.247	112
582.815	114
584.382	102
585.948	110
587.514	124
589.081	112
590.645	112
592.211	116
593.775	104
595.339	120
596.904	110
598.466	116
600.03	108
601.592	126
603.154	116
604.715	126
606.277	140
607.838	134
609.398	146
610.958	134
612.518	154
614.077	190
615.636	220
617.194	310
618.753	514
620.31	704
621.867	704
623.424	450
624.98	292
626.537	210
628.092	160
629.647	152
631.202	124
632.756	126
634.31	108
635.864	114
637.417	96
638.969	94
640.521	86
642.074	92
643.625	76
645.176	80
646.726	78
648.276	80
649.827	84
651.376	82
652.925	76
654.473	76
656.021	78
657.569	82
659.117	82
660.664	82
662.21	80
663.757	76
665.302	70
666.847	74
668.392	76
669.937	82
671.481	78
673.025	64
674.568	70
676.111	76
677.653	72
679.195	76
680.737	78
682.279	76
683.82	80
685.36	70
686.9	76
688.44	72
689.979	70
691.517	74
693.056	72
694.594	78
696.132	82
697.669	92
699.206	90
700.742	94
702.278	98
703.814	106
705.35	100
706.884	96
708.419	90
709.953	92
711.487	86
713.019	88
714.552	100
716.085	90
717.617	92
719.148	104
720.68	110
722.21	128
723.741	130
725.271	148
726.8	144
728.33	130
729.858	122
731.387	128
732.915	132
734.443	132
735.97	156
737.497	158
739.023	174
740.549	188
742.075	184
743.6	182
745.125	192
746.65	162
748.173	184
749.697	188
751.22	206
752.743	206
754.266	198
755.788	234
757.309	226
758.831	236
760.351	214
761.871	228
763.392	226
764.912	212
766.431	214
767.95	216
769.468	192
770.986	190
772.504	206
774.022	192
775.538	184
777.055	196
778.571	212
780.086	220
781.602	236
783.117	238
784.632	250
786.146	274
787.659	300
789.173	308
790.685	326
792.198	314
793.71	328
795.222	352
796.733	342
798.244	334
799.755	310
801.265	280
802.775	226
804.284	224
805.793	212
807.302	192
808.81	184
810.318	168
811.826	168
813.333	166
814.84	154
816.346	140
817.851	130
819.357	134
820.862	126
822.367	124
823.871	116
825.376	116
826.878	108
828.382	102
829.885	120
831.387	104
832.889	122
834.391	116
835.892	132
837.392	148
838.893	152
840.393	164
841.893	144
843.392	156
844.891	136
846.389	142
847.888	150
849.386	134
850.882	130
852.38	132
853.876	126
855.372	124
856.868	128
858.363	124
859.858	120
861.353	120
862.847	128
864.341	116
865.834	132
867.328	116
868.82	134
870.313	124
871.805	114
873.296	122
874.787	110
876.278	118
877.769	116
879.258	116
880.748	112
882.237	124
883.726	108
885.214	108
886.702	108
888.19	108
889.677	110
891.164	112
892.651	104
894.137	118
895.623	114
897.108	112
898.593	114
900.077	120
901.562	132
903.046	130
904.529	138
906.012	154
907.495	142
908.977	140
910.459	142
911.941	128
913.422	128
914.903	116
916.383	114
917.863	110
919.343	102
920.822	104
922.301	100
923.779	104
925.257	100
926.735	96
928.213	100
929.69	98
931.166	96
932.643	92
934.119	100
935.594	100
937.069	96
938.543	100
940.018	102
941.492	106
942.966	100
944.439	100
945.911	90
947.384	90
948.856	104
950.328	100
951.799	100
953.27	98
954.741	106
956.21	100
957.68	108
959.15	106
960.619	114
962.088	116
963.556	120
965.023	128
966.491	126
967.958	128
969.425	124
970.891	132
972.357	134
973.824	134
975.288	142
976.754	148
978.218	172
979.682	178
981.146	196
982.609	224
984.072	244
985.534	252
986.997	318
988.459	422
989.92	562
991.382	720
992.842	796
994.302	762
995.763	856
997.222	1226
998.681	1924
1000.14	2842
1001.6	3246
1003.06	2894
1004.52	1950
1005.97	1210
1007.43	718
1008.89	446
1010.34	326
1011.8	254
1013.25	212
1014.71	176
1016.16	176
1017.62	184
1019.07	196
1020.53	222
1021.98	250
1023.43	314
1024.89	370
1026.34	492
1027.79	646
1029.24	754
1030.69	854
1032.14	884
1033.59	834
1035.04	680
1036.49	506
1037.94	414
1039.39	322
1040.84	262
1042.29	246
1043.73	198
1045.18	182
1046.63	178
1048.08	162
1049.52	158
1050.97	150
1052.41	152
1053.86	154
1055.3	150
1056.75	144
1058.19	158
1059.64	140
1061.08	158
1062.52	164
1063.96	176
1065.41	160
1066.85	184
1068.29	172
1069.73	180
1071.17	172
1072.61	158
1074.05	158
1075.49	172
1076.93	160
1078.37	174
1079.81	170
1081.25	174
1082.68	164
1084.12	160
1085.56	170
1087	162
1088.43	170
1089.87	166
1091.3	150
1092.74	170
1094.17	172
1095.61	172
1097.04	174
1098.48	172
1099.91	170
1101.34	150
1102.78	148
1104.21	150
1105.64	146
1107.07	144
1108.5	132
1109.93	122
1111.36	124
1112.8	112
1114.22	132
1115.65	116
1117.08	122
1118.51	120
1119.94	106
1121.37	118
1122.8	106
1124.22	104
1125.65	118
1127.08	108
1128.5	106
1129.93	96
1131.35	108
1132.78	106
1134.2	104
1135.63	106
1137.05	122
1138.48	112
1139.9	134
1141.32	130
1142.75	130
1144.17	148
1145.59	146
1147.01	168
1148.43	192
1149.85	214
1151.27	282
1152.69	370
1154.11	398
1155.53	430
1156.95	384
1158.37	352
1159.79	294
1161.21	250
1162.62	220
1164.04	218
1165.46	222
1166.87	206
1168.29	208
1169.71	208
1171.12	226
1172.54	232
1173.95	266
1175.37	290
1176.78	336
1178.19	398
1179.61	472
1181.02	522
1182.43	540
1183.84	492
1185.26	440
1186.67	418
1188.08	438
1189.49	438
1190.9	448
1192.31	468
1193.72	474
1195.13	528
1196.54	502
1197.95	498
1199.36	496
1200.76	480
1202.17	454
1203.58	424
1204.99	428
1206.39	374
1207.8	350
1209.2	320
1210.61	264
1212.01	256
1213.42	238
1214.82	234
1216.23	198
1217.63	214
1219.03	204
1220.44	212
1221.84	192
1223.24	174
1224.64	198
1226.05	192
1227.45	192
1228.85	190
1230.25	182
1231.65	172
1233.05	160
1234.45	176
1235.85	160
1237.25	164
1238.64	158
1240.04	168
1241.44	172
1242.84	172
1244.23	162
1245.63	158
1247.03	162
1248.42	166
1249.82	166
1251.21	160
1252.61	146
1254	168
1255.4	168
1256.79	170
1258.19	166
1259.58	156
1260.97	154
1262.36	156
1263.76	166
1265.15	172
1266.54	156
1267.93	166
1269.32	168
1270.71	154
1272.1	154
1273.49	160
1274.88	162
1276.27	176
1277.66	168
1279.05	172
1280.43	178
1281.82	168
1283.21	184
1284.6	170
1285.98	174
1287.37	174
1288.75	176
1290.14	184
1291.53	198
1292.91	192
1294.29	198
1295.68	192
1297.06	192
1298.45	186
1299.83	198
1301.21	204
1302.59	194
1303.98	214
1305.36	226
1306.74	216
1308.12	226
1309.5	218
1310.88	216
1312.26	224
1313.64	212
1315.02	230
1316.4	248
1317.78	262
1319.16	254
1320.53	254
1321.91	284
1323.29	272
1324.67	286
1326.04	282
1327.42	274
1328.79	282
1330.17	282
1331.54	298
1332.92	288
1334.29	284
1335.67	286
1337.04	266
1338.42	262
1339.79	270
1341.16	264
1342.53	250
1343.91	246
1345.28	258
1346.65	262
1348.02	248
1349.39	246
1350.76	250
1352.13	256
1353.5	266
1354.87	242
1356.24	250
1357.61	254
1358.98	250
1360.34	260
1361.71	266
1363.08	258
1364.45	272
1365.81	274
1367.18	264
1368.54	282
1369.91	274
1371.28	264
1372.64	264
1374.01	260
1375.37	266
1376.73	272
1378.1	274
1379.46	258
1380.82	242
1382.19	244
1383.55	262
1384.91	272
1386.27	244
1387.63	238
1388.99	230
1390.35	224
1391.71	236
1393.07	226
1394.43	226
1395.79	240
1397.15	244
1398.51	228
1399.87	226
1401.23	236
1402.58	220
1403.94	234
1405.3	220
1406.65	232
1408.01	222
1409.37	222
1410.72	226
1412.08	206
1413.43	218
1414.79	208
1416.14	222
1417.49	212
1418.85	218
1420.2	210
1421.55	204
1422.91	202
1424.26	210
1425.61	214
1426.96	208
1428.31	224
1429.66	206
1431.01	212
1432.36	240
1433.71	242
1435.06	232
1436.41	248
1437.76	258
1439.11	264
1440.46	284
1441.81	276
1443.15	284
1444.5	308
1445.85	312
1447.19	320
1448.54	320
1449.89	312
1451.23	326
1452.58	320
1453.92	304
1455.27	276
1456.61	272
1457.95	242
1459.3	236
1460.64	214
1461.98	210
1463.33	192
1464.67	194
1466.01	190
1467.35	190
1468.69	182
1470.03	182
1471.37	186
1472.71	180
1474.05	184
1475.39	182
1476.73	166
1478.07	192
1479.41	176
1480.75	180
1482.09	170
1483.42	168
1484.76	174
1486.1	166
1487.43	180
1488.77	174
1490.11	176
1491.44	174
1492.78	182
1494.11	180
1495.45	186
1496.78	188
1498.12	178
1499.45	166
1500.78	164
1502.11	164
1503.45	150
1504.78	164
1506.11	160
1507.44	158
1508.77	164
1510.11	160
1511.44	180
1512.77	166
1514.1	160
1515.43	150
1516.76	166
1518.08	156
1519.41	162
1520.74	160
1522.07	164
1523.4	168
1524.72	164
1526.05	176
1527.38	166
1528.7	144
1530.03	162
1531.36	152
1532.68	152
1534.01	160
1535.33	156
1536.66	158
1537.98	164
1539.3	150
1540.63	152
1541.95	146
1543.27	166
1544.6	156
1545.92	150
1547.24	154
1548.56	144
1549.88	150
1551.2	156
1552.52	160
1553.84	152
1555.17	156
1556.48	154
1557.8	154
1559.12	158
1560.44	156
1561.76	156
1563.08	156
1564.4	166
1565.71	160
1567.03	166
1568.35	162
1569.66	170
1570.98	180
1572.29	178
1573.61	194
1574.93	192
1576.24	220
1577.55	232
1578.87	246
1580.18	326
1581.5	396
1582.81	408
1584.12	388
1585.43	332
1586.75	286
1588.06	260
1589.37	240
1590.68	248
1591.99	248
1593.3	270
1594.61	314
1595.92	362
1597.23	428
1598.54	484
1599.85	604
1601.16	678
1602.47	654
1603.78	650
1605.08	564
1606.39	446
1607.7	394
1609	298
1610.31	276
1611.62	236
1612.92	220
1614.23	204
1615.53	180
1616.84	192
1618.14	186
1619.45	176
1620.75	174
1622.06	156
1623.36	160
1624.66	160
1625.96	154
1627.27	142
1628.57	150
1629.87	148
1631.17	148
1632.47	138
1633.77	152
1635.07	144
1636.37	142
1637.67	140
1638.97	152
1640.27	148
1641.57	148
1642.87	142
1644.17	152
1645.47	148
1646.76	134
1648.06	138
1649.36	148
1650.66	140
1651.95	138
1653.25	140
1654.54	136
1655.84	138
1657.13	120
1658.43	132
1659.72	134
1661.02	122
1662.31	134
1663.6	134
1664.9	126
1666.19	124
1667.48	126
1668.78	132
1670.07	126
1671.36	124
1672.65	120
1673.94	128
1675.23	124
1676.52	126
1677.81	128
1679.1	124
1680.39	120
1681.68	110
1682.97	124
1684.26	114
1685.55	126
1686.83	116
1688.12	124
1689.41	116
1690.7	122
1691.98	114
1693.27	120
1694.55	116
1695.84	112
1697.13	124
1698.41	110
1699.69	108
1700.98	108
1702.26	116