File: Mixture_Classification/Jesse_Dataset_v2/Pure Raman/Polystyrene/785nm/ps-ppo-6jan25-1,0000-map3_Y10_X04.txt
204.377	844
206.045	858
207.713	854
209.38	876
211.048	870
212.715	892
214.381	904
216.047	910
217.712	918
219.377	944
221.042	876
222.706	860
224.369	876
226.032	846
227.695	810
229.357	756
231.019	736
232.68	652
234.341	624
236.001	590
237.661	538
239.321	492
240.98	450
242.639	440
244.297	364
245.955	364
247.612	344
249.268	316
250.924	298
252.58	296
254.236	286
255.891	274
257.546	276
259.2	276
260.854	260
262.507	252
264.16	274
265.812	266
267.463	240
269.115	260
270.766	248
272.417	258
274.067	240
275.717	230
277.365	234
279.014	218
280.663	208
282.311	222
283.958	210
285.605	202
287.252	208
288.898	196
290.543	202
292.188	162
293.833	164
295.477	172
297.121	180
298.765	166
300.407	170
302.05	162
303.693	170
305.334	170
306.975	168
308.615	170
310.256	166
311.896	168
313.535	168
315.175	178
316.813	174
318.451	170
320.089	168
321.726	162
323.362	164
324.999	170
326.635	164
328.271	168
329.905	168
331.54	164
333.174	166
334.807	168
336.441	168
338.074	168
339.707	162
341.338	168
342.969	166
344.601	164
346.231	156
347.861	154
349.491	156
351.12	136
352.749	156
354.378	150
356.006	154
357.633	138
359.261	154
360.887	140
362.513	158
364.139	152
365.764	154
367.39	148
369.014	150
370.638	150
372.261	150
373.884	154
375.508	148
377.13	162
378.752	166
380.373	168
381.994	166
383.615	168
385.235	176
386.854	180
388.473	184
390.092	168
391.711	166
393.328	194
394.947	172
396.564	202
398.181	196
399.797	222
401.412	208
403.027	220
404.642	240
406.257	228
407.871	224
409.484	208
411.098	220
412.711	212
414.323	206
415.935	194
417.547	180
419.158	168
420.768	178
422.378	156
423.988	150
425.597	140
427.206	152
428.814	156
430.422	144
432.03	146
433.637	148
435.243	146
436.85	144
438.456	144
440.062	134
441.666	138
443.271	136
444.876	122
446.479	134
448.082	124
449.685	122
451.287	118
452.89	122
454.492	112
456.092	116
457.693	106
459.293	108
460.893	112
462.492	104
464.092	104
465.691	106
467.288	106
468.887	106
470.483	102
472.081	108
473.677	96
475.273	108
476.869	106
478.463	100
480.059	114
481.653	106
483.247	90
484.84	96
486.433	100
488.026	96
489.618	108
491.21	96
492.801	104
494.392	98
495.983	94
497.573	102
499.162	112
500.752	112
502.341	110
503.929	108
505.517	118
507.105	106
508.692	106
510.279	102
511.865	114
513.45	112
515.037	104
516.621	106
518.206	102
519.79	112
521.374	114
522.957	112
524.54	114
526.123	120
527.705	118
529.287	120
530.868	128
532.448	120
534.029	140
535.609	146
537.188	144
538.768	146
540.346	154
541.925	154
543.502	142
545.08	142
546.657	148
548.234	152
549.81	138
551.386	144
552.961	140
554.536	138
556.11	142
557.684	130
559.258	136
560.832	134
562.405	138
563.977	136
565.55	130
567.12	138
568.692	132
570.263	134
571.833	138
573.403	140
574.973	130
576.542	136
578.111	130
579.679	118
581.247	120
582.815	116
584.382	110
585.948	104
587.514	96
589.081	114
590.645	102
592.211	104
593.775	96
595.339	122
596.904	102
598.466	118
600.03	112
601.592	108
603.154	122
604.715	126
606.277	150
607.838	158
609.398	140
610.958	142
612.518	152
614.077	188
615.636	224
617.194	316
618.753	528
620.31	726
621.867	668
623.424	466
624.98	276
626.537	182
628.092	154
629.647	140
631.202	140
632.756	130
634.31	110
635.864	116
637.417	94
638.969	100
640.521	88
642.074	86
643.625	92
645.176	82
646.726	82
648.276	84
649.827	84
651.376	86
652.925	72
654.473	74
656.021	74
657.569	80
659.117	78
660.664	76
662.21	80
663.757	76
665.302	80
666.847	78
668.392	74
669.937	84
671.481	82
673.025	78
674.568	74
676.111	76
677.653	72
679.195	80
680.737	70
682.279	78
683.82	82
685.36	68
686.9	80
688.44	88
689.979	80
691.517	76
693.056	76
694.594	76
696.132	84
697.669	92
699.206	90
700.742	102
702.278	96
703.814	96
705.35	104
706.884	106
708.419	88
709.953	98
711.487	98
713.019	84
714.552	96
716.085	96
717.617	108
719.148	102
720.68	122
722.21	134
723.741	150
725.271	150
726.8	140
728.33	128
729.858	126
731.387	124
732.915	124
734.443	134
735.97	144
737.497	166
739.023	182
740.549	182
742.075	188
743.6	178
745.125	180
746.65	190
748.173	184
749.697	190
751.22	200
752.743	222
754.266	208
755.788	220
757.309	240
758.831	236
760.351	242
761.871	222
763.392	212
764.912	220
766.431	208
767.95	220
769.468	222
770.986	194
772.504	198
774.022	202
775.538	198
777.055	204
778.571	214
780.086	218
781.602	226
783.117	232
784.632	270
786.146	296
787.659	282
789.173	308
790.685	316
792.198	330
793.71	352
795.222	366
796.733	334
798.244	312
799.755	296
801.265	280
802.775	258
804.284	228
805.793	208
807.302	186
808.81	182
810.318	186
811.826	176
813.333	154
814.84	160
816.346	150
817.851	144
819.357	132
820.862	124
822.367	114
823.871	116
825.376	108
826.878	110
828.382	120
829.885	122
831.387	116
832.889	128
834.391	128
835.892	132
837.392	144
838.893	154
840.393	158
841.893	158
843.392	162
844.891	142
846.389	152
847.888	138
849.386	138
850.882	140
852.38	122
853.876	136
855.372	130
856.868	130
858.363	124
859.858	118
861.353	114
862.847	136
864.341	140
865.834	124
867.328	118
868.82	136
870.313	138
871.805	124
873.296	120
874.787	126
876.278	126
877.769	126
879.258	106
880.748	124
882.237	118
883.726	114
885.214	112
886.702	118
888.19	112
889.677	116
891.164	112
892.651	114
894.137	112
895.623	114
897.108	110
898.593	118
900.077	132
901.562	136
903.046	144
904.529	148
906.012	150
907.495	150
908.977	136
910.459	148
911.941	122
913.422	120
914.903	120
916.383	114
917.863	104
919.343	98
920.822	98
922.301	100
923.779	100
925.257	96
926.735	96
928.213	106
929.69	102
931.166	102
932.643	92
934.119	94
935.594	98
937.069	100
938.543	94
940.018	88
941.492	106
942.966	98
944.439	92
945.911	116
947.384	96
948.856	100
950.328	96
951.799	102
953.27	108
954.741	106
956.21	98
957.68	102
959.15	108
960.619	110
962.088	126
963.556	116
965.023	126
966.491	126
967.958	134
969.425	128
970.891	134
972.357	118
973.824	122
975.288	136
976.754	162
978.218	156
979.682	186
981.146	202
982.609	216
984.072	256
985.534	272
986.997	322
988.459	440
989.92	614
991.382	782
992.842	826
994.302	794
995.763	840
997.222	1230
998.681	1938
1000.14	2956
1001.6	3316
1003.06	2870
1004.52	1954
1005.97	1158
1007.43	692
1008.89	438
1010.34	334
1011.8	250
1013.25	218
1014.71	194
1016.16	186
1017.62	190
1019.07	192
1020.53	218
1021.98	262
1023.43	324
1024.89	412
1026.34	484
1027.79	652
1029.24	780
1030.69	846
1032.14	908
1033.59	774
1035.04	702
1036.49	530
1037.94	408
1039.39	318
1040.84	266
1042.29	242
1043.73	208
1045.18	184
1046.63	180
1048.08	168
1049.52	156
1050.97	164
1052.41	156
1053.86	160
1055.3	152
1056.75	144
1058.19	154
1059.64	162
1061.08	158
1062.52	166
1063.96	172
1065.41	174
1066.85	174
1068.29	178
1069.73	180
1071.17	178
1072.61	174
1074.05	168
1075.49	160
1076.93	176
1078.37	162
1079.81	176
1081.25	166
1082.68	164
1084.12	170
1085.56	166
1087	168
1088.43	174
1089.87	162
1091.3	168
1092.74	168
1094.17	172
1095.61	172
1097.04	166
1098.48	176
1099.91	166
1101.34	158
1102.78	166
1104.21	158
1105.64	142
1107.07	138
1108.5	132
1109.93	138
1111.36	134
1112.8	126
1114.22	130
1115.65	132
1117.08	114
1118.51	116
1119.94	114
1121.37	118
1122.8	108
1124.22	104
1125.65	102
1127.08	100
1128.5	104
1129.93	104
1131.35	102
1132.78	100
1134.2	118
1135.63	112
1137.05	124
1138.48	118
1139.9	130
1141.32	144
1142.75	144
1144.17	158
1145.59	162
1147.01	168
1148.43	192
1149.85	228
1151.27	278
1152.69	378
1154.11	418
1155.53	420
1156.95	396
1158.37	350
1159.79	280
1161.21	250
1162.62	234
1164.04	200
1165.46	218
1166.87	214
1168.29	222
1169.71	214
1171.12	228
1172.54	246
1173.95	262
1175.37	308
1176.78	352
1178.19	424
1179.61	468
1181.02	506
1182.43	524
1183.84	492
1185.26	464
1186.67	424
1188.08	438
1189.49	424
1190.9	450
1192.31	492
1193.72	474
1195.13	494
1196.54	510
1197.95	506
1199.36	514
1200.76	476
1202.17	474
1203.58	428
1204.99	414
1206.39	370
1207.8	340
1209.2	324
1210.61	290
1212.01	270
1213.42	240
1214.82	224
1216.23	226
1217.63	224
1219.03	202
1220.44	214
1221.84	198
1223.24	202
1224.64	204
1226.05	210
1227.45	178
1228.85	188
1230.25	188
1231.65	192
1233.05	174
1234.45	162
1235.85	174
1237.25	172
1238.64	178
1240.04	166
1241.44	176
1242.84	162
1244.23	156
1245.63	172
1247.03	188
1248.42	168
1249.82	172
1251.21	172
1252.61	166
1254	158
1255.4	174
1256.79	168
1258.19	168
1259.58	166
1260.97	164
1262.36	160
1263.76	174
1265.15	180
1266.54	168
1267.93	162
1269.32	176
1270.71	168
1272.1	174
1273.49	162
1274.88	176
1276.27	170
1277.66	176
1279.05	174
1280.43	180
1281.82	168
1283.21	174
1284.6	180
1285.98	178
1287.37	196
1288.75	192
1290.14	190
1291.53	184
1292.91	208
1294.29	206
1295.68	202
1297.06	206
1298.45	220
1299.83	204
1301.21	212
1302.59	210
1303.98	216
1305.36	224
1306.74	208
1308.12	226
1309.5	222
1310.88	234
1312.26	236
1313.64	234
1315.02	256
1316.4	238
1317.78	266
1319.16	256
1320.53	274
1321.91	278
1323.29	282
1324.67	302
1326.04	298
1327.42	294
1328.79	296
1330.17	296
1331.54	296
1332.92	314
1334.29	314
1335.67	302
1337.04	292
1338.42	278
1339.79	280
1341.16	274
1342.53	272
1343.91	274
1345.28	250
1346.65	274
1348.02	252
1349.39	266
1350.76	274
1352.13	272
1353.5	260
1354.87	264
1356.24	274
1357.61	256
1358.98	270
1360.34	272
1361.71	262
1363.08	290
1364.45	274
1365.81	262
1367.18	274
1368.54	280
1369.91	276
1371.28	290
1372.64	268
1374.01	290
1375.37	294
1376.73	286
1378.1	284
1379.46	254
1380.82	262
1382.19	272
1383.55	258
1384.91	250
1386.27	252
1387.63	240
1388.99	250
1390.35	236
1391.71	244
1393.07	238
1394.43	234
1395.79	222
1397.15	238
1398.51	240
1399.87	238
1401.23	236
1402.58	228
1403.94	244
1405.3	242
1406.65	232
1408.01	236
1409.37	232
1410.72	226
1412.08	220
1413.43	224
1414.79	224
1416.14	222
1417.49	220
1418.85	228
1420.2	216
1421.55	224
1422.91	218
1424.26	214
1425.61	222
1426.96	218
1428.31	226
1429.66	228
1431.01	216
1432.36	242
1433.71	248
1435.06	242
1436.41	258
1437.76	268
1439.11	274
1440.46	280
1441.81	286
1443.15	298
1444.5	312
1445.85	318
1447.19	332
1448.54	350
1449.89	328
1451.23	318
1452.58	316
1453.92	312
1455.27	296
1456.61	274
1457.95	250
1459.3	232
1460.64	238
1461.98	216
1463.33	212
1464.67	208
1466.01	204
1467.35	208
1468.69	208
1470.03	188
1471.37	182
1472.71	188
1474.05	186
1475.39	186
1476.73	190
1478.07	184
1479.41	194
1480.75	186
1482.09	176
1483.42	180
1484.76	192
1486.1	188
1487.43	178
1488.77	176
1490.11	196
1491.44	174
1492.78	190
1494.11	202
1495.45	184
1496.78	192
1498.12	174
1499.45	174
1500.78	174
1502.11	172
1503.45	178
1504.78	158
1506.11	160
1507.44	164
1508.77	166
1510.11	162
1511.44	168
1512.77	162
1514.1	166
1515.43	164
1516.76	156
1518.08	162
1519.41	158
1520.74	152
1522.07	168
1523.4	160
1524.72	154
1526.05	164
1527.38	166
1528.7	158
1530.03	168
1531.36	170
1532.68	168
1534.01	168
1535.33	160
1536.66	166
1537.98	144
1539.3	172
1540.63	160
1541.95	152
1543.27	166
1544.6	162
1545.92	164
1547.24	156
1548.56	164
1549.88	172
1551.2	172
1552.52	172
1553.84	150
1555.17	144
1556.48	174
1557.8	156
1559.12	162
1560.44	162
1561.76	162
1563.08	176
1564.4	168
1565.71	170
1567.03	168
1568.35	182
1569.66	184
1570.98	180
1572.29	186
1573.61	202
1574.93	206
1576.24	220
1577.55	244
1578.87	270
1580.18	330
1581.5	398
1582.81	426
1584.12	426
1585.43	360
1586.75	292
1588.06	262
1589.37	238
1590.68	268
1591.99	252
1593.3	280
1594.61	312
1595.92	362
1597.23	430
1598.54	512
1599.85	606
1601.16	660
1602.47	660
1603.78	642
1605.08	540
1606.39	472
1607.7	390
1609	318
1610.31	272
1611.62	244
1612.92	222
1614.23	218
1615.53	202
1616.84	184
1618.14	172
1619.45	182
1620.75	162
1622.06	168
1623.36	162
1624.66	160
1625.96	170
1627.27	162
1628.57	164
1629.87	156
1631.17	158
1632.47	154
1633.77	160
1635.07	152
1636.37	140
1637.67	148
1638.97	154
1640.27	144
1641.57	144
1642.87	164
1644.17	160
1645.47	166
1646.76	158
1648.06	158
1649.36	146
1650.66	156
1651.95	150
1653.25	150
1654.54	146
1655.84	138
1657.13	150
1658.43	136
1659.72	136
1661.02	124
1662.31	126
1663.6	140
1664.9	136
1666.19	134
1667.48	138
1668.78	134
1670.07	134
1671.36	132
1672.65	132
1673.94	138
1675.23	132
1676.52	132
1677.81	124
1679.1	136
1680.39	126
1681.68	132
1682.97	122
1684.26	122
1685.55	122
1686.83	130
1688.12	134
1689.41	124
1690.7	120
1691.98	132
1693.27	132
1694.55	130
1695.84	122
1697.13	114
1698.41	126
1699.69	122
1700.98	114
1702.26	122