File: Mixture_Classification/Jesse_Dataset_v2/Pure Raman/Polystyrene/785nm/ps-ppo-6jan25-1,0000-map3_Y05_X02.txt
204.377	842
206.045	846
207.713	872
209.38	904
211.048	900
212.715	910
214.381	922
216.047	940
217.712	924
219.377	944
221.042	906
222.706	896
224.369	906
226.032	848
227.695	820
229.357	768
231.019	732
232.68	660
234.341	634
236.001	596
237.661	544
239.321	506
240.98	448
242.639	420
244.297	392
245.955	366
247.612	342
249.268	332
250.924	312
252.58	294
254.236	306
255.891	282
257.546	288
259.2	290
260.854	274
262.507	278
264.16	268
265.812	282
267.463	264
269.115	270
270.766	252
272.417	238
274.067	242
275.717	248
277.365	244
279.014	232
280.663	218
282.311	218
283.958	220
285.605	210
287.252	216
288.898	206
290.543	192
292.188	188
293.833	178
295.477	196
297.121	184
298.765	176
300.407	176
302.05	172
303.693	184
305.334	180
306.975	176
308.615	176
310.256	172
311.896	172
313.535	180
315.175	176
316.813	174
318.451	190
320.089	180
321.726	186
323.362	174
324.999	198
326.635	166
328.271	188
329.905	178
331.54	166
333.174	180
334.807	178
336.441	164
338.074	172
339.707	172
341.338	172
342.969	164
344.601	172
346.231	172
347.861	160
349.491	168
351.12	158
352.749	166
354.378	154
356.006	160
357.633	156
359.261	144
360.887	154
362.513	170
364.139	138
365.764	146
367.39	160
369.014	160
370.638	160
372.261	166
373.884	166
375.508	158
377.13	184
378.752	176
380.373	186
381.994	172
383.615	182
385.235	170
386.854	196
388.473	192
390.092	198
391.711	202
393.328	196
394.947	192
396.564	192
398.181	214
399.797	212
401.412	210
403.027	242
404.642	226
406.257	248
407.871	222
409.484	226
411.098	222
412.711	216
414.323	206
415.935	190
417.547	196
419.158	188
420.768	182
422.378	172
423.988	170
425.597	174
427.206	160
428.814	158
430.422	160
432.03	152
433.637	148
435.243	150
436.85	142
438.456	150
440.062	140
441.666	136
443.271	148
444.876	136
446.479	144
448.082	114
449.685	134
451.287	134
452.89	122
454.492	128
456.092	122
457.693	114
459.293	126
460.893	114
462.492	116
464.092	112
465.691	118
467.288	108
468.887	112
470.483	108
472.081	116
473.677	108
475.273	112
476.869	106
478.463	98
480.059	110
481.653	98
483.247	116
484.84	112
486.433	102
488.026	106
489.618	104
491.21	102
492.801	108
494.392	108
495.983	102
497.573	114
499.162	110
500.752	104
502.341	112
503.929	118
505.517	118
507.105	110
508.692	120
510.279	102
511.865	122
513.45	112
515.037	124
516.621	116
518.206	118
519.79	118
521.374	114
522.957	128
524.54	122
526.123	108
527.705	126
529.287	134
530.868	134
532.448	136
534.029	138
535.609	136
537.188	152
538.768	158
540.346	162
541.925	146
543.502	150
545.08	146
546.657	142
548.234	152
549.81	130
551.386	140
552.961	134
554.536	142
556.11	154
557.684	146
559.258	134
560.832	136
562.405	132
563.977	130
565.55	142
567.12	134
568.692	134
570.263	144
571.833	148
573.403	142
574.973	142
576.542	140
578.111	138
579.679	122
581.247	138
582.815	120
584.382	122
585.948	116
587.514	126
589.081	122
590.645	114
592.211	116
593.775	112
595.339	114
596.904	116
598.466	118
600.03	126
601.592	124
603.154	122
604.715	134
606.277	146
607.838	162
609.398	150
610.958	146
612.518	166
614.077	192
615.636	224
617.194	326
618.753	498
620.31	726
621.867	714
623.424	474
624.98	280
626.537	212
628.092	176
629.647	152
631.202	146
632.756	132
634.31	120
635.864	108
637.417	102
638.969	104
640.521	98
642.074	94
643.625	88
645.176	88
646.726	94
648.276	86
649.827	88
651.376	88
652.925	88
654.473	90
656.021	92
657.569	84
659.117	80
660.664	84
662.21	84
663.757	86
665.302	84
666.847	82
668.392	84
669.937	86
671.481	88
673.025	88
674.568	84
676.111	84
677.653	80
679.195	88
680.737	78
682.279	88
683.82	76
685.36	84
686.9	88
688.44	82
689.979	80
691.517	82
693.056	82
694.594	88
696.132	92
697.669	90
699.206	90
700.742	104
702.278	120
703.814	100
705.35	100
706.884	98
708.419	98
709.953	110
711.487	114
713.019	96
714.552	96
716.085	104
717.617	104
719.148	116
720.68	114
722.21	146
723.741	156
725.271	166
726.8	144
728.33	142
729.858	132
731.387	134
732.915	130
734.443	134
735.97	156
737.497	172
739.023	184
740.549	186
742.075	186
743.6	188
745.125	196
746.65	192
748.173	202
749.697	200
751.22	204
752.743	210
754.266	216
755.788	230
757.309	240
758.831	232
760.351	238
761.871	244
763.392	226
764.912	220
766.431	226
767.95	206
769.468	192
770.986	216
772.504	178
774.022	206
775.538	200
777.055	206
778.571	218
780.086	230
781.602	232
783.117	252
784.632	250
786.146	274
787.659	294
789.173	310
790.685	294
792.198	328
793.71	338
795.222	356
796.733	356
798.244	334
799.755	312
801.265	290
802.775	256
804.284	228
805.793	228
807.302	188
808.81	202
810.318	178
811.826	170
813.333	160
814.84	150
816.346	158
817.851	142
819.357	130
820.862	126
822.367	130
823.871	122
825.376	112
826.878	128
828.382	122
829.885	118
831.387	112
832.889	126
834.391	130
835.892	134
837.392	158
838.893	156
840.393	170
841.893	160
843.392	164
844.891	148
846.389	162
847.888	152
849.386	154
850.882	134
852.38	124
853.876	136
855.372	132
856.868	134
858.363	132
859.858	128
861.353	134
862.847	112
864.341	124
865.834	132
867.328	128
868.82	132
870.313	130
871.805	120
873.296	122
874.787	130
876.278	120
877.769	130
879.258	120
880.748	122
882.237	120
883.726	114
885.214	118
886.702	116
888.19	112
889.677	114
891.164	116
892.651	116
894.137	118
895.623	114
897.108	120
898.593	134
900.077	132
901.562	124
903.046	142
904.529	148
906.012	158
907.495	138
908.977	152
910.459	134
911.941	132
913.422	128
914.903	122
916.383	112
917.863	114
919.343	110
920.822	114
922.301	100
923.779	104
925.257	92
926.735	98
928.213	102
929.69	96
931.166	102
932.643	102
934.119	102
935.594	100
937.069	94
938.543	110
940.018	110
941.492	102
942.966	118
944.439	112
945.911	112
947.384	96
948.856	98
950.328	102
951.799	100
953.27	112
954.741	104
956.21	112
957.68	114
959.15	116
960.619	120
962.088	122
963.556	126
965.023	136
966.491	128
967.958	128
969.425	122
970.891	132
972.357	128
973.824	130
975.288	144
976.754	152
978.218	172
979.682	196
981.146	192
982.609	232
984.072	240
985.534	280
986.997	324
988.459	402
989.92	576
991.382	768
992.842	808
994.302	742
995.763	842
997.222	1222
998.681	1976
1000.14	2874
1001.6	3334
1003.06	2890
1004.52	1974
1005.97	1214
1007.43	694
1008.89	450
1010.34	308
1011.8	264
1013.25	206
1014.71	196
1016.16	202
1017.62	184
1019.07	208
1020.53	212
1021.98	252
1023.43	318
1024.89	410
1026.34	480
1027.79	616
1029.24	776
1030.69	876
1032.14	910
1033.59	830
1035.04	674
1036.49	498
1037.94	388
1039.39	330
1040.84	268
1042.29	244
1043.73	200
1045.18	188
1046.63	176
1048.08	178
1049.52	164
1050.97	164
1052.41	166
1053.86	166
1055.3	158
1056.75	154
1058.19	152
1059.64	152
1061.08	166
1062.52	158
1063.96	164
1065.41	188
1066.85	178
1068.29	178
1069.73	172
1071.17	178
1072.61	178
1074.05	170
1075.49	170
1076.93	178
1078.37	174
1079.81	166
1081.25	176
1082.68	168
1084.12	154
1085.56	160
1087	168
1088.43	166
1089.87	168
1091.3	184
1092.74	178
1094.17	166
1095.61	168
1097.04	176
1098.48	168
1099.91	182
1101.34	174
1102.78	156
1104.21	150
1105.64	142
1107.07	154
1108.5	136
1109.93	140
1111.36	124
1112.8	126
1114.22	126
1115.65	132
1117.08	126
1118.51	126
1119.94	118
1121.37	110
1122.8	110
1124.22	98
1125.65	102
1127.08	110
1128.5	116
1129.93	104
1131.35	112
1132.78	114
1134.2	116
1135.63	110
1137.05	114
1138.48	116
1139.9	126
1141.32	132
1142.75	140
1144.17	150
1145.59	156
1147.01	178
1148.43	178
1149.85	240
1151.27	296
1152.69	358
1154.11	390
1155.53	422
1156.95	400
1158.37	344
1159.79	302
1161.21	256
1162.62	226
1164.04	214
1165.46	210
1166.87	210
1168.29	196
1169.71	222
1171.12	226
1172.54	242
1173.95	256
1175.37	312
1176.78	340
1178.19	402
1179.61	492
1181.02	522
1182.43	542
1183.84	506
1185.26	470
1186.67	454
1188.08	408
1189.49	426
1190.9	472
1192.31	478
1193.72	494
1195.13	506
1196.54	520
1197.95	508
1199.36	536
1200.76	488
1202.17	462
1203.58	426
1204.99	416
1206.39	386
1207.8	342
1209.2	314
1210.61	296
1212.01	250
1213.42	260
1214.82	240
1216.23	210
1217.63	214
1219.03	194
1220.44	202
1221.84	208
1223.24	212
1224.64	204
1226.05	192
1227.45	188
1228.85	198
1230.25	190
1231.65	182
1233.05	184
1234.45	162
1235.85	170
1237.25	170
1238.64	160
1240.04	182
1241.44	164
1242.84	174
1244.23	180
1245.63	168
1247.03	170
1248.42	174
1249.82	172
1251.21	168
1252.61	162
1254	158
1255.4	168
1256.79	164
1258.19	178
1259.58	170
1260.97	158
1262.36	180
1263.76	162
1265.15	160
1266.54	170
1267.93	176
1269.32	172
1270.71	166
1272.1	188
1273.49	168
1274.88	154
1276.27	168
1277.66	166
1279.05	172
1280.43	164
1281.82	168
1283.21	164
1284.6	178
1285.98	184
1287.37	188
1288.75	184
1290.14	190
1291.53	194
1292.91	188
1294.29	192
1295.68	210
1297.06	192
1298.45	196
1299.83	180
1301.21	214
1302.59	204
1303.98	214
1305.36	210
1306.74	232
1308.12	230
1309.5	234
1310.88	224
1312.26	232
1313.64	234
1315.02	252
1316.4	256
1317.78	246
1319.16	262
1320.53	270
1321.91	262
1323.29	272
1324.67	274
1326.04	284
1327.42	290
1328.79	298
1330.17	294
1331.54	300
1332.92	288
1334.29	296
1335.67	292
1337.04	290
1338.42	262
1339.79	268
1341.16	282
1342.53	272
1343.91	262
1345.28	260
1346.65	260
1348.02	250
1349.39	262
1350.76	248
1352.13	244
1353.5	268
1354.87	260
1356.24	266
1357.61	256
1358.98	270
1360.34	254
1361.71	272
1363.08	268
1364.45	264
1365.81	258
1367.18	268
1368.54	276
1369.91	284
1371.28	276
1372.64	262
1374.01	284
1375.37	272
1376.73	280
1378.1	266
1379.46	266
1380.82	266
1382.19	262
1383.55	250
1384.91	244
1386.27	248
1387.63	246
1388.99	234
1390.35	232
1391.71	248
1393.07	236
1394.43	228
1395.79	226
1397.15	234
1398.51	224
1399.87	226
1401.23	224
1402.58	218
1403.94	230
1405.3	244
1406.65	228
1408.01	214
1409.37	224
1410.72	214
1412.08	218
1413.43	222
1414.79	210
1416.14	212
1417.49	226
1418.85	218
1420.2	234
1421.55	216
1422.91	198
1424.26	208
1425.61	212
1426.96	204
1428.31	224
1429.66	206
1431.01	224
1432.36	226
1433.71	238
1435.06	250
1436.41	246
1437.76	258
1439.11	278
1440.46	278
1441.81	300
1443.15	300
1444.5	314
1445.85	316
1447.19	332
1448.54	328
1449.89	338
1451.23	332
1452.58	332
1453.92	304
1455.27	304
1456.61	278
1457.95	262
1459.3	244
1460.64	204
1461.98	210
1463.33	202
1464.67	198
1466.01	202
1467.35	184
1468.69	196
1470.03	190
1471.37	184
1472.71	186
1474.05	186
1475.39	182
1476.73	176
1478.07	170
1479.41	174
1480.75	174
1482.09	176
1483.42	182
1484.76	178
1486.1	180
1487.43	166
1488.77	178
1490.11	166
1491.44	180
1492.78	190
1494.11	188
1495.45	178
1496.78	174
1498.12	178
1499.45	166
1500.78	180
1502.11	154
1503.45	160
1504.78	162
1506.11	168
1507.44	158
1508.77	168
1510.11	182
1511.44	158
1512.77	162
1514.1	166
1515.43	150
1516.76	168
1518.08	148
1519.41	162
1520.74	166
1522.07	160
1523.4	156
1524.72	158
1526.05	150
1527.38	154
1528.7	170
1530.03	158
1531.36	162
1532.68	152
1534.01	178
1535.33	152
1536.66	166
1537.98	160
1539.3	156
1540.63	158
1541.95	152
1543.27	150
1544.6	166
1545.92	170
1547.24	166
1548.56	154
1549.88	156
1551.2	164
1552.52	162
1553.84	162
1555.17	166
1556.48	164
1557.8	154
1559.12	164
1560.44	160
1561.76	158
1563.08	164
1564.4	174
1565.71	162
1567.03	168
1568.35	160
1569.66	174
1570.98	178
1572.29	194
1573.61	202
1574.93	208
1576.24	222
1577.55	232
1578.87	254
1580.18	320
1581.5	368
1582.81	416
1584.12	406
1585.43	358
1586.75	300
1588.06	270
1589.37	242
1590.68	240
1591.99	250
1593.3	280
1594.61	306
1595.92	338
1597.23	422
1598.54	526
1599.85	600
1601.16	666
1602.47	692
1603.78	608
1605.08	558
1606.39	444
1607.7	384
1609	326
1610.31	276
1611.62	230
1612.92	220
1614.23	204
1615.53	202
1616.84	186
1618.14	192
1619.45	180
1620.75	176
1622.06	160
1623.36	176
1624.66	168
1625.96	154
1627.27	160
1628.57	146
1629.87	156
1631.17	142
1632.47	158
1633.77	160
1635.07	146
1636.37	152
1637.67	152
1638.97	152
1640.27	152
1641.57	160
1642.87	154
1644.17	162
1645.47	162
1646.76	142
1648.06	150
1649.36	148
1650.66	146
1651.95	150
1653.25	148
1654.54	150
1655.84	146
1657.13	140
1658.43	136
1659.72	138
1661.02	136
1662.31	128
1663.6	120
1664.9	132
1666.19	128
1667.48	124
1668.78	128
1670.07	130
1671.36	142
1672.65	142
1673.94	132
1675.23	126
1676.52	126
1677.81	132
1679.1	124
1680.39	130
1681.68	128
1682.97	130
1684.26	134
1685.55	126
1686.83	120
1688.12	132
1689.41	120
1690.7	120
1691.98	122
1693.27	122
1694.55	122
1695.84	110
1697.13	120
1698.41	116
1699.69	116
1700.98	122
1702.26	124