File: Mixture_Classification/Jesse_Dataset_v2/Pure Raman/Polystyrene/785nm/ps-ppo-6jan25-1,0000-map3_Y05_X06.txt
204.377	824
206.045	836
207.713	866
209.38	856
211.048	922
212.715	882
214.381	884
216.047	916
217.712	930
219.377	902
221.042	906
222.706	888
224.369	896
226.032	822
227.695	842
229.357	764
231.019	734
232.68	662
234.341	628
236.001	600
237.661	544
239.321	512
240.98	446
242.639	426
244.297	400
245.955	356
247.612	344
249.268	306
250.924	298
252.58	298
254.236	296
255.891	284
257.546	284
259.2	284
260.854	262
262.507	262
264.16	258
265.812	260
267.463	244
269.115	252
270.766	250
272.417	234
274.067	234
275.717	242
277.365	212
279.014	234
280.663	216
282.311	220
283.958	224
285.605	206
287.252	210
288.898	188
290.543	178
292.188	180
293.833	180
295.477	164
297.121	182
298.765	174
300.407	154
302.05	176
303.693	168
305.334	172
306.975	164
308.615	166
310.256	166
311.896	180
313.535	172
315.175	162
316.813	158
318.451	162
320.089	164
321.726	178
323.362	180
324.999	172
326.635	172
328.271	168
329.905	178
331.54	166
333.174	162
334.807	184
336.441	174
338.074	176
339.707	158
341.338	154
342.969	154
344.601	164
346.231	156
347.861	154
349.491	146
351.12	154
352.749	142
354.378	138
356.006	150
357.633	152
359.261	140
360.887	150
362.513	144
364.139	140
365.764	136
367.39	138
369.014	160
370.638	162
372.261	160
373.884	156
375.508	158
377.13	152
378.752	154
380.373	158
381.994	162
383.615	168
385.235	182
386.854	170
388.473	180
390.092	188
391.711	182
393.328	200
394.947	190
396.564	186
398.181	208
399.797	200
401.412	212
403.027	222
404.642	232
406.257	242
407.871	240
409.484	224
411.098	210
412.711	202
414.323	186
415.935	172
417.547	172
419.158	182
420.768	158
422.378	166
423.988	160
425.597	152
427.206	150
428.814	148
430.422	148
432.03	148
433.637	142
435.243	142
436.85	150
438.456	130
440.062	134
441.666	142
443.271	120
444.876	126
446.479	126
448.082	132
449.685	120
451.287	128
452.89	118
454.492	116
456.092	118
457.693	116
459.293	106
460.893	98
462.492	110
464.092	108
465.691	104
467.288	106
468.887	102
470.483	104
472.081	94
473.677	108
475.273	90
476.869	106
478.463	100
480.059	102
481.653	94
483.247	102
484.84	102
486.433	98
488.026	108
489.618	96
491.21	98
492.801	100
494.392	102
495.983	100
497.573	108
499.162	110
500.752	102
502.341	112
503.929	112
505.517	110
507.105	98
508.692	112
510.279	106
511.865	102
513.45	110
515.037	106
516.621	114
518.206	98
519.79	114
521.374	106
522.957	120
524.54	116
526.123	120
527.705	120
529.287	110
530.868	128
532.448	132
534.029	126
535.609	122
537.188	128
538.768	146
540.346	158
541.925	154
543.502	154
545.08	154
546.657	150
548.234	138
549.81	138
551.386	136
552.961	132
554.536	134
556.11	134
557.684	138
559.258	134
560.832	130
562.405	128
563.977	136
565.55	134
567.12	142
568.692	140
570.263	136
571.833	144
573.403	144
574.973	136
576.542	132
578.111	134
579.679	126
581.247	122
582.815	114
584.382	116
585.948	106
587.514	112
589.081	118
590.645	102
592.211	112
593.775	114
595.339	114
596.904	124
598.466	116
600.03	114
601.592	112
603.154	110
604.715	128
606.277	146
607.838	152
609.398	150
610.958	148
612.518	158
614.077	192
615.636	238
617.194	324
618.753	524
620.31	734
621.867	704
623.424	468
624.98	288
626.537	208
628.092	164
629.647	148
631.202	142
632.756	110
634.31	110
635.864	108
637.417	102
638.969	94
640.521	90
642.074	80
643.625	86
645.176	88
646.726	80
648.276	68
649.827	78
651.376	80
652.925	78
654.473	78
656.021	68
657.569	76
659.117	80
660.664	84
662.21	80
663.757	74
665.302	78
666.847	72
668.392	80
669.937	76
671.481	78
673.025	74
674.568	74
676.111	82
677.653	70
679.195	76
680.737	78
682.279	72
683.82	74
685.36	76
686.9	70
688.44	72
689.979	72
691.517	78
693.056	84
694.594	82
696.132	74
697.669	78
699.206	96
700.742	94
702.278	104
703.814	98
705.35	100
706.884	104
708.419	98
709.953	96
711.487	98
713.019	100
714.552	96
716.085	92
717.617	92
719.148	108
720.68	120
722.21	134
723.741	140
725.271	158
726.8	140
728.33	124
729.858	118
731.387	126
732.915	126
734.443	138
735.97	150
737.497	166
739.023	170
740.549	192
742.075	180
743.6	180
745.125	192
746.65	180
748.173	194
749.697	192
751.22	186
752.743	216
754.266	216
755.788	232
757.309	218
758.831	218
760.351	232
761.871	228
763.392	228
764.912	230
766.431	228
767.95	226
769.468	204
770.986	190
772.504	196
774.022	202
775.538	192
777.055	204
778.571	206
780.086	218
781.602	208
783.117	232
784.632	262
786.146	286
787.659	302
789.173	308
790.685	340
792.198	330
793.71	356
795.222	336
796.733	344
798.244	350
799.755	308
801.265	280
802.775	258
804.284	234
805.793	200
807.302	194
808.81	170
810.318	184
811.826	170
813.333	154
814.84	160
816.346	140
817.851	134
819.357	136
820.862	118
822.367	124
823.871	116
825.376	104
826.878	108
828.382	108
829.885	110
831.387	120
832.889	126
834.391	124
835.892	136
837.392	138
838.893	150
840.393	156
841.893	154
843.392	160
844.891	158
846.389	142
847.888	130
849.386	132
850.882	130
852.38	130
853.876	132
855.372	126
856.868	116
858.363	126
859.858	108
861.353	116
862.847	128
864.341	110
865.834	126
867.328	120
868.82	118
870.313	120
871.805	130
873.296	118
874.787	130
876.278	116
877.769	124
879.258	108
880.748	118
882.237	108
883.726	100
885.214	110
886.702	118
888.19	110
889.677	106
891.164	114
892.651	102
894.137	110
895.623	120
897.108	126
898.593	116
900.077	128
901.562	140
903.046	126
904.529	136
906.012	142
907.495	132
908.977	130
910.459	130
911.941	138
913.422	112
914.903	118
916.383	100
917.863	106
919.343	106
920.822	102
922.301	100
923.779	94
925.257	102
926.735	100
928.213	90
929.69	92
931.166	98
932.643	94
934.119	92
935.594	94
937.069	94
938.543	92
940.018	96
941.492	98
942.966	106
944.439	96
945.911	98
947.384	86
948.856	114
950.328	96
951.799	106
953.27	98
954.741	100
956.21	102
957.68	108
959.15	116
960.619	108
962.088	128
963.556	126
965.023	122
966.491	126
967.958	132
969.425	128
970.891	132
972.357	136
973.824	144
975.288	158
976.754	146
978.218	166
979.682	170
981.146	180
982.609	212
984.072	242
985.534	270
986.997	314
988.459	420
989.92	594
991.382	740
992.842	818
994.302	802
995.763	868
997.222	1230
998.681	1972
1000.14	2898
1001.6	3356
1003.06	2948
1004.52	2016
1005.97	1164
1007.43	704
1008.89	438
1010.34	314
1011.8	248
1013.25	206
1014.71	190
1016.16	188
1017.62	192
1019.07	200
1020.53	230
1021.98	250
1023.43	306
1024.89	396
1026.34	472
1027.79	628
1029.24	794
1030.69	890
1032.14	906
1033.59	832
1035.04	662
1036.49	504
1037.94	426
1039.39	310
1040.84	264
1042.29	220
1043.73	198
1045.18	202
1046.63	172
1048.08	158
1049.52	168
1050.97	164
1052.41	166
1053.86	160
1055.3	146
1056.75	150
1058.19	146
1059.64	158
1061.08	170
1062.52	164
1063.96	160
1065.41	172
1066.85	172
1068.29	178
1069.73	178
1071.17	172
1072.61	168
1074.05	174
1075.49	182
1076.93	176
1078.37	158
1079.81	168
1081.25	166
1082.68	170
1084.12	176
1085.56	168
1087	158
1088.43	166
1089.87	156
1091.3	166
1092.74	168
1094.17	168
1095.61	158
1097.04	172
1098.48	160
1099.91	168
1101.34	168
1102.78	164
1104.21	144
1105.64	142
1107.07	132
1108.5	140
1109.93	140
1111.36	136
1112.8	126
1114.22	120
1115.65	122
1117.08	120
1118.51	118
1119.94	114
1121.37	128
1122.8	122
1124.22	112
1125.65	114
1127.08	100
1128.5	112
1129.93	112
1131.35	106
1132.78	112
1134.2	116
1135.63	114
1137.05	122
1138.48	116
1139.9	122
1141.32	132
1142.75	144
1144.17	154
1145.59	152
1147.01	164
1148.43	190
1149.85	216
1151.27	298
1152.69	352
1154.11	400
1155.53	414
1156.95	388
1158.37	352
1159.79	296
1161.21	254
1162.62	216
1164.04	216
1165.46	214
1166.87	198
1168.29	208
1169.71	218
1171.12	224
1172.54	238
1173.95	256
1175.37	280
1176.78	352
1178.19	444
1179.61	474
1181.02	520
1182.43	528
1183.84	496
1185.26	450
1186.67	440
1188.08	436
1189.49	418
1190.9	452
1192.31	476
1193.72	476
1195.13	498
1196.54	500
1197.95	490
1199.36	498
1200.76	470
1202.17	460
1203.58	436
1204.99	416
1206.39	384
1207.8	344
1209.2	306
1210.61	274
1212.01	274
1213.42	252
1214.82	250
1216.23	218
1217.63	230
1219.03	202
1220.44	206
1221.84	210
1223.24	208
1224.64	204
1226.05	184
1227.45	200
1228.85	192
1230.25	184
1231.65	178
1233.05	174
1234.45	168
1235.85	174
1237.25	182
1238.64	178
1240.04	162
1241.44	172
1242.84	174
1244.23	170
1245.63	172
1247.03	158
1248.42	162
1249.82	178
1251.21	170
1252.61	176
1254	152
1255.4	166
1256.79	168
1258.19	166
1259.58	160
1260.97	170
1262.36	158
1263.76	170
1265.15	164
1266.54	166
1267.93	178
1269.32	178
1270.71	172
1272.1	172
1273.49	166
1274.88	160
1276.27	172
1277.66	164
1279.05	182
1280.43	166
1281.82	170
1283.21	180
1284.6	180
1285.98	176
1287.37	182
1288.75	190
1290.14	188
1291.53	194
1292.91	182
1294.29	194
1295.68	206
1297.06	206
1298.45	208
1299.83	214
1301.21	206
1302.59	212
1303.98	220
1305.36	216
1306.74	220
1308.12	234
1309.5	238
1310.88	238
1312.26	216
1313.64	244
1315.02	242
1316.4	250
1317.78	264
1319.16	264
1320.53	282
1321.91	272
1323.29	280
1324.67	284
1326.04	310
1327.42	302
1328.79	294
1330.17	302
1331.54	302
1332.92	296
1334.29	298
1335.67	312
1337.04	302
1338.42	282
1339.79	282
1341.16	288
1342.53	264
1343.91	280
1345.28	266
1346.65	262
1348.02	274
1349.39	272
1350.76	276
1352.13	266
1353.5	258
1354.87	264
1356.24	260
1357.61	264
1358.98	276
1360.34	260
1361.71	260
1363.08	278
1364.45	272
1365.81	274
1367.18	276
1368.54	288
1369.91	290
1371.28	268
1372.64	282
1374.01	282
1375.37	280
1376.73	266
1378.1	278
1379.46	266
1380.82	276
1382.19	258
1383.55	266
1384.91	244
1386.27	248
1387.63	250
1388.99	244
1390.35	236
1391.71	230
1393.07	238
1394.43	222
1395.79	234
1397.15	228
1398.51	242
1399.87	226
1401.23	236
1402.58	232
1403.94	236
1405.3	232
1406.65	228
1408.01	236
1409.37	222
1410.72	228
1412.08	226
1413.43	226
1414.79	228
1416.14	224
1417.49	222
1418.85	228
1420.2	214
1421.55	222
1422.91	216
1424.26	228
1425.61	222
1426.96	212
1428.31	218
1429.66	228
1431.01	226
1432.36	240
1433.71	226
1435.06	242
1436.41	258
1437.76	268
1439.11	282
1440.46	274
1441.81	270
1443.15	298
1444.5	332
1445.85	322
1447.19	332
1448.54	334
1449.89	320
1451.23	332
1452.58	312
1453.92	318
1455.27	282
1456.61	288
1457.95	266
1459.3	228
1460.64	218
1461.98	218
1463.33	204
1464.67	190
1466.01	190
1467.35	194
1468.69	188
1470.03	182
1471.37	190
1472.71	198
1474.05	198
1475.39	186
1476.73	190
1478.07	196
1479.41	188
1480.75	180
1482.09	200
1483.42	186
1484.76	176
1486.1	174
1487.43	180
1488.77	190
1490.11	188
1491.44	186
1492.78	188
1494.11	188
1495.45	172
1496.78	186
1498.12	184
1499.45	174
1500.78	180
1502.11	172
1503.45	174
1504.78	170
1506.11	164
1507.44	168
1508.77	172
1510.11	166
1511.44	174
1512.77	164
1514.1	164
1515.43	166
1516.76	178
1518.08	160
1519.41	164
1520.74	166
1522.07	164
1523.4	160
1524.72	154
1526.05	166
1527.38	166
1528.7	172
1530.03	156
1531.36	162
1532.68	162
1534.01	168
1535.33	152
1536.66	166
1537.98	156
1539.3	166
1540.63	168
1541.95	162
1543.27	160
1544.6	166
1545.92	152
1547.24	152
1548.56	152
1549.88	166
1551.2	164
1552.52	162
1553.84	154
1555.17	158
1556.48	166
1557.8	182
1559.12	150
1560.44	162
1561.76	178
1563.08	164
1564.4	174
1565.71	170
1567.03	164
1568.35	176
1569.66	174
1570.98	192
1572.29	194
1573.61	202
1574.93	200
1576.24	218
1577.55	232
1578.87	268
1580.18	330
1581.5	386
1582.81	414
1584.12	410
1585.43	348
1586.75	296
1588.06	260
1589.37	244
1590.68	258
1591.99	272
1593.3	276
1594.61	308
1595.92	356
1597.23	430
1598.54	532
1599.85	612
1601.16	694
1602.47	698
1603.78	630
1605.08	558
1606.39	478
1607.7	380
1609	326
1610.31	284
1611.62	256
1612.92	236
1614.23	210
1615.53	192
1616.84	190
1618.14	184
1619.45	174
1620.75	166
1622.06	174
1623.36	170
1624.66	176
1625.96	162
1627.27	146
1628.57	156
1629.87	148
1631.17	150
1632.47	150
1633.77	144
1635.07	148
1636.37	148
1637.67	146
1638.97	148
1640.27	142
1641.57	162
1642.87	146
1644.17	150
1645.47	138
1646.76	166
1648.06	154
1649.36	150
1650.66	140
1651.95	138
1653.25	152
1654.54	146
1655.84	140
1657.13	140
1658.43	134
1659.72	132
1661.02	132
1662.31	126
1663.6	130
1664.9	124
1666.19	124
1667.48	138
1668.78	136
1670.07	130
1671.36	134
1672.65	130
1673.94	128
1675.23	136
1676.52	130
1677.81	136
1679.1	132
1680.39	134
1681.68	130
1682.97	132
1684.26	134
1685.55	126
1686.83	130
1688.12	118
1689.41	124
1690.7	122
1691.98	128
1693.27	120
1694.55	112
1695.84	116
1697.13	126
1698.41	124
1699.69	120
1700.98	110
1702.26	122