File: Mixture_Classification/Jesse_Dataset_v2/Pure Raman/Polystyrene/785nm/ps-ppo-6jan25-1,0000-map3_Y10_X05.txt
204.377	816
206.045	852
207.713	850
209.38	840
211.048	894
212.715	892
214.381	902
216.047	948
217.712	928
219.377	892
221.042	900
222.706	894
224.369	882
226.032	856
227.695	842
229.357	768
231.019	742
232.68	696
234.341	626
236.001	596
237.661	568
239.321	510
240.98	460
242.639	414
244.297	390
245.955	352
247.612	336
249.268	310
250.924	310
252.58	306
254.236	286
255.891	280
257.546	264
259.2	284
260.854	256
262.507	280
264.16	270
265.812	254
267.463	270
269.115	252
270.766	254
272.417	246
274.067	252
275.717	250
277.365	246
279.014	228
280.663	232
282.311	230
283.958	216
285.605	204
287.252	198
288.898	196
290.543	186
292.188	190
293.833	192
295.477	194
297.121	170
298.765	170
300.407	176
302.05	166
303.693	164
305.334	174
306.975	170
308.615	166
310.256	178
311.896	172
313.535	178
315.175	180
316.813	182
318.451	178
320.089	170
321.726	180
323.362	174
324.999	164
326.635	176
328.271	170
329.905	166
331.54	178
333.174	174
334.807	168
336.441	172
338.074	174
339.707	162
341.338	166
342.969	164
344.601	164
346.231	168
347.861	160
349.491	152
351.12	160
352.749	154
354.378	156
356.006	150
357.633	156
359.261	148
360.887	160
362.513	164
364.139	156
365.764	154
367.39	164
369.014	152
370.638	158
372.261	154
373.884	148
375.508	168
377.13	170
378.752	178
380.373	186
381.994	170
383.615	178
385.235	178
386.854	178
388.473	182
390.092	174
391.711	188
393.328	194
394.947	198
396.564	196
398.181	216
399.797	216
401.412	230
403.027	222
404.642	230
406.257	242
407.871	246
409.484	228
411.098	220
412.711	204
414.323	174
415.935	178
417.547	192
419.158	170
420.768	172
422.378	170
423.988	166
425.597	164
427.206	164
428.814	148
430.422	158
432.03	136
433.637	144
435.243	150
436.85	150
438.456	132
440.062	142
441.666	134
443.271	128
444.876	128
446.479	132
448.082	136
449.685	132
451.287	118
452.89	120
454.492	112
456.092	114
457.693	122
459.293	112
460.893	114
462.492	112
464.092	114
465.691	102
467.288	108
468.887	104
470.483	114
472.081	114
473.677	112
475.273	102
476.869	110
478.463	114
480.059	110
481.653	106
483.247	100
484.84	98
486.433	102
488.026	110
489.618	112
491.21	100
492.801	104
494.392	100
495.983	100
497.573	104
499.162	110
500.752	104
502.341	120
503.929	120
505.517	116
507.105	114
508.692	108
510.279	112
511.865	106
513.45	110
515.037	112
516.621	108
518.206	116
519.79	110
521.374	122
522.957	112
524.54	112
526.123	126
527.705	132
529.287	124
530.868	124
532.448	136
534.029	136
535.609	154
537.188	146
538.768	140
540.346	140
541.925	158
543.502	148
545.08	156
546.657	154
548.234	146
549.81	148
551.386	150
552.961	146
554.536	142
556.11	128
557.684	146
559.258	134
560.832	122
562.405	138
563.977	128
565.55	128
567.12	138
568.692	148
570.263	140
571.833	146
573.403	150
574.973	138
576.542	138
578.111	124
579.679	130
581.247	110
582.815	118
584.382	114
585.948	114
587.514	116
589.081	116
590.645	108
592.211	108
593.775	110
595.339	108
596.904	118
598.466	110
600.03	126
601.592	118
603.154	124
604.715	134
606.277	160
607.838	140
609.398	158
610.958	150
612.518	158
614.077	200
615.636	230
617.194	344
618.753	508
620.31	758
621.867	696
623.424	460
624.98	270
626.537	210
628.092	162
629.647	150
631.202	132
632.756	132
634.31	110
635.864	110
637.417	108
638.969	102
640.521	100
642.074	92
643.625	94
645.176	90
646.726	88
648.276	88
649.827	90
651.376	78
652.925	74
654.473	84
656.021	84
657.569	80
659.117	74
660.664	74
662.21	84
663.757	68
665.302	78
666.847	70
668.392	76
669.937	84
671.481	82
673.025	70
674.568	84
676.111	80
677.653	78
679.195	82
680.737	80
682.279	86
683.82	80
685.36	78
686.9	76
688.44	74
689.979	80
691.517	82
693.056	76
694.594	84
696.132	90
697.669	98
699.206	86
700.742	100
702.278	96
703.814	102
705.35	102
706.884	106
708.419	92
709.953	104
711.487	102
713.019	96
714.552	90
716.085	96
717.617	96
719.148	124
720.68	118
722.21	142
723.741	146
725.271	156
726.8	140
728.33	128
729.858	126
731.387	138
732.915	128
734.443	150
735.97	150
737.497	166
739.023	180
740.549	186
742.075	190
743.6	186
745.125	186
746.65	184
748.173	190
749.697	206
751.22	206
752.743	220
754.266	242
755.788	242
757.309	234
758.831	230
760.351	230
761.871	236
763.392	236
764.912	210
766.431	202
767.95	210
769.468	196
770.986	204
772.504	208
774.022	196
775.538	214
777.055	188
778.571	206
780.086	194
781.602	226
783.117	244
784.632	248
786.146	286
787.659	306
789.173	314
790.685	310
792.198	352
793.71	328
795.222	344
796.733	346
798.244	334
799.755	288
801.265	284
802.775	256
804.284	224
805.793	204
807.302	196
808.81	184
810.318	188
811.826	162
813.333	164
814.84	146
816.346	148
817.851	138
819.357	132
820.862	118
822.367	124
823.871	116
825.376	114
826.878	100
828.382	110
829.885	112
831.387	116
832.889	120
834.391	126
835.892	128
837.392	146
838.893	156
840.393	166
841.893	156
843.392	166
844.891	154
846.389	140
847.888	138
849.386	146
850.882	138
852.38	130
853.876	128
855.372	126
856.868	126
858.363	136
859.858	120
861.353	120
862.847	120
864.341	110
865.834	112
867.328	134
868.82	118
870.313	122
871.805	120
873.296	130
874.787	124
876.278	114
877.769	118
879.258	114
880.748	116
882.237	126
883.726	120
885.214	114
886.702	112
888.19	120
889.677	116
891.164	118
892.651	112
894.137	116
895.623	118
897.108	122
898.593	116
900.077	144
901.562	148
903.046	132
904.529	148
906.012	146
907.495	152
908.977	140
910.459	138
911.941	138
913.422	120
914.903	122
916.383	122
917.863	98
919.343	106
920.822	96
922.301	102
923.779	110
925.257	106
926.735	106
928.213	104
929.69	90
931.166	94
932.643	102
934.119	94
935.594	96
937.069	92
938.543	106
940.018	110
941.492	106
942.966	108
944.439	100
945.911	108
947.384	108
948.856	104
950.328	112
951.799	108
953.27	104
954.741	108
956.21	102
957.68	114
959.15	116
960.619	120
962.088	120
963.556	122
965.023	130
966.491	128
967.958	130
969.425	130
970.891	132
972.357	126
973.824	136
975.288	144
976.754	154
978.218	172
979.682	198
981.146	200
982.609	222
984.072	254
985.534	292
986.997	316
988.459	424
989.92	606
991.382	802
992.842	842
994.302	788
995.763	864
997.222	1242
998.681	1992
1000.14	2928
1001.6	3344
1003.06	2840
1004.52	1934
1005.97	1122
1007.43	664
1008.89	436
1010.34	324
1011.8	222
1013.25	218
1014.71	208
1016.16	194
1017.62	194
1019.07	212
1020.53	234
1021.98	264
1023.43	302
1024.89	374
1026.34	486
1027.79	624
1029.24	770
1030.69	902
1032.14	916
1033.59	818
1035.04	656
1036.49	542
1037.94	410
1039.39	326
1040.84	256
1042.29	232
1043.73	210
1045.18	202
1046.63	178
1048.08	172
1049.52	160
1050.97	178
1052.41	152
1053.86	158
1055.3	160
1056.75	156
1058.19	152
1059.64	158
1061.08	170
1062.52	170
1063.96	178
1065.41	168
1066.85	182
1068.29	174
1069.73	182
1071.17	174
1072.61	178
1074.05	176
1075.49	168
1076.93	176
1078.37	168
1079.81	180
1081.25	168
1082.68	176
1084.12	162
1085.56	166
1087	158
1088.43	172
1089.87	172
1091.3	160
1092.74	168
1094.17	170
1095.61	160
1097.04	176
1098.48	158
1099.91	162
1101.34	162
1102.78	164
1104.21	158
1105.64	152
1107.07	146
1108.5	138
1109.93	144
1111.36	128
1112.8	130
1114.22	134
1115.65	122
1117.08	120
1118.51	130
1119.94	114
1121.37	118
1122.8	108
1124.22	112
1125.65	104
1127.08	120
1128.5	110
1129.93	112
1131.35	104
1132.78	112
1134.2	112
1135.63	108
1137.05	126
1138.48	114
1139.9	128
1141.32	132
1142.75	142
1144.17	146
1145.59	160
1147.01	178
1148.43	212
1149.85	242
1151.27	306
1152.69	362
1154.11	410
1155.53	436
1156.95	392
1158.37	326
1159.79	298
1161.21	256
1162.62	228
1164.04	208
1165.46	220
1166.87	204
1168.29	214
1169.71	214
1171.12	222
1172.54	242
1173.95	280
1175.37	318
1176.78	362
1178.19	408
1179.61	490
1181.02	524
1182.43	516
1183.84	492
1185.26	464
1186.67	434
1188.08	428
1189.49	442
1190.9	452
1192.31	472
1193.72	502
1195.13	478
1196.54	518
1197.95	512
1199.36	516
1200.76	474
1202.17	456
1203.58	430
1204.99	434
1206.39	362
1207.8	334
1209.2	318
1210.61	300
1212.01	274
1213.42	248
1214.82	228
1216.23	222
1217.63	232
1219.03	214
1220.44	206
1221.84	212
1223.24	206
1224.64	196
1226.05	192
1227.45	194
1228.85	186
1230.25	172
1231.65	186
1233.05	194
1234.45	166
1235.85	182
1237.25	172
1238.64	172
1240.04	168
1241.44	184
1242.84	172
1244.23	184
1245.63	172
1247.03	176
1248.42	172
1249.82	170
1251.21	172
1252.61	170
1254	180
1255.4	176
1256.79	170
1258.19	180
1259.58	170
1260.97	170
1262.36	176
1263.76	168
1265.15	168
1266.54	168
1267.93	186
1269.32	186
1270.71	180
1272.1	172
1273.49	184
1274.88	170
1276.27	168
1277.66	182
1279.05	176
1280.43	172
1281.82	176
1283.21	178
1284.6	182
1285.98	202
1287.37	190
1288.75	182
1290.14	178
1291.53	198
1292.91	194
1294.29	188
1295.68	208
1297.06	214
1298.45	218
1299.83	204
1301.21	210
1302.59	198
1303.98	230
1305.36	218
1306.74	220
1308.12	234
1309.5	224
1310.88	238
1312.26	234
1313.64	232
1315.02	250
1316.4	246
1317.78	254
1319.16	278
1320.53	274
1321.91	276
1323.29	302
1324.67	282
1326.04	306
1327.42	294
1328.79	292
1330.17	296
1331.54	292
1332.92	314
1334.29	298
1335.67	288
1337.04	304
1338.42	276
1339.79	288
1341.16	266
1342.53	276
1343.91	276
1345.28	270
1346.65	276
1348.02	272
1349.39	280
1350.76	262
1352.13	270
1353.5	268
1354.87	284
1356.24	274
1357.61	274
1358.98	274
1360.34	266
1361.71	290
1363.08	286
1364.45	286
1365.81	288
1367.18	278
1368.54	282
1369.91	286
1371.28	286
1372.64	284
1374.01	286
1375.37	282
1376.73	266
1378.1	280
1379.46	266
1380.82	262
1382.19	270
1383.55	264
1384.91	266
1386.27	244
1387.63	250
1388.99	256
1390.35	236
1391.71	242
1393.07	244
1394.43	236
1395.79	246
1397.15	238
1398.51	238
1399.87	250
1401.23	244
1402.58	212
1403.94	234
1405.3	224
1406.65	242
1408.01	230
1409.37	228
1410.72	236
1412.08	234
1413.43	228
1414.79	228
1416.14	218
1417.49	224
1418.85	216
1420.2	214
1421.55	222
1422.91	222
1424.26	230
1425.61	220
1426.96	228
1428.31	232
1429.66	218
1431.01	220
1432.36	246
1433.71	248
1435.06	238
1436.41	268
1437.76	262
1439.11	278
1440.46	286
1441.81	294
1443.15	308
1444.5	326
1445.85	330
1447.19	330
1448.54	352
1449.89	332
1451.23	312
1452.58	324
1453.92	318
1455.27	290
1456.61	262
1457.95	262
1459.3	240
1460.64	216
1461.98	208
1463.33	214
1464.67	200
1466.01	200
1467.35	188
1468.69	186
1470.03	182
1471.37	186
1472.71	202
1474.05	182
1475.39	186
1476.73	194
1478.07	184
1479.41	168
1480.75	184
1482.09	188
1483.42	188
1484.76	188
1486.1	188
1487.43	194
1488.77	186
1490.11	178
1491.44	202
1492.78	198
1494.11	180
1495.45	186
1496.78	188
1498.12	178
1499.45	168
1500.78	174
1502.11	176
1503.45	182
1504.78	160
1506.11	180
1507.44	168
1508.77	172
1510.11	170
1511.44	166
1512.77	162
1514.1	168
1515.43	178
1516.76	168
1518.08	158
1519.41	174
1520.74	172
1522.07	172
1523.4	168
1524.72	168
1526.05	164
1527.38	178
1528.7	164
1530.03	168
1531.36	166
1532.68	170
1534.01	166
1535.33	176
1536.66	172
1537.98	168
1539.3	156
1540.63	166
1541.95	164
1543.27	174
1544.6	174
1545.92	162
1547.24	160
1548.56	168
1549.88	150
1551.2	170
1552.52	174
1553.84	160
1555.17	152
1556.48	166
1557.8	168
1559.12	162
1560.44	162
1561.76	156
1563.08	160
1564.4	162
1565.71	168
1567.03	180
1568.35	188
1569.66	176
1570.98	174
1572.29	190
1573.61	202
1574.93	218
1576.24	232
1577.55	236
1578.87	264
1580.18	324
1581.5	396
1582.81	434
1584.12	410
1585.43	352
1586.75	286
1588.06	276
1589.37	244
1590.68	250
1591.99	270
1593.3	280
1594.61	318
1595.92	362
1597.23	434
1598.54	530
1599.85	626
1601.16	690
1602.47	692
1603.78	622
1605.08	580
1606.39	454
1607.7	370
1609	318
1610.31	276
1611.62	244
1612.92	228
1614.23	200
1615.53	188
1616.84	210
1618.14	174
1619.45	194
1620.75	178
1622.06	170
1623.36	172
1624.66	168
1625.96	170
1627.27	158
1628.57	154
1629.87	160
1631.17	158
1632.47	162
1633.77	160
1635.07	148
1636.37	164
1637.67	154
1638.97	144
1640.27	156
1641.57	156
1642.87	164
1644.17	150
1645.47	162
1646.76	160
1648.06	156
1649.36	158
1650.66	152
1651.95	152
1653.25	144
1654.54	140
1655.84	142
1657.13	150
1658.43	138
1659.72	128
1661.02	134
1662.31	126
1663.6	128
1664.9	130
1666.19	136
1667.48	136
1668.78	136
1670.07	128
1671.36	130
1672.65	136
1673.94	132
1675.23	146
1676.52	140
1677.81	120
1679.1	128
1680.39	128
1681.68	136
1682.97	136
1684.26	130
1685.55	128
1686.83	130
1688.12	128
1689.41	112
1690.7	132
1691.98	118
1693.27	124
1694.55	134
1695.84	126
1697.13	118
1698.41	120
1699.69	120
1700.98	126
1702.26	130