File: Mixture_Classification/Jesse_Dataset_v2/Pure Raman/Polystyrene/785nm/ps-ppo-6jan25-1,0000-map3_Y10_X01.txt
204.377	832
206.045	830
207.713	862
209.38	872
211.048	876
212.715	898
214.381	934
216.047	904
217.712	880
219.377	912
221.042	896
222.706	908
224.369	896
226.032	872
227.695	800
229.357	748
231.019	710
232.68	656
234.341	622
236.001	574
237.661	536
239.321	496
240.98	428
242.639	398
244.297	384
245.955	356
247.612	354
249.268	312
250.924	308
252.58	296
254.236	286
255.891	270
257.546	264
259.2	276
260.854	256
262.507	268
264.16	270
265.812	260
267.463	250
269.115	260
270.766	264
272.417	240
274.067	244
275.717	242
277.365	226
279.014	224
280.663	226
282.311	212
283.958	218
285.605	196
287.252	206
288.898	190
290.543	190
292.188	174
293.833	176
295.477	170
297.121	186
298.765	168
300.407	174
302.05	164
303.693	174
305.334	156
306.975	168
308.615	174
310.256	164
311.896	166
313.535	174
315.175	170
316.813	168
318.451	162
320.089	168
321.726	172
323.362	160
324.999	160
326.635	162
328.271	166
329.905	172
331.54	160
333.174	168
334.807	164
336.441	164
338.074	172
339.707	168
341.338	158
342.969	162
344.601	136
346.231	148
347.861	164
349.491	154
351.12	148
352.749	140
354.378	152
356.006	144
357.633	144
359.261	136
360.887	152
362.513	156
364.139	154
365.764	156
367.39	142
369.014	156
370.638	144
372.261	156
373.884	158
375.508	154
377.13	160
378.752	172
380.373	174
381.994	174
383.615	184
385.235	190
386.854	176
388.473	184
390.092	200
391.711	184
393.328	186
394.947	192
396.564	188
398.181	212
399.797	192
401.412	208
403.027	236
404.642	238
406.257	244
407.871	232
409.484	230
411.098	218
412.711	200
414.323	194
415.935	180
417.547	178
419.158	158
420.768	172
422.378	160
423.988	162
425.597	154
427.206	144
428.814	150
430.422	146
432.03	138
433.637	150
435.243	138
436.85	140
438.456	134
440.062	144
441.666	122
443.271	130
444.876	132
446.479	126
448.082	124
449.685	118
451.287	114
452.89	108
454.492	112
456.092	110
457.693	114
459.293	114
460.893	110
462.492	100
464.092	96
465.691	114
467.288	106
468.887	100
470.483	110
472.081	106
473.677	110
475.273	100
476.869	102
478.463	104
480.059	98
481.653	92
483.247	96
484.84	104
486.433	94
488.026	104
489.618	94
491.21	104
492.801	104
494.392	102
495.983	94
497.573	102
499.162	104
500.752	106
502.341	96
503.929	112
505.517	108
507.105	102
508.692	108
510.279	110
511.865	108
513.45	118
515.037	110
516.621	108
518.206	96
519.79	106
521.374	122
522.957	116
524.54	118
526.123	116
527.705	118
529.287	116
530.868	130
532.448	130
534.029	134
535.609	138
537.188	140
538.768	158
540.346	154
541.925	132
543.502	142
545.08	136
546.657	136
548.234	144
549.81	136
551.386	140
552.961	136
554.536	136
556.11	134
557.684	132
559.258	128
560.832	132
562.405	136
563.977	128
565.55	140
567.12	130
568.692	122
570.263	132
571.833	150
573.403	136
574.973	150
576.542	142
578.111	126
579.679	130
581.247	118
582.815	114
584.382	116
585.948	116
587.514	108
589.081	112
590.645	104
592.211	98
593.775	110
595.339	122
596.904	112
598.466	112
600.03	118
601.592	122
603.154	116
604.715	128
606.277	142
607.838	138
609.398	144
610.958	146
612.518	156
614.077	172
615.636	224
617.194	314
618.753	538
620.31	728
621.867	700
623.424	446
624.98	304
626.537	186
628.092	158
629.647	134
631.202	134
632.756	122
634.31	116
635.864	108
637.417	96
638.969	86
640.521	90
642.074	90
643.625	94
645.176	86
646.726	82
648.276	90
649.827	78
651.376	78
652.925	82
654.473	78
656.021	78
657.569	74
659.117	78
660.664	78
662.21	78
663.757	78
665.302	72
666.847	78
668.392	90
669.937	76
671.481	78
673.025	76
674.568	68
676.111	78
677.653	70
679.195	74
680.737	80
682.279	68
683.82	82
685.36	76
686.9	78
688.44	74
689.979	78
691.517	74
693.056	78
694.594	84
696.132	80
697.669	80
699.206	86
700.742	102
702.278	106
703.814	102
705.35	98
706.884	98
708.419	92
709.953	94
711.487	100
713.019	96
714.552	94
716.085	92
717.617	102
719.148	108
720.68	124
722.21	148
723.741	146
725.271	138
726.8	140
728.33	132
729.858	124
731.387	124
732.915	116
734.443	138
735.97	142
737.497	162
739.023	174
740.549	184
742.075	182
743.6	190
745.125	186
746.65	164
748.173	178
749.697	190
751.22	202
752.743	212
754.266	202
755.788	222
757.309	244
758.831	234
760.351	234
761.871	236
763.392	224
764.912	220
766.431	202
767.95	200
769.468	212
770.986	202
772.504	204
774.022	202
775.538	202
777.055	200
778.571	208
780.086	208
781.602	220
783.117	232
784.632	266
786.146	270
787.659	292
789.173	316
790.685	320
792.198	330
793.71	358
795.222	332
796.733	342
798.244	332
799.755	302
801.265	270
802.775	256
804.284	210
805.793	214
807.302	192
808.81	196
810.318	170
811.826	164
813.333	158
814.84	146
816.346	130
817.851	148
819.357	128
820.862	124
822.367	120
823.871	122
825.376	102
826.878	110
828.382	100
829.885	110
831.387	118
832.889	126
834.391	132
835.892	136
837.392	140
838.893	160
840.393	162
841.893	150
843.392	164
844.891	150
846.389	132
847.888	138
849.386	138
850.882	128
852.38	128
853.876	122
855.372	128
856.868	122
858.363	124
859.858	128
861.353	104
862.847	116
864.341	130
865.834	128
867.328	122
868.82	122
870.313	132
871.805	126
873.296	120
874.787	116
876.278	118
877.769	118
879.258	116
880.748	114
882.237	110
883.726	108
885.214	130
886.702	114
888.19	116
889.677	106
891.164	116
892.651	124
894.137	110
895.623	118
897.108	118
898.593	116
900.077	136
901.562	128
903.046	148
904.529	148
906.012	136
907.495	148
908.977	138
910.459	140
911.941	124
913.422	122
914.903	112
916.383	108
917.863	94
919.343	106
920.822	104
922.301	106
923.779	104
925.257	94
926.735	92
928.213	104
929.69	94
931.166	92
932.643	98
934.119	100
935.594	106
937.069	110
938.543	96
940.018	96
941.492	100
942.966	96
944.439	94
945.911	100
947.384	96
948.856	102
950.328	102
951.799	104
953.27	104
954.741	102
956.21	108
957.68	100
959.15	116
960.619	126
962.088	112
963.556	128
965.023	128
966.491	126
967.958	128
969.425	132
970.891	140
972.357	122
973.824	134
975.288	146
976.754	162
978.218	170
979.682	178
981.146	194
982.609	224
984.072	258
985.534	268
986.997	324
988.459	412
989.92	600
991.382	740
992.842	820
994.302	768
995.763	898
997.222	1256
998.681	2006
1000.14	2954
1001.6	3292
1003.06	2858
1004.52	1892
1005.97	1144
1007.43	690
1008.89	438
1010.34	314
1011.8	248
1013.25	194
1014.71	190
1016.16	178
1017.62	184
1019.07	198
1020.53	222
1021.98	256
1023.43	324
1024.89	402
1026.34	498
1027.79	608
1029.24	776
1030.69	872
1032.14	928
1033.59	818
1035.04	666
1036.49	536
1037.94	414
1039.39	332
1040.84	258
1042.29	234
1043.73	200
1045.18	194
1046.63	174
1048.08	164
1049.52	170
1050.97	152
1052.41	156
1053.86	154
1055.3	158
1056.75	158
1058.19	156
1059.64	154
1061.08	158
1062.52	166
1063.96	160
1065.41	170
1066.85	180
1068.29	184
1069.73	170
1071.17	180
1072.61	176
1074.05	170
1075.49	164
1076.93	172
1078.37	156
1079.81	168
1081.25	164
1082.68	176
1084.12	176
1085.56	174
1087	164
1088.43	166
1089.87	158
1091.3	174
1092.74	170
1094.17	166
1095.61	164
1097.04	170
1098.48	170
1099.91	170
1101.34	166
1102.78	160
1104.21	152
1105.64	142
1107.07	154
1108.5	144
1109.93	134
1111.36	134
1112.8	122
1114.22	130
1115.65	128
1117.08	118
1118.51	126
1119.94	116
1121.37	114
1122.8	114
1124.22	100
1125.65	106
1127.08	110
1128.5	102
1129.93	102
1131.35	106
1132.78	108
1134.2	118
1135.63	120
1137.05	112
1138.48	120
1139.9	124
1141.32	134
1142.75	138
1144.17	134
1145.59	156
1147.01	178
1148.43	194
1149.85	230
1151.27	302
1152.69	358
1154.11	386
1155.53	428
1156.95	388
1158.37	342
1159.79	300
1161.21	270
1162.62	228
1164.04	228
1165.46	204
1166.87	194
1168.29	204
1169.71	204
1171.12	226
1172.54	244
1173.95	274
1175.37	292
1176.78	364
1178.19	418
1179.61	494
1181.02	540
1182.43	514
1183.84	494
1185.26	464
1186.67	430
1188.08	422
1189.49	436
1190.9	456
1192.31	458
1193.72	488
1195.13	528
1196.54	504
1197.95	506
1199.36	494
1200.76	470
1202.17	466
1203.58	438
1204.99	414
1206.39	364
1207.8	356
1209.2	314
1210.61	280
1212.01	260
1213.42	250
1214.82	236
1216.23	222
1217.63	196
1219.03	220
1220.44	198
1221.84	208
1223.24	192
1224.64	200
1226.05	190
1227.45	184
1228.85	184
1230.25	182
1231.65	174
1233.05	170
1234.45	172
1235.85	182
1237.25	168
1238.64	174
1240.04	166
1241.44	158
1242.84	176
1244.23	158
1245.63	158
1247.03	170
1248.42	176
1249.82	170
1251.21	166
1252.61	168
1254	176
1255.4	178
1256.79	176
1258.19	168
1259.58	172
1260.97	178
1262.36	178
1263.76	168
1265.15	170
1266.54	176
1267.93	170
1269.32	166
1270.71	174
1272.1	170
1273.49	160
1274.88	174
1276.27	162
1277.66	168
1279.05	168
1280.43	174
1281.82	178
1283.21	182
1284.6	170
1285.98	178
1287.37	178
1288.75	180
1290.14	188
1291.53	198
1292.91	200
1294.29	192
1295.68	200
1297.06	216
1298.45	200
1299.83	198
1301.21	214
1302.59	222
1303.98	210
1305.36	222
1306.74	202
1308.12	214
1309.5	230
1310.88	214
1312.26	230
1313.64	228
1315.02	232
1316.4	236
1317.78	250
1319.16	268
1320.53	270
1321.91	282
1323.29	274
1324.67	296
1326.04	276
1327.42	288
1328.79	276
1330.17	312
1331.54	294
1332.92	294
1334.29	294
1335.67	290
1337.04	284
1338.42	266
1339.79	278
1341.16	256
1342.53	284
1343.91	264
1345.28	250
1346.65	256
1348.02	248
1349.39	246
1350.76	268
1352.13	264
1353.5	256
1354.87	246
1356.24	280
1357.61	280
1358.98	274
1360.34	272
1361.71	266
1363.08	264
1364.45	266
1365.81	276
1367.18	262
1368.54	272
1369.91	276
1371.28	262
1372.64	274
1374.01	276
1375.37	272
1376.73	280
1378.1	266
1379.46	252
1380.82	276
1382.19	248
1383.55	258
1384.91	238
1386.27	240
1387.63	248
1388.99	226
1390.35	242
1391.71	224
1393.07	230
1394.43	238
1395.79	228
1397.15	224
1398.51	232
1399.87	234
1401.23	224
1402.58	232
1403.94	232
1405.3	234
1406.65	224
1408.01	226
1409.37	232
1410.72	228
1412.08	228
1413.43	220
1414.79	226
1416.14	222
1417.49	220
1418.85	202
1420.2	226
1421.55	210
1422.91	210
1424.26	228
1425.61	214
1426.96	206
1428.31	210
1429.66	220
1431.01	218
1432.36	216
1433.71	248
1435.06	244
1436.41	252
1437.76	262
1439.11	270
1440.46	294
1441.81	286
1443.15	304
1444.5	308
1445.85	326
1447.19	318
1448.54	334
1449.89	330
1451.23	318
1452.58	324
1453.92	316
1455.27	288
1456.61	268
1457.95	244
1459.3	230
1460.64	200
1461.98	202
1463.33	196
1464.67	202
1466.01	192
1467.35	188
1468.69	190
1470.03	184
1471.37	190
1472.71	178
1474.05	184
1475.39	182
1476.73	186
1478.07	186
1479.41	174
1480.75	180
1482.09	180
1483.42	168
1484.76	176
1486.1	172
1487.43	178
1488.77	176
1490.11	170
1491.44	184
1492.78	174
1494.11	184
1495.45	180
1496.78	174
1498.12	188
1499.45	188
1500.78	170
1502.11	166
1503.45	162
1504.78	172
1506.11	166
1507.44	166
1508.77	152
1510.11	162
1511.44	166
1512.77	172
1514.1	172
1515.43	172
1516.76	150
1518.08	170
1519.41	160
1520.74	166
1522.07	158
1523.4	164
1524.72	164
1526.05	166
1527.38	166
1528.7	164
1530.03	158
1531.36	172
1532.68	162
1534.01	164
1535.33	156
1536.66	154
1537.98	164
1539.3	160
1540.63	160
1541.95	150
1543.27	150
1544.6	158
1545.92	162
1547.24	150
1548.56	176
1549.88	160
1551.2	160
1552.52	160
1553.84	148
1555.17	150
1556.48	162
1557.8	170
1559.12	158
1560.44	156
1561.76	156
1563.08	156
1564.4	162
1565.71	180
1567.03	188
1568.35	174
1569.66	174
1570.98	180
1572.29	180
1573.61	210
1574.93	202
1576.24	216
1577.55	232
1578.87	270
1580.18	304
1581.5	386
1582.81	422
1584.12	398
1585.43	328
1586.75	286
1588.06	266
1589.37	238
1590.68	242
1591.99	252
1593.3	282
1594.61	312
1595.92	354
1597.23	424
1598.54	534
1599.85	608
1601.16	694
1602.47	702
1603.78	624
1605.08	530
1606.39	454
1607.7	388
1609	308
1610.31	258
1611.62	236
1612.92	230
1614.23	220
1615.53	184
1616.84	186
1618.14	186
1619.45	174
1620.75	188
1622.06	150
1623.36	162
1624.66	156
1625.96	154
1627.27	150
1628.57	150
1629.87	148
1631.17	144
1632.47	152
1633.77	144
1635.07	150
1636.37	148
1637.67	152
1638.97	142
1640.27	146
1641.57	154
1642.87	156
1644.17	142
1645.47	152
1646.76	154
1648.06	158
1649.36	154
1650.66	138
1651.95	150
1653.25	148
1654.54	154
1655.84	138
1657.13	144
1658.43	132
1659.72	128
1661.02	134
1662.31	116
1663.6	122
1664.9	134
1666.19	132
1667.48	128
1668.78	128
1670.07	124
1671.36	130
1672.65	120
1673.94	124
1675.23	126
1676.52	134
1677.81	124
1679.1	130
1680.39	134
1681.68	134
1682.97	130
1684.26	116
1685.55	128
1686.83	134
1688.12	134
1689.41	118
1690.7	124
1691.98	130
1693.27	110
1694.55	114
1695.84	128
1697.13	116
1698.41	122
1699.69	122
1700.98	126
1702.26	126