File: Mixture_Classification/Jesse_Dataset_v2/Pure Raman/Polystyrene/785nm/ps-ppo-6jan25-1,0000-map3_Y03_X06.txt
204.377	852
206.045	814
207.713	856
209.38	858
211.048	918
212.715	884
214.381	892
216.047	922
217.712	910
219.377	906
221.042	908
222.706	896
224.369	874
226.032	860
227.695	808
229.357	754
231.019	746
232.68	642
234.341	638
236.001	564
237.661	544
239.321	480
240.98	454
242.639	398
244.297	394
245.955	358
247.612	346
249.268	326
250.924	296
252.58	298
254.236	280
255.891	284
257.546	278
259.2	246
260.854	278
262.507	276
264.16	274
265.812	258
267.463	266
269.115	252
270.766	244
272.417	236
274.067	238
275.717	236
277.365	222
279.014	222
280.663	212
282.311	212
283.958	216
285.605	204
287.252	202
288.898	188
290.543	186
292.188	182
293.833	168
295.477	166
297.121	160
298.765	176
300.407	164
302.05	162
303.693	174
305.334	164
306.975	168
308.615	162
310.256	164
311.896	168
313.535	176
315.175	166
316.813	168
318.451	160
320.089	176
321.726	162
323.362	170
324.999	166
326.635	168
328.271	162
329.905	160
331.54	168
333.174	176
334.807	178
336.441	166
338.074	156
339.707	154
341.338	160
342.969	152
344.601	158
346.231	162
347.861	148
349.491	152
351.12	156
352.749	154
354.378	146
356.006	148
357.633	140
359.261	148
360.887	152
362.513	146
364.139	142
365.764	144
367.39	142
369.014	150
370.638	152
372.261	138
373.884	154
375.508	156
377.13	160
378.752	170
380.373	168
381.994	174
383.615	182
385.235	172
386.854	184
388.473	174
390.092	162
391.711	184
393.328	176
394.947	176
396.564	184
398.181	192
399.797	210
401.412	212
403.027	232
404.642	224
406.257	232
407.871	222
409.484	222
411.098	212
412.711	206
414.323	192
415.935	178
417.547	184
419.158	170
420.768	162
422.378	168
423.988	152
425.597	146
427.206	154
428.814	136
430.422	136
432.03	146
433.637	142
435.243	144
436.85	136
438.456	132
440.062	132
441.666	124
443.271	132
444.876	132
446.479	132
448.082	126
449.685	132
451.287	124
452.89	122
454.492	106
456.092	110
457.693	114
459.293	106
460.893	108
462.492	110
464.092	110
465.691	108
467.288	102
468.887	102
470.483	110
472.081	102
473.677	90
475.273	108
476.869	100
478.463	100
480.059	98
481.653	94
483.247	94
484.84	102
486.433	94
488.026	94
489.618	100
491.21	84
492.801	88
494.392	106
495.983	100
497.573	104
499.162	96
500.752	102
502.341	100
503.929	108
505.517	98
507.105	108
508.692	106
510.279	104
511.865	102
513.45	106
515.037	104
516.621	106
518.206	110
519.79	108
521.374	98
522.957	114
524.54	112
526.123	116
527.705	114
529.287	112
530.868	132
532.448	130
534.029	132
535.609	128
537.188	140
538.768	148
540.346	150
541.925	152
543.502	148
545.08	144
546.657	140
548.234	140
549.81	148
551.386	136
552.961	142
554.536	126
556.11	120
557.684	132
559.258	140
560.832	134
562.405	132
563.977	136
565.55	122
567.12	128
568.692	130
570.263	140
571.833	136
573.403	124
574.973	142
576.542	134
578.111	114
579.679	118
581.247	110
582.815	110
584.382	100
585.948	116
587.514	114
589.081	112
590.645	112
592.211	110
593.775	100
595.339	112
596.904	98
598.466	108
600.03	120
601.592	114
603.154	110
604.715	126
606.277	154
607.838	150
609.398	146
610.958	142
612.518	154
614.077	176
615.636	240
617.194	336
618.753	508
620.31	696
621.867	682
623.424	474
624.98	286
626.537	192
628.092	158
629.647	132
631.202	132
632.756	128
634.31	106
635.864	112
637.417	94
638.969	92
640.521	92
642.074	88
643.625	80
645.176	84
646.726	84
648.276	74
649.827	76
651.376	76
652.925	76
654.473	74
656.021	72
657.569	76
659.117	76
660.664	68
662.21	76
663.757	78
665.302	78
666.847	72
668.392	80
669.937	76
671.481	76
673.025	76
674.568	86
676.111	76
677.653	76
679.195	68
680.737	72
682.279	74
683.82	74
685.36	76
686.9	70
688.44	76
689.979	82
691.517	74
693.056	76
694.594	74
696.132	70
697.669	96
699.206	88
700.742	98
702.278	98
703.814	92
705.35	92
706.884	92
708.419	90
709.953	92
711.487	88
713.019	96
714.552	88
716.085	92
717.617	98
719.148	104
720.68	116
722.21	120
723.741	132
725.271	146
726.8	130
728.33	120
729.858	130
731.387	120
732.915	120
734.443	130
735.97	148
737.497	152
739.023	180
740.549	180
742.075	178
743.6	184
745.125	168
746.65	188
748.173	190
749.697	190
751.22	198
752.743	204
754.266	210
755.788	220
757.309	230
758.831	220
760.351	230
761.871	226
763.392	222
764.912	224
766.431	206
767.95	208
769.468	214
770.986	194
772.504	192
774.022	194
775.538	200
777.055	202
778.571	192
780.086	206
781.602	216
783.117	228
784.632	260
786.146	248
787.659	288
789.173	304
790.685	312
792.198	324
793.71	350
795.222	342
796.733	326
798.244	312
799.755	308
801.265	274
802.775	244
804.284	232
805.793	200
807.302	196
808.81	174
810.318	172
811.826	168
813.333	156
814.84	154
816.346	146
817.851	124
819.357	130
820.862	114
822.367	120
823.871	112
825.376	104
826.878	112
828.382	112
829.885	110
831.387	118
832.889	110
834.391	126
835.892	122
837.392	152
838.893	146
840.393	146
841.893	154
843.392	168
844.891	166
846.389	142
847.888	146
849.386	144
850.882	128
852.38	132
853.876	128
855.372	130
856.868	120
858.363	124
859.858	110
861.353	122
862.847	120
864.341	120
865.834	118
867.328	112
868.82	128
870.313	124
871.805	124
873.296	116
874.787	116
876.278	120
877.769	124
879.258	112
880.748	108
882.237	108
883.726	120
885.214	104
886.702	108
888.19	112
889.677	114
891.164	110
892.651	108
894.137	114
895.623	118
897.108	124
898.593	122
900.077	122
901.562	134
903.046	142
904.529	144
906.012	146
907.495	146
908.977	126
910.459	138
911.941	130
913.422	130
914.903	114
916.383	112
917.863	108
919.343	104
920.822	104
922.301	102
923.779	92
925.257	86
926.735	98
928.213	96
929.69	96
931.166	96
932.643	100
934.119	98
935.594	96
937.069	104
938.543	96
940.018	104
941.492	98
942.966	100
944.439	104
945.911	92
947.384	102
948.856	100
950.328	102
951.799	98
953.27	102
954.741	106
956.21	98
957.68	102
959.15	106
960.619	118
962.088	122
963.556	120
965.023	124
966.491	136
967.958	124
969.425	122
970.891	130
972.357	126
973.824	132
975.288	140
976.754	146
978.218	170
979.682	172
981.146	196
982.609	232
984.072	254
985.534	288
986.997	324
988.459	434
989.92	570
991.382	778
992.842	816
994.302	794
995.763	824
997.222	1224
998.681	1956
1000.14	2838
1001.6	3284
1003.06	2872
1004.52	1980
1005.97	1200
1007.43	690
1008.89	460
1010.34	326
1011.8	236
1013.25	216
1014.71	194
1016.16	176
1017.62	196
1019.07	206
1020.53	198
1021.98	254
1023.43	308
1024.89	394
1026.34	488
1027.79	630
1029.24	778
1030.69	898
1032.14	892
1033.59	826
1035.04	676
1036.49	534
1037.94	386
1039.39	304
1040.84	256
1042.29	222
1043.73	192
1045.18	184
1046.63	178
1048.08	168
1049.52	154
1050.97	154
1052.41	156
1053.86	162
1055.3	160
1056.75	156
1058.19	162
1059.64	158
1061.08	150
1062.52	160
1063.96	172
1065.41	158
1066.85	164
1068.29	172
1069.73	170
1071.17	178
1072.61	174
1074.05	154
1075.49	170
1076.93	160
1078.37	154
1079.81	154
1081.25	158
1082.68	162
1084.12	160
1085.56	166
1087	162
1088.43	166
1089.87	164
1091.3	172
1092.74	172
1094.17	154
1095.61	174
1097.04	166
1098.48	178
1099.91	166
1101.34	156
1102.78	172
1104.21	154
1105.64	136
1107.07	146
1108.5	142
1109.93	126
1111.36	128
1112.8	136
1114.22	134
1115.65	128
1117.08	108
1118.51	112
1119.94	114
1121.37	116
1122.8	106
1124.22	120
1125.65	104
1127.08	100
1128.5	102
1129.93	102
1131.35	106
1132.78	114
1134.2	106
1135.63	108
1137.05	106
1138.48	116
1139.9	126
1141.32	122
1142.75	130
1144.17	154
1145.59	162
1147.01	166
1148.43	184
1149.85	232
1151.27	278
1152.69	342
1154.11	404
1155.53	428
1156.95	376
1158.37	316
1159.79	296
1161.21	256
1162.62	210
1164.04	224
1165.46	202
1166.87	202
1168.29	198
1169.71	202
1171.12	216
1172.54	248
1173.95	252
1175.37	300
1176.78	368
1178.19	412
1179.61	470
1181.02	522
1182.43	532
1183.84	512
1185.26	462
1186.67	424
1188.08	438
1189.49	460
1190.9	476
1192.31	480
1193.72	494
1195.13	508
1196.54	516
1197.95	494
1199.36	484
1200.76	484
1202.17	452
1203.58	466
1204.99	410
1206.39	380
1207.8	340
1209.2	316
1210.61	290
1212.01	264
1213.42	258
1214.82	238
1216.23	210
1217.63	214
1219.03	216
1220.44	196
1221.84	214
1223.24	198
1224.64	194
1226.05	192
1227.45	200
1228.85	170
1230.25	184
1231.65	176
1233.05	178
1234.45	164
1235.85	170
1237.25	166
1238.64	162
1240.04	174
1241.44	180
1242.84	174
1244.23	168
1245.63	162
1247.03	160
1248.42	168
1249.82	166
1251.21	178
1252.61	168
1254	166
1255.4	178
1256.79	172
1258.19	164
1259.58	164
1260.97	164
1262.36	162
1263.76	168
1265.15	178
1266.54	170
1267.93	160
1269.32	180
1270.71	170
1272.1	176
1273.49	160
1274.88	178
1276.27	180
1277.66	172
1279.05	160
1280.43	166
1281.82	176
1283.21	166
1284.6	182
1285.98	176
1287.37	174
1288.75	178
1290.14	186
1291.53	186
1292.91	188
1294.29	204
1295.68	194
1297.06	208
1298.45	218
1299.83	210
1301.21	208
1302.59	214
1303.98	202
1305.36	218
1306.74	236
1308.12	230
1309.5	238
1310.88	244
1312.26	246
1313.64	250
1315.02	250
1316.4	258
1317.78	242
1319.16	256
1320.53	276
1321.91	286
1323.29	288
1324.67	282
1326.04	294
1327.42	294
1328.79	306
1330.17	306
1331.54	308
1332.92	310
1334.29	292
1335.67	294
1337.04	290
1338.42	286
1339.79	284
1341.16	270
1342.53	270
1343.91	266
1345.28	264
1346.65	266
1348.02	270
1349.39	264
1350.76	254
1352.13	272
1353.5	270
1354.87	266
1356.24	274
1357.61	274
1358.98	290
1360.34	256
1361.71	244
1363.08	272
1364.45	260
1365.81	276
1367.18	274
1368.54	286
1369.91	290
1371.28	296
1372.64	288
1374.01	266
1375.37	272
1376.73	274
1378.1	262
1379.46	268
1380.82	256
1382.19	258
1383.55	264
1384.91	256
1386.27	248
1387.63	226
1388.99	234
1390.35	234
1391.71	234
1393.07	236
1394.43	222
1395.79	238
1397.15	240
1398.51	232
1399.87	228
1401.23	232
1402.58	252
1403.94	238
1405.3	228
1406.65	234
1408.01	226
1409.37	214
1410.72	226
1412.08	210
1413.43	224
1414.79	222
1416.14	224
1417.49	220
1418.85	224
1420.2	224
1421.55	226
1422.91	222
1424.26	226
1425.61	220
1426.96	210
1428.31	218
1429.66	220
1431.01	218
1432.36	220
1433.71	240
1435.06	234
1436.41	268
1437.76	268
1439.11	284
1440.46	276
1441.81	290
1443.15	304
1444.5	308
1445.85	324
1447.19	338
1448.54	326
1449.89	340
1451.23	336
1452.58	334
1453.92	304
1455.27	300
1456.61	262
1457.95	264
1459.3	232
1460.64	216
1461.98	204
1463.33	220
1464.67	190
1466.01	206
1467.35	194
1468.69	192
1470.03	202
1471.37	178
1472.71	192
1474.05	192
1475.39	186
1476.73	174
1478.07	172
1479.41	196
1480.75	180
1482.09	184
1483.42	176
1484.76	188
1486.1	186
1487.43	178
1488.77	188
1490.11	168
1491.44	182
1492.78	182
1494.11	186
1495.45	184
1496.78	176
1498.12	168
1499.45	158
1500.78	180
1502.11	172
1503.45	164
1504.78	172
1506.11	166
1507.44	170
1508.77	166
1510.11	174
1511.44	160
1512.77	150
1514.1	162
1515.43	166
1516.76	164
1518.08	170
1519.41	160
1520.74	160
1522.07	164
1523.4	160
1524.72	156
1526.05	164
1527.38	168
1528.7	158
1530.03	170
1531.36	164
1532.68	164
1534.01	174
1535.33	168
1536.66	152
1537.98	150
1539.3	168
1540.63	154
1541.95	148
1543.27	166
1544.6	152
1545.92	166
1547.24	146
1548.56	162
1549.88	168
1551.2	154
1552.52	170
1553.84	154
1555.17	156
1556.48	170
1557.8	172
1559.12	170
1560.44	166
1561.76	160
1563.08	144
1564.4	172
1565.71	150
1567.03	162
1568.35	162
1569.66	184
1570.98	184
1572.29	196
1573.61	208
1574.93	206
1576.24	220
1577.55	236
1578.87	280
1580.18	318
1581.5	374
1582.81	412
1584.12	408
1585.43	352
1586.75	312
1588.06	266
1589.37	252
1590.68	250
1591.99	252
1593.3	254
1594.61	322
1595.92	372
1597.23	424
1598.54	526
1599.85	618
1601.16	680
1602.47	706
1603.78	630
1605.08	544
1606.39	484
1607.7	386
1609	330
1610.31	298
1611.62	264
1612.92	236
1614.23	212
1615.53	186
1616.84	194
1618.14	170
1619.45	188
1620.75	170
1622.06	160
1623.36	174
1624.66	158
1625.96	162
1627.27	156
1628.57	156
1629.87	156
1631.17	146
1632.47	156
1633.77	150
1635.07	154
1636.37	142
1637.67	146
1638.97	156
1640.27	144
1641.57	146
1642.87	142
1644.17	144
1645.47	142
1646.76	156
1648.06	156
1649.36	154
1650.66	144
1651.95	132
1653.25	144
1654.54	148
1655.84	134
1657.13	136
1658.43	140
1659.72	140
1661.02	124
1662.31	144
1663.6	132
1664.9	130
1666.19	126
1667.48	120
1668.78	124
1670.07	142
1671.36	136
1672.65	118
1673.94	122
1675.23	132
1676.52	128
1677.81	120
1679.1	120
1680.39	130
1681.68	134
1682.97	120
1684.26	132
1685.55	118
1686.83	130
1688.12	112
1689.41	128
1690.7	124
1691.98	114
1693.27	130
1694.55	120
1695.84	128
1697.13	124
1698.41	116
1699.69	122
1700.98	124
1702.26	114