File: Mixture_Classification/Jesse_Dataset_v2/Pure Raman/Polystyrene/785nm/ps-ppo-6jan25-1,0000-map3_Y00_X05.txt
204.377	838
206.045	862
207.713	850
209.38	862
211.048	860
212.715	906
214.381	908
216.047	876
217.712	906
219.377	904
221.042	906
222.706	908
224.369	894
226.032	858
227.695	782
229.357	790
231.019	714
232.68	656
234.341	652
236.001	582
237.661	522
239.321	486
240.98	438
242.639	420
244.297	376
245.955	344
247.612	330
249.268	326
250.924	290
252.58	292
254.236	296
255.891	266
257.546	278
259.2	270
260.854	264
262.507	260
264.16	252
265.812	240
267.463	238
269.115	238
270.766	240
272.417	236
274.067	230
275.717	230
277.365	230
279.014	222
280.663	218
282.311	220
283.958	206
285.605	198
287.252	196
288.898	192
290.543	192
292.188	172
293.833	168
295.477	166
297.121	172
298.765	160
300.407	164
302.05	162
303.693	174
305.334	162
306.975	160
308.615	160
310.256	156
311.896	162
313.535	180
315.175	164
316.813	170
318.451	156
320.089	168
321.726	166
323.362	172
324.999	170
326.635	176
328.271	168
329.905	162
331.54	156
333.174	174
334.807	154
336.441	176
338.074	154
339.707	164
341.338	164
342.969	148
344.601	158
346.231	146
347.861	150
349.491	148
351.12	142
352.749	152
354.378	146
356.006	152
357.633	148
359.261	142
360.887	142
362.513	132
364.139	148
365.764	144
367.39	160
369.014	162
370.638	154
372.261	146
373.884	150
375.508	160
377.13	162
378.752	168
380.373	158
381.994	162
383.615	168
385.235	172
386.854	178
388.473	178
390.092	178
391.711	188
393.328	180
394.947	178
396.564	196
398.181	198
399.797	202
401.412	206
403.027	228
404.642	230
406.257	232
407.871	232
409.484	228
411.098	206
412.711	202
414.323	188
415.935	176
417.547	174
419.158	174
420.768	164
422.378	154
423.988	152
425.597	160
427.206	150
428.814	158
430.422	150
432.03	156
433.637	142
435.243	134
436.85	140
438.456	134
440.062	142
441.666	130
443.271	138
444.876	130
446.479	126
448.082	124
449.685	124
451.287	112
452.89	114
454.492	104
456.092	116
457.693	112
459.293	98
460.893	94
462.492	104
464.092	104
465.691	104
467.288	108
468.887	102
470.483	104
472.081	96
473.677	112
475.273	106
476.869	94
478.463	90
480.059	100
481.653	96
483.247	94
484.84	88
486.433	106
488.026	92
489.618	88
491.21	88
492.801	98
494.392	98
495.983	96
497.573	102
499.162	108
500.752	104
502.341	108
503.929	108
505.517	104
507.105	110
508.692	100
510.279	106
511.865	106
513.45	100
515.037	100
516.621	110
518.206	100
519.79	112
521.374	102
522.957	108
524.54	112
526.123	122
527.705	118
529.287	126
530.868	126
532.448	122
534.029	140
535.609	136
537.188	132
538.768	146
540.346	148
541.925	146
543.502	148
545.08	150
546.657	126
548.234	146
549.81	132
551.386	150
552.961	128
554.536	132
556.11	132
557.684	136
559.258	132
560.832	126
562.405	132
563.977	126
565.55	122
567.12	130
568.692	142
570.263	130
571.833	132
573.403	136
574.973	132
576.542	136
578.111	116
579.679	120
581.247	114
582.815	108
584.382	104
585.948	102
587.514	114
589.081	104
590.645	106
592.211	112
593.775	104
595.339	112
596.904	102
598.466	112
600.03	112
601.592	118
603.154	122
604.715	134
606.277	148
607.838	148
609.398	150
610.958	146
612.518	158
614.077	176
615.636	240
617.194	306
618.753	490
620.31	740
621.867	678
623.424	464
624.98	284
626.537	200
628.092	162
629.647	150
631.202	136
632.756	118
634.31	116
635.864	106
637.417	100
638.969	86
640.521	90
642.074	82
643.625	88
645.176	78
646.726	80
648.276	82
649.827	74
651.376	74
652.925	78
654.473	80
656.021	82
657.569	78
659.117	70
660.664	70
662.21	72
663.757	68
665.302	76
666.847	82
668.392	72
669.937	78
671.481	68
673.025	74
674.568	68
676.111	70
677.653	68
679.195	74
680.737	68
682.279	82
683.82	80
685.36	76
686.9	78
688.44	76
689.979	78
691.517	70
693.056	80
694.594	84
696.132	88
697.669	78
699.206	88
700.742	94
702.278	94
703.814	104
705.35	96
706.884	100
708.419	88
709.953	98
711.487	88
713.019	100
714.552	96
716.085	86
717.617	94
719.148	110
720.68	120
722.21	128
723.741	152
725.271	150
726.8	134
728.33	118
729.858	126
731.387	118
732.915	130
734.443	130
735.97	138
737.497	170
739.023	174
740.549	176
742.075	182
743.6	182
745.125	188
746.65	182
748.173	186
749.697	184
751.22	198
752.743	206
754.266	208
755.788	218
757.309	234
758.831	238
760.351	222
761.871	224
763.392	220
764.912	214
766.431	232
767.95	220
769.468	214
770.986	214
772.504	194
774.022	196
775.538	194
777.055	200
778.571	204
780.086	210
781.602	216
783.117	230
784.632	268
786.146	268
787.659	284
789.173	302
790.685	328
792.198	330
793.71	354
795.222	358
796.733	316
798.244	308
799.755	308
801.265	274
802.775	254
804.284	222
805.793	218
807.302	198
808.81	180
810.318	186
811.826	170
813.333	154
814.84	144
816.346	148
817.851	134
819.357	124
820.862	118
822.367	106
823.871	112
825.376	112
826.878	108
828.382	116
829.885	110
831.387	106
832.889	132
834.391	118
835.892	136
837.392	136
838.893	142
840.393	152
841.893	146
843.392	158
844.891	148
846.389	146
847.888	150
849.386	134
850.882	130
852.38	128
853.876	126
855.372	120
856.868	118
858.363	130
859.858	118
861.353	122
862.847	128
864.341	114
865.834	124
867.328	118
868.82	120
870.313	122
871.805	126
873.296	126
874.787	124
876.278	112
877.769	110
879.258	116
880.748	114
882.237	108
883.726	110
885.214	126
886.702	102
888.19	104
889.677	100
891.164	110
892.651	112
894.137	112
895.623	108
897.108	114
898.593	110
900.077	128
901.562	136
903.046	140
904.529	146
906.012	150
907.495	148
908.977	146
910.459	132
911.941	132
913.422	120
914.903	118
916.383	106
917.863	98
919.343	106
920.822	104
922.301	92
923.779	96
925.257	92
926.735	94
928.213	96
929.69	92
931.166	100
932.643	92
934.119	100
935.594	100
937.069	88
938.543	100
940.018	108
941.492	96
942.966	100
944.439	94
945.911	100
947.384	96
948.856	102
950.328	92
951.799	108
953.27	110
954.741	102
956.21	100
957.68	110
959.15	104
960.619	110
962.088	124
963.556	132
965.023	128
966.491	122
967.958	130
969.425	124
970.891	124
972.357	138
973.824	132
975.288	148
976.754	158
978.218	156
979.682	182
981.146	192
982.609	228
984.072	236
985.534	276
986.997	322
988.459	418
989.92	560
991.382	750
992.842	820
994.302	764
995.763	846
997.222	1202
998.681	1918
1000.14	2890
1001.6	3366
1003.06	2898
1004.52	2006
1005.97	1178
1007.43	664
1008.89	442
1010.34	296
1011.8	254
1013.25	200
1014.71	192
1016.16	184
1017.62	192
1019.07	184
1020.53	218
1021.98	238
1023.43	290
1024.89	394
1026.34	496
1027.79	640
1029.24	762
1030.69	874
1032.14	908
1033.59	824
1035.04	682
1036.49	534
1037.94	400
1039.39	332
1040.84	274
1042.29	228
1043.73	196
1045.18	182
1046.63	172
1048.08	170
1049.52	162
1050.97	152
1052.41	156
1053.86	150
1055.3	160
1056.75	150
1058.19	142
1059.64	158
1061.08	156
1062.52	164
1063.96	166
1065.41	176
1066.85	166
1068.29	176
1069.73	180
1071.17	176
1072.61	168
1074.05	162
1075.49	172
1076.93	166
1078.37	162
1079.81	156
1081.25	158
1082.68	162
1084.12	164
1085.56	164
1087	158
1088.43	156
1089.87	168
1091.3	160
1092.74	168
1094.17	170
1095.61	172
1097.04	172
1098.48	172
1099.91	160
1101.34	158
1102.78	152
1104.21	156
1105.64	142
1107.07	138
1108.5	138
1109.93	130
1111.36	134
1112.8	120
1114.22	114
1115.65	118
1117.08	122
1118.51	122
1119.94	122
1121.37	100
1122.8	102
1124.22	108
1125.65	100
1127.08	102
1128.5	100
1129.93	108
1131.35	100
1132.78	108
1134.2	100
1135.63	110
1137.05	116
1138.48	112
1139.9	128
1141.32	134
1142.75	124
1144.17	150
1145.59	140
1147.01	166
1148.43	196
1149.85	220
1151.27	288
1152.69	346
1154.11	414
1155.53	396
1156.95	396
1158.37	348
1159.79	296
1161.21	244
1162.62	228
1164.04	204
1165.46	214
1166.87	206
1168.29	214
1169.71	204
1171.12	232
1172.54	236
1173.95	258
1175.37	298
1176.78	362
1178.19	416
1179.61	478
1181.02	506
1182.43	524
1183.84	510
1185.26	464
1186.67	428
1188.08	426
1189.49	442
1190.9	472
1192.31	478
1193.72	496
1195.13	508
1196.54	482
1197.95	480
1199.36	484
1200.76	476
1202.17	450
1203.58	450
1204.99	408
1206.39	368
1207.8	370
1209.2	320
1210.61	286
1212.01	246
1213.42	234
1214.82	226
1216.23	218
1217.63	202
1219.03	188
1220.44	210
1221.84	204
1223.24	208
1224.64	194
1226.05	206
1227.45	176
1228.85	180
1230.25	178
1231.65	168
1233.05	170
1234.45	168
1235.85	174
1237.25	166
1238.64	170
1240.04	164
1241.44	168
1242.84	174
1244.23	154
1245.63	166
1247.03	166
1248.42	164
1249.82	174
1251.21	156
1252.61	160
1254	174
1255.4	176
1256.79	166
1258.19	154
1259.58	174
1260.97	168
1262.36	166
1263.76	158
1265.15	174
1266.54	174
1267.93	166
1269.32	172
1270.71	170
1272.1	178
1273.49	172
1274.88	168
1276.27	174
1277.66	160
1279.05	160
1280.43	168
1281.82	178
1283.21	182
1284.6	174
1285.98	184
1287.37	172
1288.75	174
1290.14	188
1291.53	192
1292.91	180
1294.29	200
1295.68	200
1297.06	196
1298.45	202
1299.83	210
1301.21	196
1302.59	214
1303.98	222
1305.36	228
1306.74	214
1308.12	222
1309.5	226
1310.88	214
1312.26	220
1313.64	232
1315.02	236
1316.4	246
1317.78	250
1319.16	230
1320.53	262
1321.91	280
1323.29	272
1324.67	272
1326.04	294
1327.42	292
1328.79	294
1330.17	292
1331.54	292
1332.92	272
1334.29	282
1335.67	280
1337.04	288
1338.42	286
1339.79	266
1341.16	270
1342.53	256
1343.91	266
1345.28	252
1346.65	246
1348.02	268
1349.39	240
1350.76	272
1352.13	258
1353.5	254
1354.87	270
1356.24	258
1357.61	272
1358.98	264
1360.34	252
1361.71	264
1363.08	276
1364.45	270
1365.81	266
1367.18	266
1368.54	286
1369.91	284
1371.28	278
1372.64	276
1374.01	288
1375.37	276
1376.73	296
1378.1	264
1379.46	264
1380.82	256
1382.19	262
1383.55	262
1384.91	234
1386.27	236
1387.63	228
1388.99	242
1390.35	218
1391.71	228
1393.07	228
1394.43	206
1395.79	224
1397.15	232
1398.51	236
1399.87	238
1401.23	234
1402.58	232
1403.94	224
1405.3	228
1406.65	224
1408.01	218
1409.37	220
1410.72	234
1412.08	214
1413.43	214
1414.79	220
1416.14	222
1417.49	224
1418.85	220
1420.2	204
1421.55	230
1422.91	202
1424.26	204
1425.61	220
1426.96	222
1428.31	208
1429.66	226
1431.01	222
1432.36	222
1433.71	244
1435.06	242
1436.41	234
1437.76	264
1439.11	262
1440.46	272
1441.81	278
1443.15	280
1444.5	312
1445.85	322
1447.19	334
1448.54	336
1449.89	328
1451.23	320
1452.58	316
1453.92	310
1455.27	286
1456.61	264
1457.95	248
1459.3	246
1460.64	228
1461.98	210
1463.33	208
1464.67	192
1466.01	210
1467.35	194
1468.69	188
1470.03	192
1471.37	182
1472.71	186
1474.05	182
1475.39	186
1476.73	188
1478.07	182
1479.41	166
1480.75	186
1482.09	172
1483.42	170
1484.76	182
1486.1	166
1487.43	176
1488.77	178
1490.11	168
1491.44	186
1492.78	186
1494.11	188
1495.45	186
1496.78	170
1498.12	170
1499.45	168
1500.78	154
1502.11	180
1503.45	168
1504.78	154
1506.11	166
1507.44	170
1508.77	148
1510.11	164
1511.44	148
1512.77	164
1514.1	160
1515.43	150
1516.76	166
1518.08	170
1519.41	156
1520.74	154
1522.07	156
1523.4	166
1524.72	150
1526.05	164
1527.38	160
1528.7	162
1530.03	156
1531.36	166
1532.68	150
1534.01	162
1535.33	154
1536.66	152
1537.98	172
1539.3	152
1540.63	160
1541.95	152
1543.27	162
1544.6	154
1545.92	152
1547.24	164
1548.56	160
1549.88	162
1551.2	150
1552.52	156
1553.84	148
1555.17	160
1556.48	158
1557.8	166
1559.12	150
1560.44	150
1561.76	156
1563.08	162
1564.4	170
1565.71	176
1567.03	164
1568.35	176
1569.66	178
1570.98	186
1572.29	182
1573.61	190
1574.93	216
1576.24	210
1577.55	236
1578.87	270
1580.18	326
1581.5	382
1582.81	414
1584.12	388
1585.43	338
1586.75	280
1588.06	256
1589.37	248
1590.68	258
1591.99	226
1593.3	284
1594.61	288
1595.92	352
1597.23	406
1598.54	496
1599.85	640
1601.16	666
1602.47	692
1603.78	632
1605.08	560
1606.39	454
1607.7	370
1609	316
1610.31	254
1611.62	244
1612.92	204
1614.23	224
1615.53	196
1616.84	180
1618.14	172
1619.45	178
1620.75	184
1622.06	152
1623.36	166
1624.66	158
1625.96	162
1627.27	156
1628.57	142
1629.87	160
1631.17	144
1632.47	154
1633.77	144
1635.07	140
1636.37	146
1637.67	148
1638.97	154
1640.27	154
1641.57	142
1642.87	148
1644.17	162
1645.47	146
1646.76	160
1648.06	148
1649.36	144
1650.66	154
1651.95	136
1653.25	142
1654.54	136
1655.84	140
1657.13	140
1658.43	136
1659.72	142
1661.02	132
1662.31	136
1663.6	126
1664.9	130
1666.19	132
1667.48	132
1668.78	130
1670.07	126
1671.36	124
1672.65	124
1673.94	118
1675.23	114
1676.52	124
1677.81	112
1679.1	118
1680.39	132
1681.68	122
1682.97	126
1684.26	128
1685.55	120
1686.83	122
1688.12	128
1689.41	122
1690.7	112
1691.98	118
1693.27	114
1694.55	124
1695.84	126
1697.13	120
1698.41	118
1699.69	112
1700.98	114
1702.26	116