File: Mixture_Classification/Jesse_Dataset_v2/Pure Raman/Polystyrene/785nm/ps-ppo-6jan25-1,0000-map3_Y02_X02.txt
204.377	822
206.045	870
207.713	850
209.38	878
211.048	874
212.715	868
214.381	928
216.047	922
217.712	902
219.377	886
221.042	914
222.706	898
224.369	866
226.032	832
227.695	762
229.357	766
231.019	718
232.68	676
234.341	640
236.001	572
237.661	536
239.321	484
240.98	454
242.639	408
244.297	376
245.955	356
247.612	324
249.268	332
250.924	300
252.58	298
254.236	290
255.891	272
257.546	280
259.2	262
260.854	252
262.507	276
264.16	238
265.812	256
267.463	248
269.115	252
270.766	234
272.417	244
274.067	248
275.717	242
277.365	236
279.014	216
280.663	206
282.311	210
283.958	200
285.605	208
287.252	208
288.898	180
290.543	196
292.188	184
293.833	186
295.477	154
297.121	184
298.765	170
300.407	176
302.05	172
303.693	164
305.334	162
306.975	170
308.615	162
310.256	176
311.896	160
313.535	174
315.175	168
316.813	162
318.451	164
320.089	184
321.726	164
323.362	168
324.999	164
326.635	178
328.271	164
329.905	166
331.54	174
333.174	160
334.807	154
336.441	162
338.074	160
339.707	154
341.338	154
342.969	156
344.601	148
346.231	154
347.861	144
349.491	136
351.12	150
352.749	146
354.378	152
356.006	144
357.633	150
359.261	134
360.887	136
362.513	142
364.139	140
365.764	144
367.39	146
369.014	154
370.638	156
372.261	156
373.884	150
375.508	156
377.13	156
378.752	164
380.373	162
381.994	164
383.615	166
385.235	166
386.854	168
388.473	190
390.092	176
391.711	186
393.328	184
394.947	186
396.564	186
398.181	192
399.797	214
401.412	208
403.027	218
404.642	228
406.257	232
407.871	218
409.484	212
411.098	214
412.711	198
414.323	194
415.935	178
417.547	178
419.158	164
420.768	158
422.378	166
423.988	158
425.597	154
427.206	142
428.814	156
430.422	142
432.03	136
433.637	132
435.243	138
436.85	134
438.456	146
440.062	138
441.666	128
443.271	132
444.876	126
446.479	120
448.082	124
449.685	116
451.287	110
452.89	120
454.492	112
456.092	112
457.693	102
459.293	98
460.893	102
462.492	106
464.092	104
465.691	102
467.288	96
468.887	106
470.483	104
472.081	102
473.677	106
475.273	96
476.869	102
478.463	98
480.059	96
481.653	88
483.247	88
484.84	92
486.433	90
488.026	100
489.618	98
491.21	98
492.801	90
494.392	100
495.983	98
497.573	102
499.162	104
500.752	100
502.341	100
503.929	112
505.517	102
507.105	106
508.692	94
510.279	100
511.865	110
513.45	108
515.037	102
516.621	108
518.206	98
519.79	112
521.374	116
522.957	110
524.54	112
526.123	114
527.705	116
529.287	118
530.868	132
532.448	126
534.029	128
535.609	138
537.188	148
538.768	148
540.346	138
541.925	136
543.502	152
545.08	146
546.657	134
548.234	130
549.81	132
551.386	140
552.961	130
554.536	132
556.11	130
557.684	130
559.258	132
560.832	138
562.405	136
563.977	132
565.55	128
567.12	134
568.692	140
570.263	128
571.833	142
573.403	144
574.973	124
576.542	134
578.111	120
579.679	116
581.247	108
582.815	110
584.382	118
585.948	102
587.514	108
589.081	110
590.645	102
592.211	106
593.775	106
595.339	104
596.904	114
598.466	114
600.03	96
601.592	110
603.154	122
604.715	126
606.277	136
607.838	144
609.398	154
610.958	134
612.518	154
614.077	192
615.636	226
617.194	322
618.753	478
620.31	718
621.867	688
623.424	438
624.98	272
626.537	194
628.092	160
629.647	140
631.202	138
632.756	124
634.31	114
635.864	102
637.417	92
638.969	94
640.521	94
642.074	88
643.625	82
645.176	84
646.726	88
648.276	78
649.827	78
651.376	72
652.925	70
654.473	76
656.021	68
657.569	68
659.117	74
660.664	70
662.21	80
663.757	72
665.302	72
666.847	72
668.392	76
669.937	78
671.481	72
673.025	74
674.568	74
676.111	74
677.653	76
679.195	86
680.737	74
682.279	76
683.82	68
685.36	64
686.9	74
688.44	78
689.979	70
691.517	78
693.056	74
694.594	80
696.132	84
697.669	82
699.206	94
700.742	98
702.278	88
703.814	92
705.35	88
706.884	94
708.419	88
709.953	90
711.487	94
713.019	96
714.552	88
716.085	94
717.617	92
719.148	98
720.68	120
722.21	136
723.741	140
725.271	150
726.8	152
728.33	130
729.858	118
731.387	116
732.915	126
734.443	132
735.97	138
737.497	172
739.023	164
740.549	170
742.075	182
743.6	184
745.125	196
746.65	188
748.173	200
749.697	192
751.22	192
752.743	218
754.266	212
755.788	226
757.309	224
758.831	230
760.351	232
761.871	224
763.392	214
764.912	222
766.431	216
767.95	210
769.468	196
770.986	190
772.504	188
774.022	186
775.538	208
777.055	194
778.571	190
780.086	220
781.602	226
783.117	236
784.632	250
786.146	282
787.659	292
789.173	312
790.685	318
792.198	330
793.71	318
795.222	344
796.733	350
798.244	328
799.755	314
801.265	256
802.775	260
804.284	232
805.793	190
807.302	198
808.81	198
810.318	172
811.826	158
813.333	152
814.84	160
816.346	138
817.851	136
819.357	120
820.862	104
822.367	110
823.871	104
825.376	108
826.878	94
828.382	112
829.885	104
831.387	114
832.889	124
834.391	134
835.892	144
837.392	146
838.893	156
840.393	136
841.893	164
843.392	148
844.891	152
846.389	146
847.888	134
849.386	134
850.882	134
852.38	126
853.876	120
855.372	104
856.868	120
858.363	114
859.858	120
861.353	120
862.847	120
864.341	114
865.834	126
867.328	126
868.82	122
870.313	122
871.805	124
873.296	124
874.787	114
876.278	120
877.769	116
879.258	126
880.748	104
882.237	118
883.726	118
885.214	106
886.702	112
888.19	106
889.677	122
891.164	110
892.651	114
894.137	116
895.623	124
897.108	120
898.593	126
900.077	124
901.562	128
903.046	132
904.529	144
906.012	144
907.495	138
908.977	138
910.459	138
911.941	124
913.422	128
914.903	118
916.383	108
917.863	100
919.343	106
920.822	92
922.301	96
923.779	94
925.257	94
926.735	106
928.213	94
929.69	90
931.166	98
932.643	90
934.119	96
935.594	96
937.069	98
938.543	94
940.018	90
941.492	100
942.966	100
944.439	100
945.911	106
947.384	100
948.856	98
950.328	100
951.799	102
953.27	90
954.741	96
956.21	98
957.68	114
959.15	108
960.619	120
962.088	122
963.556	114
965.023	140
966.491	118
967.958	120
969.425	122
970.891	116
972.357	122
973.824	144
975.288	142
976.754	142
978.218	162
979.682	186
981.146	180
982.609	204
984.072	240
985.534	278
986.997	324
988.459	416
989.92	572
991.382	724
992.842	796
994.302	756
995.763	830
997.222	1190
998.681	1952
1000.14	2836
1001.6	3300
1003.06	2924
1004.52	1990
1005.97	1188
1007.43	700
1008.89	440
1010.34	306
1011.8	260
1013.25	212
1014.71	180
1016.16	184
1017.62	188
1019.07	198
1020.53	212
1021.98	250
1023.43	308
1024.89	378
1026.34	514
1027.79	642
1029.24	720
1030.69	870
1032.14	888
1033.59	826
1035.04	674
1036.49	510
1037.94	420
1039.39	322
1040.84	268
1042.29	240
1043.73	194
1045.18	192
1046.63	170
1048.08	174
1049.52	168
1050.97	158
1052.41	158
1053.86	154
1055.3	160
1056.75	148
1058.19	154
1059.64	148
1061.08	142
1062.52	166
1063.96	156
1065.41	168
1066.85	160
1068.29	164
1069.73	186
1071.17	176
1072.61	182
1074.05	168
1075.49	162
1076.93	168
1078.37	170
1079.81	164
1081.25	164
1082.68	162
1084.12	160
1085.56	162
1087	180
1088.43	156
1089.87	162
1091.3	154
1092.74	174
1094.17	172
1095.61	178
1097.04	170
1098.48	158
1099.91	166
1101.34	164
1102.78	170
1104.21	142
1105.64	142
1107.07	144
1108.5	142
1109.93	136
1111.36	130
1112.8	126
1114.22	124
1115.65	132
1117.08	120
1118.51	116
1119.94	114
1121.37	100
1122.8	120
1124.22	108
1125.65	108
1127.08	106
1128.5	104
1129.93	98
1131.35	114
1132.78	112
1134.2	106
1135.63	110
1137.05	112
1138.48	114
1139.9	122
1141.32	136
1142.75	134
1144.17	148
1145.59	154
1147.01	184
1148.43	190
1149.85	238
1151.27	294
1152.69	344
1154.11	392
1155.53	416
1156.95	384
1158.37	324
1159.79	276
1161.21	238
1162.62	222
1164.04	204
1165.46	194
1166.87	200
1168.29	210
1169.71	212
1171.12	204
1172.54	246
1173.95	248
1175.37	294
1176.78	348
1178.19	402
1179.61	482
1181.02	540
1182.43	514
1183.84	494
1185.26	468
1186.67	438
1188.08	436
1189.49	432
1190.9	448
1192.31	474
1193.72	504
1195.13	504
1196.54	514
1197.95	514
1199.36	488
1200.76	474
1202.17	446
1203.58	430
1204.99	410
1206.39	380
1207.8	344
1209.2	318
1210.61	308
1212.01	264
1213.42	240
1214.82	216
1216.23	202
1217.63	206
1219.03	226
1220.44	200
1221.84	202
1223.24	192
1224.64	200
1226.05	204
1227.45	190
1228.85	178
1230.25	174
1231.65	170
1233.05	174
1234.45	170
1235.85	166
1237.25	168
1238.64	178
1240.04	178
1241.44	166
1242.84	164
1244.23	178
1245.63	170
1247.03	162
1248.42	162
1249.82	164
1251.21	158
1252.61	174
1254	168
1255.4	158
1256.79	160
1258.19	160
1259.58	154
1260.97	160
1262.36	164
1263.76	166
1265.15	174
1266.54	164
1267.93	148
1269.32	158
1270.71	168
1272.1	180
1273.49	160
1274.88	170
1276.27	160
1277.66	164
1279.05	178
1280.43	158
1281.82	164
1283.21	172
1284.6	164
1285.98	184
1287.37	180
1288.75	186
1290.14	178
1291.53	186
1292.91	190
1294.29	186
1295.68	200
1297.06	206
1298.45	208
1299.83	202
1301.21	214
1302.59	222
1303.98	212
1305.36	236
1306.74	206
1308.12	212
1309.5	216
1310.88	226
1312.26	224
1313.64	230
1315.02	242
1316.4	248
1317.78	260
1319.16	270
1320.53	272
1321.91	286
1323.29	280
1324.67	282
1326.04	302
1327.42	290
1328.79	288
1330.17	294
1331.54	274
1332.92	290
1334.29	272
1335.67	288
1337.04	280
1338.42	274
1339.79	270
1341.16	272
1342.53	264
1343.91	260
1345.28	258
1346.65	258
1348.02	246
1349.39	246
1350.76	244
1352.13	252
1353.5	250
1354.87	262
1356.24	238
1357.61	252
1358.98	256
1360.34	250
1361.71	258
1363.08	256
1364.45	258
1365.81	270
1367.18	256
1368.54	268
1369.91	280
1371.28	258
1372.64	278
1374.01	280
1375.37	272
1376.73	272
1378.1	272
1379.46	262
1380.82	250
1382.19	234
1383.55	250
1384.91	248
1386.27	234
1387.63	226
1388.99	234
1390.35	232
1391.71	226
1393.07	218
1394.43	238
1395.79	220
1397.15	212
1398.51	234
1399.87	236
1401.23	230
1402.58	224
1403.94	212
1405.3	210
1406.65	228
1408.01	214
1409.37	208
1410.72	236
1412.08	216
1413.43	222
1414.79	220
1416.14	222
1417.49	196
1418.85	214
1420.2	224
1421.55	210
1422.91	212
1424.26	204
1425.61	220
1426.96	212
1428.31	212
1429.66	218
1431.01	222
1432.36	222
1433.71	232
1435.06	266
1436.41	250
1437.76	268
1439.11	274
1440.46	286
1441.81	282
1443.15	296
1444.5	302
1445.85	306
1447.19	314
1448.54	326
1449.89	306
1451.23	306
1452.58	308
1453.92	298
1455.27	268
1456.61	252
1457.95	240
1459.3	224
1460.64	224
1461.98	186
1463.33	202
1464.67	200
1466.01	196
1467.35	174
1468.69	184
1470.03	182
1471.37	180
1472.71	188
1474.05	194
1475.39	174
1476.73	160
1478.07	176
1479.41	188
1480.75	184
1482.09	172
1483.42	176
1484.76	172
1486.1	172
1487.43	170
1488.77	144
1490.11	158
1491.44	176
1492.78	184
1494.11	174
1495.45	178
1496.78	174
1498.12	166
1499.45	170
1500.78	158
1502.11	150
1503.45	166
1504.78	162
1506.11	172
1507.44	158
1508.77	162
1510.11	156
1511.44	178
1512.77	168
1514.1	160
1515.43	160
1516.76	158
1518.08	164
1519.41	156
1520.74	162
1522.07	156
1523.4	162
1524.72	156
1526.05	150
1527.38	164
1528.7	172
1530.03	148
1531.36	156
1532.68	162
1534.01	146
1535.33	162
1536.66	164
1537.98	162
1539.3	156
1540.63	152
1541.95	154
1543.27	152
1544.6	160
1545.92	166
1547.24	156
1548.56	152
1549.88	146
1551.2	158
1552.52	156
1553.84	152
1555.17	156
1556.48	166
1557.8	144
1559.12	152
1560.44	164
1561.76	158
1563.08	152
1564.4	172
1565.71	156
1567.03	176
1568.35	172
1569.66	164
1570.98	178
1572.29	182
1573.61	190
1574.93	196
1576.24	200
1577.55	236
1578.87	262
1580.18	334
1581.5	384
1582.81	418
1584.12	400
1585.43	332
1586.75	288
1588.06	268
1589.37	264
1590.68	246
1591.99	268
1593.3	284
1594.61	306
1595.92	340
1597.23	418
1598.54	518
1599.85	610
1601.16	682
1602.47	670
1603.78	648
1605.08	556
1606.39	478
1607.7	382
1609	296
1610.31	254
1611.62	234
1612.92	226
1614.23	206
1615.53	192
1616.84	190
1618.14	158
1619.45	168
1620.75	176
1622.06	174
1623.36	166
1624.66	158
1625.96	160
1627.27	166
1628.57	152
1629.87	164
1631.17	160
1632.47	142
1633.77	156
1635.07	146
1636.37	146
1637.67	138
1638.97	150
1640.27	140
1641.57	148
1642.87	142
1644.17	160
1645.47	162
1646.76	156
1648.06	140
1649.36	134
1650.66	152
1651.95	138
1653.25	136
1654.54	136
1655.84	130
1657.13	128
1658.43	132
1659.72	128
1661.02	134
1662.31	120
1663.6	134
1664.9	124
1666.19	138
1667.48	136
1668.78	114
1670.07	114
1671.36	126
1672.65	130
1673.94	130
1675.23	124
1676.52	122
1677.81	134
1679.1	126
1680.39	132
1681.68	122
1682.97	124
1684.26	120
1685.55	122
1686.83	126
1688.12	126
1689.41	118
1690.7	128
1691.98	124
1693.27	114
1694.55	120
1695.84	114
1697.13	118
1698.41	124
1699.69	116
1700.98	116
1702.26	112