File: Mixture_Classification/Jesse_Dataset_v2/Pure Raman/Polystyrene/785nm/ps-ppo-6jan25-1,0000-map3_Y08_X00.txt
204.377	812
206.045	840
207.713	860
209.38	870
211.048	880
212.715	916
214.381	912
216.047	908
217.712	914
219.377	924
221.042	930
222.706	896
224.369	850
226.032	846
227.695	822
229.357	764
231.019	684
232.68	656
234.341	650
236.001	614
237.661	548
239.321	500
240.98	456
242.639	402
244.297	372
245.955	358
247.612	328
249.268	308
250.924	310
252.58	276
254.236	298
255.891	288
257.546	274
259.2	290
260.854	250
262.507	266
264.16	268
265.812	256
267.463	274
269.115	250
270.766	268
272.417	244
274.067	234
275.717	240
277.365	232
279.014	232
280.663	218
282.311	222
283.958	216
285.605	200
287.252	194
288.898	200
290.543	182
292.188	186
293.833	162
295.477	172
297.121	174
298.765	176
300.407	180
302.05	170
303.693	168
305.334	178
306.975	186
308.615	170
310.256	178
311.896	170
313.535	168
315.175	178
316.813	172
318.451	182
320.089	166
321.726	172
323.362	178
324.999	168
326.635	172
328.271	164
329.905	172
331.54	172
333.174	174
334.807	184
336.441	172
338.074	172
339.707	176
341.338	164
342.969	152
344.601	170
346.231	166
347.861	150
349.491	162
351.12	144
352.749	146
354.378	142
356.006	160
357.633	162
359.261	154
360.887	152
362.513	152
364.139	156
365.764	156
367.39	154
369.014	156
370.638	158
372.261	154
373.884	162
375.508	162
377.13	160
378.752	170
380.373	170
381.994	168
383.615	176
385.235	190
386.854	184
388.473	182
390.092	186
391.711	188
393.328	200
394.947	204
396.564	192
398.181	208
399.797	210
401.412	210
403.027	210
404.642	226
406.257	236
407.871	232
409.484	218
411.098	212
412.711	222
414.323	198
415.935	176
417.547	176
419.158	182
420.768	180
422.378	156
423.988	160
425.597	158
427.206	156
428.814	152
430.422	142
432.03	148
433.637	140
435.243	148
436.85	146
438.456	138
440.062	142
441.666	126
443.271	132
444.876	122
446.479	130
448.082	122
449.685	112
451.287	126
452.89	118
454.492	112
456.092	116
457.693	120
459.293	122
460.893	108
462.492	112
464.092	108
465.691	110
467.288	110
468.887	94
470.483	110
472.081	98
473.677	104
475.273	110
476.869	100
478.463	94
480.059	102
481.653	104
483.247	96
484.84	98
486.433	100
488.026	100
489.618	104
491.21	102
492.801	96
494.392	104
495.983	102
497.573	106
499.162	110
500.752	108
502.341	112
503.929	112
505.517	116
507.105	112
508.692	100
510.279	110
511.865	108
513.45	110
515.037	104
516.621	102
518.206	120
519.79	114
521.374	112
522.957	114
524.54	116
526.123	120
527.705	124
529.287	126
530.868	130
532.448	124
534.029	126
535.609	142
537.188	148
538.768	146
540.346	150
541.925	142
543.502	142
545.08	138
546.657	150
548.234	140
549.81	124
551.386	144
552.961	148
554.536	140
556.11	138
557.684	136
559.258	124
560.832	130
562.405	138
563.977	128
565.55	132
567.12	124
568.692	136
570.263	118
571.833	144
573.403	146
574.973	142
576.542	128
578.111	132
579.679	120
581.247	108
582.815	114
584.382	120
585.948	106
587.514	108
589.081	114
590.645	108
592.211	98
593.775	114
595.339	104
596.904	104
598.466	104
600.03	110
601.592	116
603.154	120
604.715	130
606.277	156
607.838	158
609.398	146
610.958	144
612.518	158
614.077	190
615.636	236
617.194	316
618.753	542
620.31	704
621.867	692
623.424	466
624.98	272
626.537	206
628.092	166
629.647	150
631.202	120
632.756	116
634.31	120
635.864	102
637.417	102
638.969	96
640.521	90
642.074	82
643.625	92
645.176	88
646.726	80
648.276	82
649.827	80
651.376	88
652.925	80
654.473	82
656.021	74
657.569	78
659.117	68
660.664	82
662.21	82
663.757	74
665.302	60
666.847	74
668.392	70
669.937	74
671.481	72
673.025	76
674.568	74
676.111	82
677.653	78
679.195	74
680.737	72
682.279	78
683.82	80
685.36	74
686.9	74
688.44	78
689.979	80
691.517	66
693.056	80
694.594	80
696.132	84
697.669	82
699.206	92
700.742	96
702.278	94
703.814	106
705.35	100
706.884	86
708.419	94
709.953	96
711.487	104
713.019	94
714.552	84
716.085	96
717.617	94
719.148	108
720.68	126
722.21	138
723.741	156
725.271	142
726.8	136
728.33	124
729.858	112
731.387	124
732.915	124
734.443	150
735.97	158
737.497	162
739.023	178
740.549	192
742.075	180
743.6	190
745.125	182
746.65	188
748.173	198
749.697	194
751.22	198
752.743	202
754.266	226
755.788	218
757.309	228
758.831	230
760.351	218
761.871	222
763.392	220
764.912	204
766.431	204
767.95	204
769.468	202
770.986	194
772.504	194
774.022	208
775.538	198
777.055	200
778.571	180
780.086	216
781.602	222
783.117	242
784.632	252
786.146	272
787.659	294
789.173	290
790.685	326
792.198	332
793.71	344
795.222	326
796.733	328
798.244	328
799.755	306
801.265	294
802.775	246
804.284	238
805.793	206
807.302	196
808.81	190
810.318	180
811.826	168
813.333	152
814.84	150
816.346	146
817.851	138
819.357	126
820.862	122
822.367	100
823.871	108
825.376	110
826.878	108
828.382	110
829.885	102
831.387	106
832.889	130
834.391	130
835.892	126
837.392	148
838.893	146
840.393	144
841.893	164
843.392	164
844.891	150
846.389	140
847.888	144
849.386	134
850.882	130
852.38	124
853.876	120
855.372	126
856.868	122
858.363	118
859.858	114
861.353	114
862.847	124
864.341	122
865.834	122
867.328	122
868.82	128
870.313	132
871.805	120
873.296	120
874.787	114
876.278	124
877.769	118
879.258	126
880.748	116
882.237	110
883.726	116
885.214	114
886.702	108
888.19	110
889.677	114
891.164	104
892.651	118
894.137	112
895.623	114
897.108	120
898.593	124
900.077	120
901.562	128
903.046	130
904.529	144
906.012	150
907.495	140
908.977	134
910.459	146
911.941	126
913.422	124
914.903	120
916.383	106
917.863	100
919.343	110
920.822	106
922.301	110
923.779	92
925.257	90
926.735	90
928.213	98
929.69	100
931.166	94
932.643	102
934.119	90
935.594	102
937.069	100
938.543	98
940.018	98
941.492	98
942.966	94
944.439	106
945.911	94
947.384	100
948.856	106
950.328	104
951.799	100
953.27	98
954.741	112
956.21	98
957.68	104
959.15	102
960.619	120
962.088	116
963.556	116
965.023	120
966.491	126
967.958	128
969.425	124
970.891	134
972.357	138
973.824	136
975.288	142
976.754	134
978.218	170
979.682	172
981.146	194
982.609	222
984.072	246
985.534	270
986.997	302
988.459	394
989.92	566
991.382	738
992.842	816
994.302	748
995.763	854
997.222	1240
998.681	1988
1000.14	2950
1001.6	3344
1003.06	2776
1004.52	1950
1005.97	1168
1007.43	682
1008.89	440
1010.34	314
1011.8	246
1013.25	204
1014.71	176
1016.16	186
1017.62	188
1019.07	202
1020.53	220
1021.98	260
1023.43	306
1024.89	402
1026.34	502
1027.79	632
1029.24	760
1030.69	860
1032.14	880
1033.59	802
1035.04	662
1036.49	518
1037.94	404
1039.39	310
1040.84	264
1042.29	218
1043.73	214
1045.18	194
1046.63	178
1048.08	176
1049.52	168
1050.97	164
1052.41	154
1053.86	148
1055.3	162
1056.75	150
1058.19	164
1059.64	158
1061.08	164
1062.52	162
1063.96	170
1065.41	168
1066.85	160
1068.29	168
1069.73	190
1071.17	182
1072.61	176
1074.05	174
1075.49	168
1076.93	166
1078.37	158
1079.81	168
1081.25	174
1082.68	162
1084.12	162
1085.56	162
1087	172
1088.43	168
1089.87	162
1091.3	174
1092.74	160
1094.17	168
1095.61	174
1097.04	170
1098.48	174
1099.91	168
1101.34	164
1102.78	154
1104.21	148
1105.64	148
1107.07	142
1108.5	132
1109.93	134
1111.36	122
1112.8	130
1114.22	130
1115.65	128
1117.08	122
1118.51	122
1119.94	110
1121.37	110
1122.8	108
1124.22	106
1125.65	104
1127.08	104
1128.5	106
1129.93	108
1131.35	112
1132.78	98
1134.2	112
1135.63	112
1137.05	118
1138.48	124
1139.9	126
1141.32	126
1142.75	130
1144.17	132
1145.59	158
1147.01	168
1148.43	186
1149.85	226
1151.27	288
1152.69	358
1154.11	394
1155.53	426
1156.95	374
1158.37	334
1159.79	274
1161.21	264
1162.62	230
1164.04	208
1165.46	200
1166.87	204
1168.29	218
1169.71	202
1171.12	220
1172.54	234
1173.95	266
1175.37	300
1176.78	336
1178.19	442
1179.61	482
1181.02	542
1182.43	512
1183.84	504
1185.26	454
1186.67	424
1188.08	424
1189.49	456
1190.9	450
1192.31	484
1193.72	490
1195.13	476
1196.54	498
1197.95	510
1199.36	492
1200.76	478
1202.17	474
1203.58	432
1204.99	406
1206.39	396
1207.8	346
1209.2	332
1210.61	292
1212.01	270
1213.42	236
1214.82	220
1216.23	236
1217.63	208
1219.03	206
1220.44	210
1221.84	200
1223.24	210
1224.64	190
1226.05	206
1227.45	196
1228.85	178
1230.25	172
1231.65	170
1233.05	172
1234.45	164
1235.85	172
1237.25	174
1238.64	162
1240.04	166
1241.44	164
1242.84	162
1244.23	168
1245.63	156
1247.03	152
1248.42	158
1249.82	168
1251.21	162
1252.61	164
1254	166
1255.4	166
1256.79	152
1258.19	164
1259.58	170
1260.97	164
1262.36	168
1263.76	160
1265.15	176
1266.54	160
1267.93	176
1269.32	166
1270.71	174
1272.1	176
1273.49	176
1274.88	174
1276.27	166
1277.66	158
1279.05	182
1280.43	168
1281.82	172
1283.21	170
1284.6	180
1285.98	164
1287.37	186
1288.75	170
1290.14	168
1291.53	174
1292.91	184
1294.29	194
1295.68	196
1297.06	208
1298.45	204
1299.83	216
1301.21	210
1302.59	214
1303.98	216
1305.36	230
1306.74	228
1308.12	222
1309.5	210
1310.88	222
1312.26	222
1313.64	238
1315.02	256
1316.4	240
1317.78	240
1319.16	254
1320.53	270
1321.91	268
1323.29	278
1324.67	288
1326.04	290
1327.42	296
1328.79	294
1330.17	286
1331.54	292
1332.92	282
1334.29	310
1335.67	286
1337.04	288
1338.42	272
1339.79	268
1341.16	264
1342.53	246
1343.91	254
1345.28	272
1346.65	254
1348.02	264
1349.39	274
1350.76	260
1352.13	246
1353.5	248
1354.87	268
1356.24	260
1357.61	262
1358.98	266
1360.34	268
1361.71	266
1363.08	272
1364.45	274
1365.81	270
1367.18	274
1368.54	262
1369.91	268
1371.28	284
1372.64	268
1374.01	268
1375.37	266
1376.73	282
1378.1	266
1379.46	258
1380.82	262
1382.19	258
1383.55	248
1384.91	244
1386.27	242
1387.63	230
1388.99	238
1390.35	214
1391.71	220
1393.07	228
1394.43	234
1395.79	218
1397.15	238
1398.51	228
1399.87	224
1401.23	222
1402.58	230
1403.94	236
1405.3	232
1406.65	242
1408.01	214
1409.37	228
1410.72	220
1412.08	210
1413.43	214
1414.79	228
1416.14	210
1417.49	214
1418.85	216
1420.2	214
1421.55	206
1422.91	218
1424.26	196
1425.61	224
1426.96	214
1428.31	216
1429.66	218
1431.01	220
1432.36	212
1433.71	234
1435.06	244
1436.41	246
1437.76	260
1439.11	264
1440.46	288
1441.81	298
1443.15	304
1444.5	292
1445.85	312
1447.19	340
1448.54	312
1449.89	340
1451.23	318
1452.58	306
1453.92	316
1455.27	266
1456.61	266
1457.95	244
1459.3	232
1460.64	212
1461.98	214
1463.33	198
1464.67	194
1466.01	196
1467.35	180
1468.69	192
1470.03	176
1471.37	186
1472.71	182
1474.05	174
1475.39	176
1476.73	174
1478.07	182
1479.41	200
1480.75	178
1482.09	176
1483.42	172
1484.76	176
1486.1	164
1487.43	180
1488.77	174
1490.11	174
1491.44	192
1492.78	164
1494.11	192
1495.45	176
1496.78	168
1498.12	170
1499.45	170
1500.78	158
1502.11	166
1503.45	168
1504.78	174
1506.11	146
1507.44	172
1508.77	156
1510.11	162
1511.44	162
1512.77	170
1514.1	152
1515.43	162
1516.76	150
1518.08	158
1519.41	162
1520.74	152
1522.07	156
1523.4	152
1524.72	154
1526.05	160
1527.38	158
1528.7	164
1530.03	160
1531.36	168
1532.68	150
1534.01	162
1535.33	172
1536.66	154
1537.98	162
1539.3	160
1540.63	162
1541.95	154
1543.27	156
1544.6	158
1545.92	166
1547.24	144
1548.56	162
1549.88	164
1551.2	156
1552.52	148
1553.84	160
1555.17	158
1556.48	158
1557.8	168
1559.12	158
1560.44	148
1561.76	164
1563.08	162
1564.4	160
1565.71	164
1567.03	174
1568.35	176
1569.66	180
1570.98	180
1572.29	184
1573.61	186
1574.93	214
1576.24	218
1577.55	234
1578.87	270
1580.18	326
1581.5	376
1582.81	424
1584.12	402
1585.43	356
1586.75	290
1588.06	254
1589.37	266
1590.68	252
1591.99	264
1593.3	270
1594.61	312
1595.92	362
1597.23	392
1598.54	532
1599.85	622
1601.16	688
1602.47	688
1603.78	634
1605.08	560
1606.39	464
1607.7	376
1609	318
1610.31	260
1611.62	240
1612.92	228
1614.23	200
1615.53	206
1616.84	194
1618.14	178
1619.45	184
1620.75	164
1622.06	170
1623.36	158
1624.66	166
1625.96	166
1627.27	150
1628.57	154
1629.87	156
1631.17	150
1632.47	148
1633.77	158
1635.07	132
1636.37	146
1637.67	146
1638.97	158
1640.27	148
1641.57	140
1642.87	154
1644.17	140
1645.47	162
1646.76	148
1648.06	146
1649.36	150
1650.66	150
1651.95	156
1653.25	136
1654.54	130
1655.84	134
1657.13	144
1658.43	136
1659.72	138
1661.02	130
1662.31	128
1663.6	136
1664.9	134
1666.19	118
1667.48	126
1668.78	128
1670.07	136
1671.36	128
1672.65	136
1673.94	126
1675.23	132
1676.52	130
1677.81	122
1679.1	126
1680.39	136
1681.68	126
1682.97	118
1684.26	128
1685.55	124
1686.83	124
1688.12	120
1689.41	114
1690.7	112
1691.98	122
1693.27	114
1694.55	132
1695.84	114
1697.13	128
1698.41	112
1699.69	116
1700.98	120
1702.26	118