File: Mixture_Classification/Jesse_Dataset_v2/Pure Raman/Polystyrene/785nm/ps-ppo-6jan25-1,0000-map3_Y10_X10.txt
204.377	822
206.045	852
207.713	856
209.38	884
211.048	902
212.715	924
214.381	910
216.047	900
217.712	928
219.377	924
221.042	924
222.706	900
224.369	890
226.032	866
227.695	814
229.357	754
231.019	718
232.68	678
234.341	620
236.001	606
237.661	532
239.321	480
240.98	466
242.639	410
244.297	374
245.955	356
247.612	334
249.268	318
250.924	298
252.58	312
254.236	292
255.891	278
257.546	266
259.2	270
260.854	274
262.507	270
264.16	264
265.812	264
267.463	260
269.115	248
270.766	268
272.417	240
274.067	250
275.717	240
277.365	240
279.014	238
280.663	220
282.311	208
283.958	204
285.605	212
287.252	208
288.898	200
290.543	190
292.188	192
293.833	174
295.477	182
297.121	182
298.765	168
300.407	186
302.05	164
303.693	174
305.334	172
306.975	180
308.615	168
310.256	170
311.896	174
313.535	178
315.175	170
316.813	172
318.451	170
320.089	178
321.726	172
323.362	172
324.999	172
326.635	174
328.271	178
329.905	170
331.54	162
333.174	174
334.807	170
336.441	166
338.074	176
339.707	164
341.338	162
342.969	172
344.601	154
346.231	168
347.861	150
349.491	152
351.12	164
352.749	146
354.378	154
356.006	150
357.633	152
359.261	154
360.887	152
362.513	144
364.139	154
365.764	150
367.39	168
369.014	154
370.638	172
372.261	162
373.884	164
375.508	164
377.13	148
378.752	174
380.373	178
381.994	176
383.615	174
385.235	182
386.854	182
388.473	194
390.092	196
391.711	200
393.328	190
394.947	204
396.564	192
398.181	206
399.797	204
401.412	212
403.027	230
404.642	236
406.257	238
407.871	224
409.484	226
411.098	210
412.711	196
414.323	196
415.935	194
417.547	178
419.158	182
420.768	174
422.378	176
423.988	166
425.597	158
427.206	154
428.814	150
430.422	142
432.03	148
433.637	138
435.243	142
436.85	136
438.456	140
440.062	142
441.666	146
443.271	138
444.876	138
446.479	138
448.082	128
449.685	128
451.287	120
452.89	124
454.492	118
456.092	122
457.693	112
459.293	114
460.893	106
462.492	108
464.092	104
465.691	114
467.288	114
468.887	106
470.483	106
472.081	108
473.677	108
475.273	106
476.869	108
478.463	108
480.059	102
481.653	100
483.247	100
484.84	102
486.433	104
488.026	96
489.618	104
491.21	94
492.801	100
494.392	102
495.983	102
497.573	110
499.162	104
500.752	120
502.341	118
503.929	106
505.517	114
507.105	112
508.692	116
510.279	114
511.865	100
513.45	110
515.037	116
516.621	110
518.206	110
519.79	104
521.374	108
522.957	116
524.54	102
526.123	126
527.705	124
529.287	126
530.868	132
532.448	132
534.029	134
535.609	144
537.188	136
538.768	150
540.346	166
541.925	150
543.502	152
545.08	152
546.657	146
548.234	144
549.81	140
551.386	138
552.961	148
554.536	134
556.11	148
557.684	146
559.258	134
560.832	140
562.405	140
563.977	134
565.55	124
567.12	136
568.692	132
570.263	130
571.833	130
573.403	142
574.973	146
576.542	138
578.111	128
579.679	112
581.247	108
582.815	118
584.382	108
585.948	118
587.514	114
589.081	110
590.645	110
592.211	118
593.775	110
595.339	116
596.904	110
598.466	122
600.03	118
601.592	110
603.154	118
604.715	138
606.277	144
607.838	166
609.398	148
610.958	136
612.518	154
614.077	184
615.636	232
617.194	328
618.753	526
620.31	742
621.867	674
623.424	452
624.98	288
626.537	186
628.092	154
629.647	144
631.202	136
632.756	126
634.31	124
635.864	106
637.417	102
638.969	98
640.521	100
642.074	84
643.625	86
645.176	80
646.726	90
648.276	86
649.827	84
651.376	84
652.925	80
654.473	92
656.021	86
657.569	80
659.117	82
660.664	84
662.21	82
663.757	80
665.302	80
666.847	82
668.392	78
669.937	78
671.481	84
673.025	84
674.568	80
676.111	82
677.653	86
679.195	78
680.737	72
682.279	80
683.82	84
685.36	78
686.9	78
688.44	76
689.979	84
691.517	88
693.056	74
694.594	76
696.132	84
697.669	92
699.206	88
700.742	94
702.278	94
703.814	100
705.35	110
706.884	100
708.419	102
709.953	94
711.487	94
713.019	92
714.552	94
716.085	104
717.617	100
719.148	114
720.68	116
722.21	138
723.741	150
725.271	152
726.8	150
728.33	128
729.858	132
731.387	114
732.915	130
734.443	130
735.97	146
737.497	156
739.023	158
740.549	172
742.075	178
743.6	178
745.125	188
746.65	180
748.173	190
749.697	190
751.22	196
752.743	220
754.266	210
755.788	210
757.309	238
758.831	238
760.351	242
761.871	232
763.392	228
764.912	224
766.431	226
767.95	224
769.468	194
770.986	196
772.504	202
774.022	204
775.538	194
777.055	200
778.571	200
780.086	214
781.602	224
783.117	246
784.632	258
786.146	286
787.659	280
789.173	308
790.685	324
792.198	338
793.71	336
795.222	358
796.733	340
798.244	328
799.755	302
801.265	286
802.775	250
804.284	228
805.793	212
807.302	204
808.81	186
810.318	180
811.826	164
813.333	164
814.84	168
816.346	152
817.851	144
819.357	126
820.862	122
822.367	112
823.871	112
825.376	104
826.878	114
828.382	108
829.885	112
831.387	120
832.889	130
834.391	126
835.892	142
837.392	146
838.893	154
840.393	154
841.893	166
843.392	148
844.891	150
846.389	154
847.888	150
849.386	136
850.882	134
852.38	130
853.876	132
855.372	116
856.868	128
858.363	126
859.858	118
861.353	134
862.847	126
864.341	126
865.834	116
867.328	120
868.82	128
870.313	122
871.805	128
873.296	120
874.787	118
876.278	120
877.769	130
879.258	110
880.748	116
882.237	116
883.726	116
885.214	112
886.702	102
888.19	114
889.677	114
891.164	108
892.651	112
894.137	116
895.623	122
897.108	120
898.593	118
900.077	134
901.562	134
903.046	138
904.529	154
906.012	140
907.495	148
908.977	140
910.459	136
911.941	116
913.422	130
914.903	126
916.383	112
917.863	106
919.343	92
920.822	104
922.301	98
923.779	94
925.257	100
926.735	92
928.213	104
929.69	104
931.166	96
932.643	90
934.119	102
935.594	90
937.069	96
938.543	106
940.018	102
941.492	104
942.966	98
944.439	104
945.911	92
947.384	104
948.856	98
950.328	96
951.799	110
953.27	114
954.741	106
956.21	106
957.68	106
959.15	110
960.619	116
962.088	126
963.556	118
965.023	120
966.491	134
967.958	140
969.425	136
970.891	134
972.357	138
973.824	140
975.288	152
976.754	156
978.218	166
979.682	188
981.146	192
982.609	216
984.072	248
985.534	284
986.997	316
988.459	408
989.92	628
991.382	792
992.842	884
994.302	842
995.763	856
997.222	1278
998.681	2010
1000.14	2880
1001.6	3336
1003.06	2802
1004.52	1886
1005.97	1158
1007.43	680
1008.89	438
1010.34	316
1011.8	240
1013.25	220
1014.71	212
1016.16	174
1017.62	178
1019.07	186
1020.53	218
1021.98	264
1023.43	316
1024.89	392
1026.34	520
1027.79	650
1029.24	776
1030.69	868
1032.14	906
1033.59	846
1035.04	680
1036.49	498
1037.94	398
1039.39	318
1040.84	276
1042.29	238
1043.73	208
1045.18	196
1046.63	182
1048.08	172
1049.52	166
1050.97	164
1052.41	154
1053.86	150
1055.3	152
1056.75	158
1058.19	162
1059.64	156
1061.08	156
1062.52	166
1063.96	158
1065.41	164
1066.85	176
1068.29	180
1069.73	186
1071.17	162
1072.61	172
1074.05	182
1075.49	170
1076.93	168
1078.37	180
1079.81	164
1081.25	174
1082.68	176
1084.12	174
1085.56	168
1087	164
1088.43	162
1089.87	168
1091.3	172
1092.74	162
1094.17	160
1095.61	176
1097.04	174
1098.48	180
1099.91	158
1101.34	174
1102.78	160
1104.21	144
1105.64	154
1107.07	138
1108.5	144
1109.93	144
1111.36	140
1112.8	134
1114.22	130
1115.65	126
1117.08	122
1118.51	114
1119.94	122
1121.37	120
1122.8	114
1124.22	108
1125.65	112
1127.08	110
1128.5	114
1129.93	114
1131.35	106
1132.78	118
1134.2	120
1135.63	122
1137.05	128
1138.48	124
1139.9	126
1141.32	134
1142.75	154
1144.17	152
1145.59	166
1147.01	174
1148.43	194
1149.85	228
1151.27	292
1152.69	360
1154.11	418
1155.53	436
1156.95	390
1158.37	334
1159.79	306
1161.21	258
1162.62	240
1164.04	216
1165.46	220
1166.87	208
1168.29	218
1169.71	214
1171.12	226
1172.54	234
1173.95	262
1175.37	308
1176.78	362
1178.19	438
1179.61	474
1181.02	508
1182.43	526
1183.84	514
1185.26	472
1186.67	448
1188.08	438
1189.49	458
1190.9	448
1192.31	474
1193.72	486
1195.13	492
1196.54	518
1197.95	498
1199.36	494
1200.76	478
1202.17	466
1203.58	440
1204.99	410
1206.39	382
1207.8	364
1209.2	326
1210.61	304
1212.01	284
1213.42	248
1214.82	238
1216.23	224
1217.63	218
1219.03	210
1220.44	212
1221.84	198
1223.24	200
1224.64	204
1226.05	202
1227.45	196
1228.85	198
1230.25	200
1231.65	194
1233.05	182
1234.45	186
1235.85	178
1237.25	178
1238.64	186
1240.04	174
1241.44	182
1242.84	162
1244.23	178
1245.63	170
1247.03	174
1248.42	184
1249.82	172
1251.21	180
1252.61	164
1254	180
1255.4	190
1256.79	180
1258.19	184
1259.58	178
1260.97	184
1262.36	178
1263.76	178
1265.15	168
1266.54	170
1267.93	172
1269.32	172
1270.71	172
1272.1	170
1273.49	164
1274.88	172
1276.27	190
1277.66	178
1279.05	186
1280.43	170
1281.82	172
1283.21	176
1284.6	192
1285.98	190
1287.37	190
1288.75	192
1290.14	192
1291.53	196
1292.91	190
1294.29	210
1295.68	198
1297.06	200
1298.45	216
1299.83	226
1301.21	216
1302.59	224
1303.98	222
1305.36	224
1306.74	238
1308.12	228
1309.5	260
1310.88	236
1312.26	234
1313.64	244
1315.02	248
1316.4	264
1317.78	250
1319.16	268
1320.53	266
1321.91	280
1323.29	284
1324.67	304
1326.04	308
1327.42	300
1328.79	316
1330.17	316
1331.54	306
1332.92	318
1334.29	304
1335.67	282
1337.04	296
1338.42	298
1339.79	288
1341.16	282
1342.53	288
1343.91	266
1345.28	258
1346.65	276
1348.02	282
1349.39	272
1350.76	288
1352.13	276
1353.5	288
1354.87	286
1356.24	268
1357.61	266
1358.98	268
1360.34	278
1361.71	264
1363.08	288
1364.45	306
1365.81	292
1367.18	298
1368.54	302
1369.91	290
1371.28	278
1372.64	292
1374.01	306
1375.37	304
1376.73	284
1378.1	286
1379.46	288
1380.82	266
1382.19	276
1383.55	274
1384.91	278
1386.27	258
1387.63	284
1388.99	256
1390.35	254
1391.71	252
1393.07	260
1394.43	246
1395.79	252
1397.15	244
1398.51	248
1399.87	250
1401.23	250
1402.58	244
1403.94	262
1405.3	264
1406.65	246
1408.01	224
1409.37	246
1410.72	246
1412.08	250
1413.43	228
1414.79	242
1416.14	228
1417.49	238
1418.85	234
1420.2	248
1421.55	240
1422.91	226
1424.26	220
1425.61	238
1426.96	224
1428.31	236
1429.66	242
1431.01	248
1432.36	234
1433.71	246
1435.06	262
1436.41	268
1437.76	274
1439.11	314
1440.46	298
1441.81	282
1443.15	312
1444.5	338
1445.85	352
1447.19	336
1448.54	322
1449.89	342
1451.23	344
1452.58	340
1453.92	308
1455.27	296
1456.61	296
1457.95	260
1459.3	244
1460.64	240
1461.98	212
1463.33	222
1464.67	212
1466.01	208
1467.35	208
1468.69	190
1470.03	206
1471.37	204
1472.71	202
1474.05	202
1475.39	196
1476.73	192
1478.07	198
1479.41	188
1480.75	198
1482.09	180
1483.42	194
1484.76	188
1486.1	174
1487.43	172
1488.77	196
1490.11	194
1491.44	192
1492.78	198
1494.11	200
1495.45	174
1496.78	190
1498.12	188
1499.45	176
1500.78	174
1502.11	186
1503.45	182
1504.78	188
1506.11	174
1507.44	176
1508.77	172
1510.11	178
1511.44	186
1512.77	178
1514.1	172
1515.43	174
1516.76	186
1518.08	188
1519.41	170
1520.74	178
1522.07	166
1523.4	176
1524.72	178
1526.05	192
1527.38	192
1528.7	160
1530.03	170
1531.36	160
1532.68	172
1534.01	170
1535.33	180
1536.66	176
1537.98	166
1539.3	172
1540.63	172
1541.95	178
1543.27	168
1544.6	182
1545.92	158
1547.24	180
1548.56	160
1549.88	176
1551.2	158
1552.52	170
1553.84	178
1555.17	182
1556.48	182
1557.8	176
1559.12	172
1560.44	164
1561.76	182
1563.08	166
1564.4	168
1565.71	180
1567.03	180
1568.35	190
1569.66	172
1570.98	192
1572.29	186
1573.61	214
1574.93	214
1576.24	230
1577.55	236
1578.87	278
1580.18	338
1581.5	408
1582.81	424
1584.12	384
1585.43	360
1586.75	306
1588.06	288
1589.37	268
1590.68	250
1591.99	276
1593.3	288
1594.61	320
1595.92	358
1597.23	432
1598.54	538
1599.85	628
1601.16	688
1602.47	702
1603.78	646
1605.08	572
1606.39	460
1607.7	370
1609	318
1610.31	286
1611.62	250
1612.92	226
1614.23	210
1615.53	208
1616.84	194
1618.14	180
1619.45	176
1620.75	184
1622.06	166
1623.36	174
1624.66	168
1625.96	172
1627.27	154
1628.57	160
1629.87	166
1631.17	164
1632.47	148
1633.77	154
1635.07	166
1636.37	160
1637.67	150
1638.97	162
1640.27	160
1641.57	164
1642.87	158
1644.17	164
1645.47	166
1646.76	148
1648.06	156
1649.36	162
1650.66	164
1651.95	150
1653.25	150
1654.54	142
1655.84	144
1657.13	130
1658.43	134
1659.72	140
1661.02	154
1662.31	134
1663.6	134
1664.9	140
1666.19	148
1667.48	138
1668.78	142
1670.07	148
1671.36	130
1672.65	130
1673.94	154
1675.23	130
1676.52	140
1677.81	142
1679.1	138
1680.39	142
1681.68	142
1682.97	134
1684.26	136
1685.55	138
1686.83	134
1688.12	132
1689.41	130
1690.7	116
1691.98	132
1693.27	126
1694.55	132
1695.84	128
1697.13	126
1698.41	128
1699.69	130
1700.98	116
1702.26	126