File: Mixture_Classification/Jesse_Dataset_v2/Pure Raman/Polystyrene/785nm/ps-ppo-6jan25-1,0000-map3_Y08_X09.txt
204.377	860
206.045	866
207.713	880
209.38	894
211.048	890
212.715	932
214.381	918
216.047	898
217.712	890
219.377	936
221.042	904
222.706	912
224.369	886
226.032	850
227.695	848
229.357	770
231.019	700
232.68	678
234.341	650
236.001	582
237.661	552
239.321	502
240.98	456
242.639	422
244.297	380
245.955	358
247.612	316
249.268	340
250.924	316
252.58	306
254.236	306
255.891	288
257.546	302
259.2	272
260.854	278
262.507	248
264.16	254
265.812	272
267.463	252
269.115	276
270.766	246
272.417	252
274.067	234
275.717	230
277.365	236
279.014	226
280.663	244
282.311	210
283.958	212
285.605	212
287.252	214
288.898	204
290.543	186
292.188	210
293.833	184
295.477	188
297.121	190
298.765	168
300.407	164
302.05	176
303.693	186
305.334	174
306.975	184
308.615	170
310.256	176
311.896	174
313.535	194
315.175	172
316.813	188
318.451	180
320.089	174
321.726	194
323.362	186
324.999	186
326.635	176
328.271	178
329.905	174
331.54	164
333.174	170
334.807	180
336.441	180
338.074	178
339.707	164
341.338	180
342.969	172
344.601	158
346.231	166
347.861	150
349.491	158
351.12	142
352.749	154
354.378	162
356.006	148
357.633	166
359.261	164
360.887	174
362.513	158
364.139	146
365.764	154
367.39	142
369.014	166
370.638	158
372.261	160
373.884	152
375.508	164
377.13	174
378.752	182
380.373	168
381.994	178
383.615	182
385.235	188
386.854	180
388.473	196
390.092	188
391.711	206
393.328	204
394.947	212
396.564	208
398.181	202
399.797	200
401.412	218
403.027	230
404.642	236
406.257	226
407.871	250
409.484	234
411.098	224
412.711	196
414.323	206
415.935	186
417.547	170
419.158	178
420.768	166
422.378	166
423.988	170
425.597	170
427.206	156
428.814	160
430.422	158
432.03	152
433.637	150
435.243	138
436.85	148
438.456	146
440.062	140
441.666	144
443.271	138
444.876	148
446.479	134
448.082	112
449.685	112
451.287	126
452.89	116
454.492	130
456.092	118
457.693	120
459.293	102
460.893	112
462.492	122
464.092	118
465.691	116
467.288	114
468.887	122
470.483	112
472.081	106
473.677	118
475.273	110
476.869	106
478.463	110
480.059	118
481.653	104
483.247	100
484.84	106
486.433	106
488.026	100
489.618	100
491.21	112
492.801	104
494.392	106
495.983	110
497.573	120
499.162	110
500.752	114
502.341	124
503.929	118
505.517	106
507.105	108
508.692	104
510.279	106
511.865	112
513.45	110
515.037	104
516.621	116
518.206	120
519.79	114
521.374	118
522.957	116
524.54	126
526.123	132
527.705	132
529.287	132
530.868	132
532.448	136
534.029	136
535.609	158
537.188	150
538.768	144
540.346	158
541.925	152
543.502	156
545.08	156
546.657	154
548.234	150
549.81	142
551.386	140
552.961	146
554.536	150
556.11	138
557.684	134
559.258	148
560.832	150
562.405	144
563.977	136
565.55	140
567.12	136
568.692	144
570.263	142
571.833	142
573.403	136
574.973	148
576.542	140
578.111	134
579.679	128
581.247	114
582.815	118
584.382	114
585.948	116
587.514	110
589.081	110
590.645	120
592.211	110
593.775	108
595.339	116
596.904	110
598.466	120
600.03	118
601.592	126
603.154	126
604.715	138
606.277	146
607.838	166
609.398	150
610.958	160
612.518	164
614.077	190
615.636	232
617.194	324
618.753	520
620.31	760
621.867	700
623.424	464
624.98	292
626.537	198
628.092	168
629.647	150
631.202	134
632.756	124
634.31	122
635.864	106
637.417	102
638.969	108
640.521	96
642.074	102
643.625	88
645.176	90
646.726	92
648.276	86
649.827	84
651.376	70
652.925	76
654.473	88
656.021	82
657.569	82
659.117	82
660.664	94
662.21	80
663.757	80
665.302	84
666.847	84
668.392	76
669.937	80
671.481	84
673.025	80
674.568	82
676.111	86
677.653	84
679.195	84
680.737	76
682.279	76
683.82	84
685.36	82
686.9	78
688.44	78
689.979	76
691.517	84
693.056	80
694.594	88
696.132	88
697.669	86
699.206	90
700.742	94
702.278	96
703.814	102
705.35	102
706.884	104
708.419	98
709.953	100
711.487	104
713.019	106
714.552	94
716.085	102
717.617	98
719.148	118
720.68	126
722.21	142
723.741	144
725.271	154
726.8	150
728.33	130
729.858	128
731.387	114
732.915	122
734.443	140
735.97	136
737.497	160
739.023	172
740.549	184
742.075	192
743.6	200
745.125	196
746.65	192
748.173	208
749.697	198
751.22	198
752.743	216
754.266	216
755.788	234
757.309	216
758.831	240
760.351	228
761.871	236
763.392	236
764.912	224
766.431	220
767.95	210
769.468	206
770.986	212
772.504	204
774.022	196
775.538	202
777.055	204
778.571	206
780.086	196
781.602	230
783.117	254
784.632	238
786.146	284
787.659	288
789.173	300
790.685	332
792.198	334
793.71	346
795.222	330
796.733	342
798.244	334
799.755	306
801.265	292
802.775	252
804.284	240
805.793	206
807.302	188
808.81	186
810.318	176
811.826	164
813.333	162
814.84	158
816.346	142
817.851	138
819.357	120
820.862	124
822.367	122
823.871	116
825.376	118
826.878	120
828.382	100
829.885	116
831.387	124
832.889	138
834.391	128
835.892	132
837.392	148
838.893	162
840.393	162
841.893	166
843.392	166
844.891	144
846.389	158
847.888	144
849.386	130
850.882	138
852.38	138
853.876	128
855.372	124
856.868	132
858.363	122
859.858	124
861.353	126
862.847	130
864.341	118
865.834	116
867.328	126
868.82	128
870.313	122
871.805	126
873.296	110
874.787	122
876.278	130
877.769	116
879.258	134
880.748	122
882.237	114
883.726	108
885.214	98
886.702	106
888.19	110
889.677	118
891.164	118
892.651	118
894.137	126
895.623	106
897.108	126
898.593	124
900.077	128
901.562	140
903.046	142
904.529	148
906.012	154
907.495	148
908.977	152
910.459	148
911.941	124
913.422	124
914.903	108
916.383	104
917.863	106
919.343	108
920.822	112
922.301	108
923.779	98
925.257	98
926.735	108
928.213	94
929.69	98
931.166	90
932.643	90
934.119	98
935.594	94
937.069	104
938.543	106
940.018	98
941.492	108
942.966	104
944.439	112
945.911	106
947.384	112
948.856	104
950.328	104
951.799	104
953.27	102
954.741	102
956.21	100
957.68	114
959.15	110
960.619	118
962.088	112
963.556	128
965.023	122
966.491	128
967.958	130
969.425	130
970.891	142
972.357	124
973.824	134
975.288	142
976.754	154
978.218	168
979.682	192
981.146	202
982.609	228
984.072	256
985.534	284
986.997	320
988.459	422
989.92	606
991.382	800
992.842	874
994.302	836
995.763	862
997.222	1268
998.681	1984
1000.14	2944
1001.6	3352
1003.06	2852
1004.52	1916
1005.97	1202
1007.43	692
1008.89	458
1010.34	316
1011.8	244
1013.25	210
1014.71	196
1016.16	202
1017.62	186
1019.07	198
1020.53	218
1021.98	256
1023.43	322
1024.89	410
1026.34	490
1027.79	648
1029.24	762
1030.69	890
1032.14	908
1033.59	832
1035.04	686
1036.49	556
1037.94	408
1039.39	324
1040.84	266
1042.29	230
1043.73	206
1045.18	192
1046.63	178
1048.08	176
1049.52	162
1050.97	164
1052.41	150
1053.86	166
1055.3	156
1056.75	150
1058.19	150
1059.64	160
1061.08	174
1062.52	166
1063.96	168
1065.41	170
1066.85	172
1068.29	178
1069.73	170
1071.17	174
1072.61	172
1074.05	174
1075.49	172
1076.93	178
1078.37	170
1079.81	176
1081.25	168
1082.68	176
1084.12	168
1085.56	162
1087	178
1088.43	168
1089.87	168
1091.3	170
1092.74	176
1094.17	168
1095.61	180
1097.04	178
1098.48	170
1099.91	172
1101.34	172
1102.78	160
1104.21	160
1105.64	146
1107.07	146
1108.5	144
1109.93	142
1111.36	130
1112.8	144
1114.22	128
1115.65	130
1117.08	128
1118.51	122
1119.94	122
1121.37	116
1122.8	114
1124.22	110
1125.65	104
1127.08	100
1128.5	112
1129.93	98
1131.35	100
1132.78	122
1134.2	114
1135.63	118
1137.05	124
1138.48	126
1139.9	132
1141.32	122
1142.75	138
1144.17	156
1145.59	174
1147.01	176
1148.43	202
1149.85	236
1151.27	294
1152.69	368
1154.11	396
1155.53	402
1156.95	372
1158.37	330
1159.79	286
1161.21	262
1162.62	228
1164.04	218
1165.46	214
1166.87	212
1168.29	192
1169.71	220
1171.12	224
1172.54	242
1173.95	272
1175.37	324
1176.78	356
1178.19	432
1179.61	484
1181.02	528
1182.43	510
1183.84	514
1185.26	476
1186.67	440
1188.08	436
1189.49	432
1190.9	464
1192.31	500
1193.72	496
1195.13	504
1196.54	520
1197.95	494
1199.36	482
1200.76	480
1202.17	456
1203.58	448
1204.99	408
1206.39	376
1207.8	354
1209.2	324
1210.61	294
1212.01	276
1213.42	250
1214.82	236
1216.23	214
1217.63	214
1219.03	198
1220.44	214
1221.84	204
1223.24	194
1224.64	198
1226.05	208
1227.45	198
1228.85	186
1230.25	182
1231.65	180
1233.05	182
1234.45	170
1235.85	184
1237.25	188
1238.64	172
1240.04	176
1241.44	178
1242.84	172
1244.23	180
1245.63	180
1247.03	172
1248.42	166
1249.82	186
1251.21	164
1252.61	184
1254	188
1255.4	180
1256.79	174
1258.19	178
1259.58	172
1260.97	174
1262.36	180
1263.76	166
1265.15	176
1266.54	200
1267.93	170
1269.32	180
1270.71	162
1272.1	172
1273.49	168
1274.88	180
1276.27	172
1277.66	168
1279.05	174
1280.43	176
1281.82	190
1283.21	178
1284.6	184
1285.98	166
1287.37	180
1288.75	188
1290.14	192
1291.53	196
1292.91	204
1294.29	200
1295.68	204
1297.06	220
1298.45	208
1299.83	212
1301.21	208
1302.59	224
1303.98	234
1305.36	230
1306.74	236
1308.12	232
1309.5	230
1310.88	240
1312.26	252
1313.64	234
1315.02	242
1316.4	248
1317.78	272
1319.16	276
1320.53	286
1321.91	280
1323.29	310
1324.67	310
1326.04	274
1327.42	298
1328.79	286
1330.17	316
1331.54	308
1332.92	318
1334.29	306
1335.67	296
1337.04	300
1338.42	266
1339.79	292
1341.16	276
1342.53	276
1343.91	278
1345.28	280
1346.65	278
1348.02	276
1349.39	270
1350.76	274
1352.13	286
1353.5	274
1354.87	284
1356.24	264
1357.61	284
1358.98	270
1360.34	272
1361.71	294
1363.08	288
1364.45	270
1365.81	302
1367.18	298
1368.54	304
1369.91	296
1371.28	292
1372.64	286
1374.01	278
1375.37	292
1376.73	300
1378.1	290
1379.46	270
1380.82	270
1382.19	274
1383.55	266
1384.91	260
1386.27	258
1387.63	258
1388.99	256
1390.35	258
1391.71	248
1393.07	246
1394.43	230
1395.79	250
1397.15	254
1398.51	248
1399.87	250
1401.23	250
1402.58	240
1403.94	260
1405.3	238
1406.65	248
1408.01	234
1409.37	236
1410.72	238
1412.08	246
1413.43	232
1414.79	228
1416.14	222
1417.49	240
1418.85	234
1420.2	224
1421.55	244
1422.91	234
1424.26	226
1425.61	236
1426.96	244
1428.31	232
1429.66	210
1431.01	246
1432.36	246
1433.71	242
1435.06	264
1436.41	254
1437.76	266
1439.11	288
1440.46	270
1441.81	292
1443.15	324
1444.5	336
1445.85	312
1447.19	336
1448.54	336
1449.89	328
1451.23	316
1452.58	338
1453.92	340
1455.27	304
1456.61	282
1457.95	272
1459.3	242
1460.64	242
1461.98	210
1463.33	208
1464.67	212
1466.01	208
1467.35	212
1468.69	206
1470.03	194
1471.37	208
1472.71	200
1474.05	202
1475.39	190
1476.73	200
1478.07	198
1479.41	196
1480.75	182
1482.09	198
1483.42	194
1484.76	186
1486.1	196
1487.43	180
1488.77	180
1490.11	184
1491.44	192
1492.78	218
1494.11	186
1495.45	200
1496.78	188
1498.12	182
1499.45	176
1500.78	178
1502.11	192
1503.45	176
1504.78	176
1506.11	184
1507.44	190
1508.77	182
1510.11	188
1511.44	166
1512.77	184
1514.1	168
1515.43	168
1516.76	174
1518.08	170
1519.41	184
1520.74	162
1522.07	174
1523.4	168
1524.72	174
1526.05	174
1527.38	180
1528.7	170
1530.03	164
1531.36	178
1532.68	172
1534.01	182
1535.33	166
1536.66	172
1537.98	166
1539.3	174
1540.63	158
1541.95	172
1543.27	170
1544.6	170
1545.92	170
1547.24	168
1548.56	164
1549.88	178
1551.2	174
1552.52	174
1553.84	158
1555.17	164
1556.48	172
1557.8	168
1559.12	164
1560.44	170
1561.76	170
1563.08	170
1564.4	170
1565.71	190
1567.03	188
1568.35	192
1569.66	186
1570.98	190
1572.29	198
1573.61	188
1574.93	210
1576.24	220
1577.55	234
1578.87	294
1580.18	340
1581.5	380
1582.81	440
1584.12	410
1585.43	350
1586.75	308
1588.06	264
1589.37	248
1590.68	252
1591.99	268
1593.3	292
1594.61	298
1595.92	356
1597.23	424
1598.54	530
1599.85	612
1601.16	664
1602.47	702
1603.78	632
1605.08	548
1606.39	466
1607.7	366
1609	330
1610.31	288
1611.62	242
1612.92	232
1614.23	224
1615.53	204
1616.84	198
1618.14	190
1619.45	184
1620.75	180
1622.06	166
1623.36	180
1624.66	156
1625.96	170
1627.27	152
1628.57	154
1629.87	170
1631.17	158
1632.47	158
1633.77	156
1635.07	152
1636.37	162
1637.67	148
1638.97	150
1640.27	148
1641.57	160
1642.87	168
1644.17	160
1645.47	158
1646.76	160
1648.06	162
1649.36	146
1650.66	164
1651.95	150
1653.25	144
1654.54	142
1655.84	134
1657.13	144
1658.43	146
1659.72	146
1661.02	142
1662.31	138
1663.6	126
1664.9	136
1666.19	142
1667.48	134
1668.78	138
1670.07	146
1671.36	148
1672.65	126
1673.94	132
1675.23	136
1676.52	128
1677.81	144
1679.1	128
1680.39	134
1681.68	134
1682.97	140
1684.26	124
1685.55	134
1686.83	134
1688.12	124
1689.41	132
1690.7	126
1691.98	128
1693.27	124
1694.55	130
1695.84	130
1697.13	120
1698.41	132
1699.69	132
1700.98	126
1702.26	128