File: Mixture_Classification/Jesse_Dataset_v2/Pure Raman/Polystyrene/785nm/ps-ppo-6jan25-1,0000-map3_Y06_X02.txt
204.377	814
206.045	838
207.713	864
209.38	888
211.048	854
212.715	866
214.381	924
216.047	886
217.712	928
219.377	880
221.042	910
222.706	896
224.369	882
226.032	854
227.695	798
229.357	748
231.019	722
232.68	694
234.341	664
236.001	548
237.661	526
239.321	486
240.98	468
242.639	408
244.297	362
245.955	350
247.612	348
249.268	330
250.924	308
252.58	296
254.236	316
255.891	286
257.546	282
259.2	270
260.854	268
262.507	272
264.16	254
265.812	240
267.463	240
269.115	244
270.766	236
272.417	232
274.067	234
275.717	236
277.365	230
279.014	240
280.663	224
282.311	220
283.958	214
285.605	218
287.252	200
288.898	192
290.543	194
292.188	178
293.833	176
295.477	180
297.121	170
298.765	168
300.407	160
302.05	172
303.693	164
305.334	168
306.975	170
308.615	186
310.256	156
311.896	180
313.535	174
315.175	168
316.813	178
318.451	174
320.089	168
321.726	168
323.362	170
324.999	172
326.635	172
328.271	170
329.905	166
331.54	168
333.174	172
334.807	178
336.441	168
338.074	150
339.707	162
341.338	162
342.969	158
344.601	156
346.231	154
347.861	158
349.491	154
351.12	146
352.749	148
354.378	156
356.006	154
357.633	144
359.261	158
360.887	136
362.513	148
364.139	160
365.764	158
367.39	154
369.014	142
370.638	152
372.261	156
373.884	160
375.508	162
377.13	160
378.752	170
380.373	176
381.994	164
383.615	166
385.235	180
386.854	166
388.473	190
390.092	192
391.711	190
393.328	188
394.947	180
396.564	186
398.181	202
399.797	200
401.412	214
403.027	224
404.642	240
406.257	234
407.871	230
409.484	232
411.098	218
412.711	198
414.323	198
415.935	180
417.547	176
419.158	166
420.768	168
422.378	162
423.988	166
425.597	150
427.206	150
428.814	156
430.422	138
432.03	150
433.637	144
435.243	138
436.85	142
438.456	146
440.062	116
441.666	132
443.271	130
444.876	130
446.479	130
448.082	114
449.685	122
451.287	122
452.89	114
454.492	110
456.092	114
457.693	112
459.293	108
460.893	102
462.492	102
464.092	98
465.691	104
467.288	114
468.887	104
470.483	108
472.081	116
473.677	104
475.273	100
476.869	94
478.463	98
480.059	96
481.653	96
483.247	100
484.84	98
486.433	96
488.026	96
489.618	94
491.21	92
492.801	102
494.392	102
495.983	102
497.573	98
499.162	112
500.752	104
502.341	112
503.929	114
505.517	108
507.105	100
508.692	112
510.279	104
511.865	106
513.45	106
515.037	114
516.621	100
518.206	112
519.79	106
521.374	110
522.957	108
524.54	114
526.123	110
527.705	108
529.287	114
530.868	116
532.448	128
534.029	138
535.609	140
537.188	146
538.768	144
540.346	146
541.925	154
543.502	156
545.08	152
546.657	152
548.234	146
549.81	138
551.386	136
552.961	136
554.536	132
556.11	132
557.684	138
559.258	140
560.832	136
562.405	130
563.977	132
565.55	126
567.12	130
568.692	132
570.263	136
571.833	146
573.403	146
574.973	140
576.542	130
578.111	118
579.679	106
581.247	118
582.815	120
584.382	112
585.948	114
587.514	118
589.081	106
590.645	106
592.211	110
593.775	108
595.339	108
596.904	106
598.466	110
600.03	124
601.592	116
603.154	110
604.715	142
606.277	130
607.838	128
609.398	144
610.958	134
612.518	142
614.077	182
615.636	230
617.194	302
618.753	518
620.31	720
621.867	694
623.424	460
624.98	286
626.537	196
628.092	150
629.647	148
631.202	136
632.756	122
634.31	112
635.864	102
637.417	106
638.969	82
640.521	90
642.074	86
643.625	86
645.176	82
646.726	88
648.276	80
649.827	74
651.376	82
652.925	74
654.473	76
656.021	68
657.569	78
659.117	78
660.664	74
662.21	80
663.757	84
665.302	82
666.847	72
668.392	70
669.937	72
671.481	74
673.025	78
674.568	76
676.111	82
677.653	78
679.195	80
680.737	76
682.279	70
683.82	76
685.36	70
686.9	80
688.44	70
689.979	78
691.517	72
693.056	78
694.594	86
696.132	88
697.669	78
699.206	90
700.742	96
702.278	102
703.814	102
705.35	94
706.884	88
708.419	100
709.953	98
711.487	96
713.019	90
714.552	98
716.085	94
717.617	96
719.148	114
720.68	112
722.21	138
723.741	132
725.271	144
726.8	138
728.33	132
729.858	134
731.387	120
732.915	110
734.443	132
735.97	144
737.497	164
739.023	170
740.549	172
742.075	190
743.6	182
745.125	172
746.65	176
748.173	186
749.697	182
751.22	180
752.743	204
754.266	224
755.788	226
757.309	240
758.831	222
760.351	228
761.871	234
763.392	220
764.912	220
766.431	204
767.95	220
769.468	202
770.986	210
772.504	182
774.022	182
775.538	190
777.055	190
778.571	210
780.086	202
781.602	226
783.117	244
784.632	254
786.146	272
787.659	302
789.173	294
790.685	302
792.198	312
793.71	338
795.222	354
796.733	342
798.244	324
799.755	302
801.265	298
802.775	262
804.284	234
805.793	194
807.302	196
808.81	192
810.318	188
811.826	162
813.333	168
814.84	158
816.346	148
817.851	140
819.357	126
820.862	118
822.367	116
823.871	122
825.376	104
826.878	112
828.382	104
829.885	120
831.387	114
832.889	112
834.391	130
835.892	132
837.392	140
838.893	146
840.393	162
841.893	164
843.392	148
844.891	150
846.389	148
847.888	132
849.386	136
850.882	124
852.38	126
853.876	120
855.372	122
856.868	122
858.363	132
859.858	124
861.353	108
862.847	124
864.341	128
865.834	120
867.328	116
868.82	122
870.313	122
871.805	110
873.296	124
874.787	126
876.278	118
877.769	118
879.258	124
880.748	108
882.237	104
883.726	110
885.214	108
886.702	114
888.19	106
889.677	114
891.164	116
892.651	120
894.137	112
895.623	118
897.108	108
898.593	122
900.077	128
901.562	136
903.046	136
904.529	130
906.012	148
907.495	140
908.977	146
910.459	130
911.941	120
913.422	120
914.903	116
916.383	114
917.863	112
919.343	106
920.822	108
922.301	96
923.779	102
925.257	96
926.735	90
928.213	90
929.69	100
931.166	88
932.643	94
934.119	96
935.594	92
937.069	98
938.543	104
940.018	92
941.492	92
942.966	90
944.439	102
945.911	94
947.384	104
948.856	98
950.328	92
951.799	98
953.27	104
954.741	94
956.21	104
957.68	110
959.15	106
960.619	124
962.088	122
963.556	124
965.023	120
966.491	132
967.958	120
969.425	138
970.891	126
972.357	110
973.824	138
975.288	148
976.754	160
978.218	168
979.682	168
981.146	196
982.609	222
984.072	250
985.534	276
986.997	314
988.459	392
989.92	560
991.382	744
992.842	808
994.302	770
995.763	842
997.222	1182
998.681	1964
1000.14	2980
1001.6	3398
1003.06	2818
1004.52	1946
1005.97	1164
1007.43	688
1008.89	446
1010.34	298
1011.8	236
1013.25	202
1014.71	194
1016.16	174
1017.62	188
1019.07	190
1020.53	214
1021.98	264
1023.43	328
1024.89	358
1026.34	482
1027.79	624
1029.24	772
1030.69	828
1032.14	902
1033.59	832
1035.04	674
1036.49	516
1037.94	394
1039.39	334
1040.84	250
1042.29	212
1043.73	200
1045.18	190
1046.63	174
1048.08	170
1049.52	164
1050.97	148
1052.41	152
1053.86	150
1055.3	140
1056.75	156
1058.19	154
1059.64	154
1061.08	158
1062.52	156
1063.96	174
1065.41	164
1066.85	168
1068.29	168
1069.73	170
1071.17	178
1072.61	168
1074.05	164
1075.49	176
1076.93	166
1078.37	156
1079.81	174
1081.25	162
1082.68	172
1084.12	166
1085.56	178
1087	168
1088.43	162
1089.87	166
1091.3	162
1092.74	164
1094.17	168
1095.61	172
1097.04	164
1098.48	164
1099.91	164
1101.34	168
1102.78	156
1104.21	166
1105.64	150
1107.07	138
1108.5	136
1109.93	138
1111.36	134
1112.8	126
1114.22	130
1115.65	126
1117.08	120
1118.51	106
1119.94	114
1121.37	108
1122.8	106
1124.22	104
1125.65	106
1127.08	98
1128.5	102
1129.93	104
1131.35	106
1132.78	104
1134.2	104
1135.63	102
1137.05	118
1138.48	118
1139.9	124
1141.32	134
1142.75	142
1144.17	148
1145.59	168
1147.01	166
1148.43	200
1149.85	244
1151.27	270
1152.69	360
1154.11	396
1155.53	430
1156.95	396
1158.37	330
1159.79	288
1161.21	244
1162.62	220
1164.04	222
1165.46	206
1166.87	204
1168.29	202
1169.71	220
1171.12	216
1172.54	236
1173.95	276
1175.37	290
1176.78	348
1178.19	422
1179.61	472
1181.02	524
1182.43	548
1183.84	506
1185.26	462
1186.67	416
1188.08	430
1189.49	420
1190.9	452
1192.31	462
1193.72	484
1195.13	504
1196.54	512
1197.95	502
1199.36	494
1200.76	494
1202.17	466
1203.58	438
1204.99	424
1206.39	384
1207.8	358
1209.2	296
1210.61	292
1212.01	276
1213.42	234
1214.82	234
1216.23	202
1217.63	204
1219.03	204
1220.44	196
1221.84	208
1223.24	198
1224.64	194
1226.05	190
1227.45	184
1228.85	200
1230.25	182
1231.65	174
1233.05	158
1234.45	172
1235.85	164
1237.25	160
1238.64	166
1240.04	174
1241.44	184
1242.84	162
1244.23	178
1245.63	170
1247.03	156
1248.42	172
1249.82	180
1251.21	166
1252.61	160
1254	160
1255.4	158
1256.79	168
1258.19	164
1259.58	166
1260.97	166
1262.36	170
1263.76	156
1265.15	168
1266.54	158
1267.93	170
1269.32	168
1270.71	170
1272.1	176
1273.49	156
1274.88	170
1276.27	180
1277.66	166
1279.05	164
1280.43	184
1281.82	166
1283.21	174
1284.6	198
1285.98	174
1287.37	170
1288.75	178
1290.14	184
1291.53	192
1292.91	192
1294.29	210
1295.68	176
1297.06	194
1298.45	196
1299.83	204
1301.21	210
1302.59	214
1303.98	216
1305.36	212
1306.74	214
1308.12	240
1309.5	212
1310.88	240
1312.26	222
1313.64	228
1315.02	228
1316.4	242
1317.78	248
1319.16	258
1320.53	252
1321.91	272
1323.29	278
1324.67	278
1326.04	286
1327.42	310
1328.79	290
1330.17	290
1331.54	292
1332.92	296
1334.29	284
1335.67	292
1337.04	270
1338.42	280
1339.79	268
1341.16	266
1342.53	262
1343.91	254
1345.28	262
1346.65	264
1348.02	252
1349.39	268
1350.76	282
1352.13	256
1353.5	254
1354.87	270
1356.24	252
1357.61	244
1358.98	264
1360.34	272
1361.71	240
1363.08	264
1364.45	262
1365.81	260
1367.18	274
1368.54	276
1369.91	260
1371.28	282
1372.64	270
1374.01	288
1375.37	258
1376.73	262
1378.1	252
1379.46	268
1380.82	264
1382.19	244
1383.55	254
1384.91	242
1386.27	242
1387.63	242
1388.99	222
1390.35	234
1391.71	232
1393.07	228
1394.43	230
1395.79	222
1397.15	220
1398.51	226
1399.87	234
1401.23	220
1402.58	220
1403.94	224
1405.3	208
1406.65	236
1408.01	216
1409.37	224
1410.72	216
1412.08	222
1413.43	222
1414.79	220
1416.14	214
1417.49	208
1418.85	230
1420.2	212
1421.55	210
1422.91	196
1424.26	216
1425.61	186
1426.96	222
1428.31	232
1429.66	220
1431.01	220
1432.36	224
1433.71	242
1435.06	248
1436.41	244
1437.76	274
1439.11	280
1440.46	286
1441.81	278
1443.15	304
1444.5	298
1445.85	312
1447.19	328
1448.54	338
1449.89	314
1451.23	312
1452.58	314
1453.92	304
1455.27	270
1456.61	268
1457.95	242
1459.3	236
1460.64	224
1461.98	210
1463.33	194
1464.67	196
1466.01	194
1467.35	184
1468.69	186
1470.03	190
1471.37	192
1472.71	194
1474.05	176
1475.39	182
1476.73	192
1478.07	178
1479.41	178
1480.75	182
1482.09	162
1483.42	166
1484.76	184
1486.1	180
1487.43	176
1488.77	166
1490.11	178
1491.44	182
1492.78	186
1494.11	182
1495.45	170
1496.78	182
1498.12	176
1499.45	170
1500.78	164
1502.11	182
1503.45	158
1504.78	166
1506.11	164
1507.44	162
1508.77	166
1510.11	164
1511.44	164
1512.77	160
1514.1	156
1515.43	172
1516.76	156
1518.08	164
1519.41	162
1520.74	156
1522.07	158
1523.4	146
1524.72	160
1526.05	158
1527.38	164
1528.7	158
1530.03	162
1531.36	162
1532.68	166
1534.01	150
1535.33	158
1536.66	164
1537.98	154
1539.3	170
1540.63	162
1541.95	142
1543.27	156
1544.6	146
1545.92	156
1547.24	160
1548.56	156
1549.88	160
1551.2	150
1552.52	150
1553.84	152
1555.17	170
1556.48	174
1557.8	160
1559.12	160
1560.44	154
1561.76	168
1563.08	160
1564.4	162
1565.71	174
1567.03	168
1568.35	172
1569.66	168
1570.98	188
1572.29	184
1573.61	206
1574.93	192
1576.24	228
1577.55	238
1578.87	274
1580.18	310
1581.5	386
1582.81	428
1584.12	400
1585.43	342
1586.75	296
1588.06	260
1589.37	248
1590.68	246
1591.99	258
1593.3	272
1594.61	322
1595.92	372
1597.23	414
1598.54	518
1599.85	600
1601.16	708
1602.47	688
1603.78	628
1605.08	554
1606.39	458
1607.7	366
1609	322
1610.31	280
1611.62	238
1612.92	234
1614.23	210
1615.53	192
1616.84	176
1618.14	192
1619.45	172
1620.75	170
1622.06	164
1623.36	162
1624.66	160
1625.96	154
1627.27	146
1628.57	146
1629.87	136
1631.17	148
1632.47	146
1633.77	142
1635.07	156
1636.37	148
1637.67	150
1638.97	140
1640.27	146
1641.57	148
1642.87	142
1644.17	142
1645.47	148
1646.76	148
1648.06	162
1649.36	146
1650.66	138
1651.95	142
1653.25	140
1654.54	136
1655.84	136
1657.13	134
1658.43	134
1659.72	134
1661.02	142
1662.31	122
1663.6	124
1664.9	126
1666.19	126
1667.48	132
1668.78	132
1670.07	124
1671.36	122
1672.65	136
1673.94	122
1675.23	116
1676.52	124
1677.81	132
1679.1	136
1680.39	124
1681.68	130
1682.97	126
1684.26	120
1685.55	126
1686.83	126
1688.12	126
1689.41	116
1690.7	114
1691.98	118
1693.27	114
1694.55	108
1695.84	122
1697.13	114
1698.41	128
1699.69	112
1700.98	128
1702.26	116