File: Mixture_Classification/Jesse_Dataset_v2/Pure Raman/Polystyrene/785nm/ps-ppo-6jan25-1,0000-map3_Y07_X04.txt
204.377	852
206.045	878
207.713	878
209.38	900
211.048	872
212.715	912
214.381	932
216.047	926
217.712	924
219.377	952
221.042	930
222.706	922
224.369	878
226.032	874
227.695	824
229.357	772
231.019	740
232.68	676
234.341	652
236.001	604
237.661	566
239.321	514
240.98	476
242.639	428
244.297	390
245.955	376
247.612	342
249.268	344
250.924	322
252.58	326
254.236	290
255.891	288
257.546	284
259.2	284
260.854	280
262.507	284
264.16	270
265.812	278
267.463	252
269.115	274
270.766	262
272.417	262
274.067	258
275.717	276
277.365	258
279.014	244
280.663	220
282.311	248
283.958	226
285.605	222
287.252	218
288.898	204
290.543	208
292.188	206
293.833	194
295.477	196
297.121	176
298.765	186
300.407	178
302.05	178
303.693	184
305.334	180
306.975	190
308.615	174
310.256	180
311.896	182
313.535	194
315.175	196
316.813	196
318.451	186
320.089	198
321.726	192
323.362	164
324.999	176
326.635	190
328.271	184
329.905	190
331.54	176
333.174	186
334.807	200
336.441	192
338.074	170
339.707	178
341.338	180
342.969	178
344.601	168
346.231	166
347.861	172
349.491	170
351.12	170
352.749	160
354.378	170
356.006	172
357.633	172
359.261	162
360.887	166
362.513	166
364.139	176
365.764	156
367.39	170
369.014	170
370.638	176
372.261	172
373.884	176
375.508	158
377.13	186
378.752	182
380.373	194
381.994	176
383.615	196
385.235	196
386.854	206
388.473	212
390.092	198
391.711	204
393.328	212
394.947	214
396.564	234
398.181	216
399.797	226
401.412	232
403.027	252
404.642	258
406.257	262
407.871	264
409.484	246
411.098	226
412.711	232
414.323	222
415.935	198
417.547	200
419.158	196
420.768	190
422.378	194
423.988	176
425.597	172
427.206	166
428.814	156
430.422	170
432.03	164
433.637	168
435.243	160
436.85	156
438.456	166
440.062	162
441.666	158
443.271	168
444.876	156
446.479	156
448.082	144
449.685	136
451.287	144
452.89	136
454.492	144
456.092	136
457.693	132
459.293	132
460.893	128
462.492	122
464.092	128
465.691	128
467.288	126
468.887	134
470.483	130
472.081	138
473.677	124
475.273	126
476.869	130
478.463	124
480.059	128
481.653	124
483.247	128
484.84	120
486.433	120
488.026	118
489.618	112
491.21	128
492.801	116
494.392	116
495.983	126
497.573	122
499.162	134
500.752	128
502.341	124
503.929	144
505.517	136
507.105	126
508.692	118
510.279	134
511.865	142
513.45	126
515.037	132
516.621	124
518.206	128
519.79	134
521.374	130
522.957	138
524.54	132
526.123	144
527.705	140
529.287	148
530.868	154
532.448	158
534.029	154
535.609	168
537.188	168
538.768	166
540.346	170
541.925	178
543.502	188
545.08	160
546.657	162
548.234	146
549.81	172
551.386	164
552.961	162
554.536	152
556.11	166
557.684	158
559.258	160
560.832	160
562.405	152
563.977	156
565.55	154
567.12	168
568.692	152
570.263	164
571.833	154
573.403	170
574.973	170
576.542	144
578.111	154
579.679	144
581.247	132
582.815	132
584.382	122
585.948	124
587.514	136
589.081	134
590.645	136
592.211	132
593.775	130
595.339	136
596.904	134
598.466	134
600.03	146
601.592	140
603.154	140
604.715	154
606.277	170
607.838	174
609.398	170
610.958	160
612.518	170
614.077	194
615.636	242
617.194	348
618.753	532
620.31	744
621.867	724
623.424	484
624.98	314
626.537	224
628.092	178
629.647	176
631.202	162
632.756	144
634.31	134
635.864	132
637.417	110
638.969	114
640.521	112
642.074	118
643.625	104
645.176	100
646.726	104
648.276	106
649.827	98
651.376	98
652.925	102
654.473	102
656.021	102
657.569	94
659.117	94
660.664	84
662.21	96
663.757	96
665.302	108
666.847	84
668.392	100
669.937	92
671.481	98
673.025	96
674.568	90
676.111	92
677.653	88
679.195	92
680.737	88
682.279	94
683.82	90
685.36	98
686.9	88
688.44	92
689.979	98
691.517	98
693.056	98
694.594	100
696.132	108
697.669	104
699.206	106
700.742	108
702.278	116
703.814	116
705.35	114
706.884	120
708.419	110
709.953	114
711.487	108
713.019	118
714.552	108
716.085	114
717.617	114
719.148	114
720.68	136
722.21	132
723.741	146
725.271	158
726.8	162
728.33	144
729.858	144
731.387	144
732.915	148
734.443	154
735.97	174
737.497	172
739.023	188
740.549	188
742.075	194
743.6	212
745.125	210
746.65	206
748.173	196
749.697	204
751.22	208
752.743	218
754.266	228
755.788	242
757.309	250
758.831	240
760.351	250
761.871	248
763.392	256
764.912	240
766.431	224
767.95	218
769.468	216
770.986	222
772.504	218
774.022	212
775.538	218
777.055	202
778.571	224
780.086	226
781.602	232
783.117	254
784.632	268
786.146	292
787.659	310
789.173	324
790.685	330
792.198	356
793.71	342
795.222	346
796.733	356
798.244	358
799.755	324
801.265	294
802.775	266
804.284	222
805.793	230
807.302	208
808.81	198
810.318	196
811.826	178
813.333	182
814.84	158
816.346	162
817.851	150
819.357	130
820.862	122
822.367	126
823.871	116
825.376	120
826.878	120
828.382	136
829.885	122
831.387	128
832.889	134
834.391	146
835.892	136
837.392	160
838.893	162
840.393	156
841.893	166
843.392	160
844.891	172
846.389	166
847.888	144
849.386	154
850.882	142
852.38	144
853.876	142
855.372	136
856.868	144
858.363	128
859.858	140
861.353	140
862.847	124
864.341	136
865.834	130
867.328	130
868.82	134
870.313	138
871.805	130
873.296	130
874.787	126
876.278	132
877.769	126
879.258	126
880.748	128
882.237	126
883.726	126
885.214	118
886.702	114
888.19	128
889.677	122
891.164	120
892.651	120
894.137	118
895.623	128
897.108	132
898.593	126
900.077	130
901.562	146
903.046	144
904.529	144
906.012	138
907.495	152
908.977	148
910.459	144
911.941	140
913.422	128
914.903	118
916.383	122
917.863	110
919.343	112
920.822	116
922.301	110
923.779	104
925.257	114
926.735	98
928.213	114
929.69	104
931.166	94
932.643	104
934.119	106
935.594	108
937.069	112
938.543	106
940.018	110
941.492	104
942.966	100
944.439	102
945.911	114
947.384	102
948.856	106
950.328	108
951.799	110
953.27	108
954.741	118
956.21	112
957.68	116
959.15	122
960.619	126
962.088	128
963.556	124
965.023	134
966.491	138
967.958	138
969.425	134
970.891	140
972.357	134
973.824	138
975.288	150
976.754	164
978.218	184
979.682	190
981.146	200
982.609	226
984.072	246
985.534	280
986.997	346
988.459	422
989.92	612
991.382	780
992.842	856
994.302	796
995.763	852
997.222	1208
998.681	1938
1000.14	2930
1001.6	3394
1003.06	2930
1004.52	1970
1005.97	1156
1007.43	678
1008.89	440
1010.34	320
1011.8	246
1013.25	218
1014.71	196
1016.16	196
1017.62	202
1019.07	200
1020.53	238
1021.98	260
1023.43	312
1024.89	388
1026.34	506
1027.79	622
1029.24	774
1030.69	902
1032.14	902
1033.59	822
1035.04	664
1036.49	520
1037.94	386
1039.39	336
1040.84	268
1042.29	240
1043.73	214
1045.18	188
1046.63	186
1048.08	182
1049.52	160
1050.97	160
1052.41	168
1053.86	146
1055.3	142
1056.75	164
1058.19	146
1059.64	178
1061.08	162
1062.52	158
1063.96	174
1065.41	178
1066.85	174
1068.29	180
1069.73	186
1071.17	182
1072.61	180
1074.05	176
1075.49	172
1076.93	176
1078.37	188
1079.81	164
1081.25	170
1082.68	164
1084.12	166
1085.56	164
1087	172
1088.43	168
1089.87	170
1091.3	168
1092.74	176
1094.17	184
1095.61	176
1097.04	178
1098.48	166
1099.91	174
1101.34	162
1102.78	168
1104.21	160
1105.64	162
1107.07	156
1108.5	140
1109.93	132
1111.36	136
1112.8	134
1114.22	130
1115.65	124
1117.08	132
1118.51	120
1119.94	116
1121.37	112
1122.8	104
1124.22	106
1125.65	106
1127.08	110
1128.5	108
1129.93	112
1131.35	110
1132.78	114
1134.2	102
1135.63	124
1137.05	106
1138.48	130
1139.9	130
1141.32	130
1142.75	152
1144.17	150
1145.59	170
1147.01	180
1148.43	190
1149.85	244
1151.27	286
1152.69	358
1154.11	422
1155.53	426
1156.95	390
1158.37	362
1159.79	306
1161.21	252
1162.62	220
1164.04	212
1165.46	210
1166.87	208
1168.29	212
1169.71	216
1171.12	234
1172.54	246
1173.95	282
1175.37	298
1176.78	366
1178.19	412
1179.61	482
1181.02	530
1182.43	516
1183.84	512
1185.26	458
1186.67	440
1188.08	436
1189.49	440
1190.9	456
1192.31	500
1193.72	492
1195.13	522
1196.54	530
1197.95	504
1199.36	478
1200.76	464
1202.17	454
1203.58	454
1204.99	420
1206.39	380
1207.8	336
1209.2	330
1210.61	302
1212.01	278
1213.42	264
1214.82	240
1216.23	212
1217.63	220
1219.03	220
1220.44	210
1221.84	198
1223.24	208
1224.64	200
1226.05	198
1227.45	194
1228.85	184
1230.25	180
1231.65	182
1233.05	180
1234.45	172
1235.85	180
1237.25	178
1238.64	168
1240.04	170
1241.44	160
1242.84	174
1244.23	172
1245.63	174
1247.03	178
1248.42	172
1249.82	166
1251.21	170
1252.61	168
1254	166
1255.4	172
1256.79	170
1258.19	164
1259.58	168
1260.97	176
1262.36	170
1263.76	178
1265.15	170
1266.54	176
1267.93	176
1269.32	156
1270.71	176
1272.1	164
1273.49	176
1274.88	164
1276.27	182
1277.66	172
1279.05	180
1280.43	174
1281.82	180
1283.21	176
1284.6	186
1285.98	174
1287.37	204
1288.75	190
1290.14	190
1291.53	190
1292.91	200
1294.29	204
1295.68	196
1297.06	204
1298.45	192
1299.83	210
1301.21	216
1302.59	220
1303.98	208
1305.36	226
1306.74	218
1308.12	240
1309.5	240
1310.88	230
1312.26	228
1313.64	242
1315.02	254
1316.4	252
1317.78	260
1319.16	254
1320.53	272
1321.91	288
1323.29	290
1324.67	280
1326.04	310
1327.42	282
1328.79	284
1330.17	304
1331.54	286
1332.92	282
1334.29	292
1335.67	264
1337.04	284
1338.42	300
1339.79	282
1341.16	276
1342.53	270
1343.91	254
1345.28	270
1346.65	280
1348.02	274
1349.39	262
1350.76	274
1352.13	264
1353.5	270
1354.87	268
1356.24	274
1357.61	264
1358.98	260
1360.34	266
1361.71	250
1363.08	268
1364.45	272
1365.81	286
1367.18	290
1368.54	280
1369.91	272
1371.28	270
1372.64	272
1374.01	276
1375.37	270
1376.73	282
1378.1	264
1379.46	276
1380.82	266
1382.19	272
1383.55	250
1384.91	252
1386.27	244
1387.63	244
1388.99	232
1390.35	252
1391.71	240
1393.07	246
1394.43	234
1395.79	238
1397.15	232
1398.51	234
1399.87	232
1401.23	230
1402.58	224
1403.94	248
1405.3	230
1406.65	236
1408.01	212
1409.37	236
1410.72	236
1412.08	234
1413.43	220
1414.79	222
1416.14	206
1417.49	224
1418.85	212
1420.2	234
1421.55	226
1422.91	222
1424.26	218
1425.61	222
1426.96	226
1428.31	232
1429.66	236
1431.01	238
1432.36	232
1433.71	250
1435.06	242
1436.41	248
1437.76	270
1439.11	276
1440.46	272
1441.81	278
1443.15	300
1444.5	306
1445.85	326
1447.19	320
1448.54	318
1449.89	330
1451.23	320
1452.58	316
1453.92	332
1455.27	288
1456.61	278
1457.95	258
1459.3	256
1460.64	218
1461.98	218
1463.33	200
1464.67	208
1466.01	206
1467.35	198
1468.69	186
1470.03	202
1471.37	176
1472.71	182
1474.05	200
1475.39	180
1476.73	182
1478.07	186
1479.41	176
1480.75	182
1482.09	184
1483.42	180
1484.76	176
1486.1	174
1487.43	184
1488.77	182
1490.11	166
1491.44	186
1492.78	194
1494.11	184
1495.45	192
1496.78	172
1498.12	170
1499.45	178
1500.78	180
1502.11	168
1503.45	168
1504.78	180
1506.11	180
1507.44	168
1508.77	172
1510.11	164
1511.44	164
1512.77	158
1514.1	166
1515.43	166
1516.76	170
1518.08	174
1519.41	168
1520.74	162
1522.07	158
1523.4	168
1524.72	170
1526.05	150
1527.38	164
1528.7	172
1530.03	160
1531.36	166
1532.68	162
1534.01	170
1535.33	160
1536.66	162
1537.98	172
1539.3	162
1540.63	156
1541.95	170
1543.27	164
1544.6	152
1545.92	162
1547.24	160
1548.56	146
1549.88	164
1551.2	162
1552.52	176
1553.84	150
1555.17	172
1556.48	164
1557.8	154
1559.12	174
1560.44	168
1561.76	170
1563.08	174
1564.4	172
1565.71	168
1567.03	178
1568.35	182
1569.66	186
1570.98	180
1572.29	202
1573.61	202
1574.93	202
1576.24	220
1577.55	242
1578.87	274
1580.18	326
1581.5	400
1582.81	400
1584.12	410
1585.43	352
1586.75	290
1588.06	250
1589.37	250
1590.68	254
1591.99	274
1593.3	294
1594.61	310
1595.92	342
1597.23	420
1598.54	536
1599.85	604
1601.16	664
1602.47	694
1603.78	664
1605.08	558
1606.39	432
1607.7	406
1609	330
1610.31	274
1611.62	250
1612.92	234
1614.23	216
1615.53	206
1616.84	186
1618.14	188
1619.45	174
1620.75	178
1622.06	160
1623.36	156
1624.66	166
1625.96	162
1627.27	170
1628.57	156
1629.87	160
1631.17	148
1632.47	148
1633.77	150
1635.07	158
1636.37	150
1637.67	148
1638.97	164
1640.27	158
1641.57	144
1642.87	152
1644.17	162
1645.47	174
1646.76	162
1648.06	160
1649.36	142
1650.66	144
1651.95	148
1653.25	148
1654.54	138
1655.84	136
1657.13	138
1658.43	140
1659.72	144
1661.02	124
1662.31	138
1663.6	130
1664.9	130
1666.19	142
1667.48	128
1668.78	128
1670.07	134
1671.36	128
1672.65	132
1673.94	136
1675.23	116
1676.52	128
1677.81	134
1679.1	128
1680.39	122
1681.68	134
1682.97	128
1684.26	140
1685.55	130
1686.83	124
1688.12	122
1689.41	122
1690.7	126
1691.98	130
1693.27	114
1694.55	124
1695.84	134
1697.13	120
1698.41	120
1699.69	114
1700.98	122
1702.26	118