File: Mixture_Classification/Jesse_Dataset_v2/Pure Raman/Polystyrene/785nm/ps-ppo-6jan25-1,0000-map3_Y05_X01.txt
204.377	816
206.045	824
207.713	876
209.38	874
211.048	898
212.715	890
214.381	898
216.047	882
217.712	910
219.377	950
221.042	930
222.706	884
224.369	894
226.032	830
227.695	812
229.357	740
231.019	720
232.68	684
234.341	624
236.001	576
237.661	532
239.321	482
240.98	440
242.639	418
244.297	396
245.955	344
247.612	318
249.268	314
250.924	294
252.58	290
254.236	292
255.891	282
257.546	274
259.2	270
260.854	260
262.507	272
264.16	264
265.812	244
267.463	260
269.115	252
270.766	240
272.417	230
274.067	240
275.717	240
277.365	246
279.014	230
280.663	216
282.311	224
283.958	204
285.605	222
287.252	198
288.898	184
290.543	190
292.188	174
293.833	176
295.477	172
297.121	174
298.765	180
300.407	168
302.05	172
303.693	160
305.334	170
306.975	156
308.615	176
310.256	170
311.896	158
313.535	166
315.175	170
316.813	170
318.451	176
320.089	164
321.726	154
323.362	172
324.999	172
326.635	178
328.271	170
329.905	168
331.54	164
333.174	170
334.807	178
336.441	168
338.074	172
339.707	172
341.338	152
342.969	158
344.601	158
346.231	152
347.861	158
349.491	150
351.12	148
352.749	156
354.378	152
356.006	148
357.633	150
359.261	142
360.887	150
362.513	156
364.139	148
365.764	142
367.39	152
369.014	150
370.638	164
372.261	160
373.884	162
375.508	148
377.13	166
378.752	168
380.373	172
381.994	176
383.615	172
385.235	170
386.854	182
388.473	176
390.092	184
391.711	196
393.328	180
394.947	210
396.564	198
398.181	204
399.797	208
401.412	214
403.027	216
404.642	242
406.257	240
407.871	226
409.484	220
411.098	204
412.711	196
414.323	182
415.935	196
417.547	188
419.158	168
420.768	158
422.378	166
423.988	160
425.597	160
427.206	148
428.814	136
430.422	162
432.03	148
433.637	150
435.243	150
436.85	142
438.456	138
440.062	146
441.666	146
443.271	124
444.876	134
446.479	132
448.082	114
449.685	126
451.287	130
452.89	126
454.492	122
456.092	102
457.693	104
459.293	110
460.893	112
462.492	110
464.092	118
465.691	118
467.288	104
468.887	110
470.483	116
472.081	100
473.677	104
475.273	112
476.869	90
478.463	102
480.059	110
481.653	100
483.247	100
484.84	106
486.433	106
488.026	94
489.618	106
491.21	96
492.801	116
494.392	102
495.983	106
497.573	104
499.162	106
500.752	108
502.341	108
503.929	116
505.517	104
507.105	98
508.692	104
510.279	110
511.865	110
513.45	100
515.037	116
516.621	124
518.206	106
519.79	114
521.374	114
522.957	132
524.54	120
526.123	118
527.705	118
529.287	128
530.868	116
532.448	136
534.029	134
535.609	148
537.188	152
538.768	146
540.346	144
541.925	148
543.502	146
545.08	146
546.657	148
548.234	150
549.81	144
551.386	134
552.961	156
554.536	150
556.11	146
557.684	138
559.258	144
560.832	130
562.405	128
563.977	142
565.55	134
567.12	124
568.692	130
570.263	138
571.833	140
573.403	138
574.973	132
576.542	142
578.111	130
579.679	132
581.247	128
582.815	128
584.382	112
585.948	104
587.514	116
589.081	118
590.645	108
592.211	112
593.775	112
595.339	100
596.904	110
598.466	104
600.03	124
601.592	126
603.154	126
604.715	128
606.277	138
607.838	158
609.398	142
610.958	136
612.518	156
614.077	186
615.636	224
617.194	304
618.753	518
620.31	736
621.867	698
623.424	478
624.98	270
626.537	210
628.092	168
629.647	146
631.202	136
632.756	116
634.31	114
635.864	102
637.417	100
638.969	100
640.521	94
642.074	72
643.625	90
645.176	92
646.726	90
648.276	78
649.827	86
651.376	88
652.925	78
654.473	76
656.021	80
657.569	74
659.117	86
660.664	78
662.21	82
663.757	86
665.302	78
666.847	80
668.392	76
669.937	80
671.481	78
673.025	88
674.568	82
676.111	82
677.653	78
679.195	82
680.737	76
682.279	76
683.82	88
685.36	68
686.9	80
688.44	84
689.979	82
691.517	76
693.056	86
694.594	82
696.132	80
697.669	94
699.206	94
700.742	96
702.278	110
703.814	104
705.35	104
706.884	104
708.419	92
709.953	100
711.487	96
713.019	104
714.552	94
716.085	96
717.617	104
719.148	108
720.68	122
722.21	132
723.741	148
725.271	146
726.8	150
728.33	130
729.858	126
731.387	122
732.915	136
734.443	138
735.97	146
737.497	164
739.023	182
740.549	192
742.075	196
743.6	196
745.125	196
746.65	190
748.173	186
749.697	192
751.22	198
752.743	218
754.266	208
755.788	238
757.309	240
758.831	230
760.351	230
761.871	228
763.392	236
764.912	218
766.431	230
767.95	204
769.468	196
770.986	198
772.504	208
774.022	204
775.538	172
777.055	198
778.571	212
780.086	214
781.602	218
783.117	240
784.632	256
786.146	270
787.659	282
789.173	308
790.685	320
792.198	322
793.71	348
795.222	350
796.733	340
798.244	324
799.755	308
801.265	280
802.775	250
804.284	232
805.793	216
807.302	184
808.81	192
810.318	178
811.826	172
813.333	168
814.84	150
816.346	152
817.851	140
819.357	124
820.862	124
822.367	124
823.871	118
825.376	116
826.878	118
828.382	112
829.885	106
831.387	120
832.889	132
834.391	126
835.892	132
837.392	152
838.893	154
840.393	162
841.893	178
843.392	158
844.891	160
846.389	150
847.888	146
849.386	146
850.882	136
852.38	140
853.876	128
855.372	122
856.868	126
858.363	124
859.858	116
861.353	120
862.847	118
864.341	132
865.834	126
867.328	126
868.82	136
870.313	132
871.805	128
873.296	128
874.787	130
876.278	118
877.769	116
879.258	134
880.748	114
882.237	120
883.726	102
885.214	126
886.702	116
888.19	122
889.677	110
891.164	116
892.651	110
894.137	106
895.623	124
897.108	120
898.593	122
900.077	122
901.562	134
903.046	140
904.529	140
906.012	158
907.495	158
908.977	146
910.459	132
911.941	130
913.422	116
914.903	126
916.383	112
917.863	104
919.343	106
920.822	106
922.301	104
923.779	96
925.257	100
926.735	98
928.213	102
929.69	94
931.166	100
932.643	100
934.119	96
935.594	96
937.069	94
938.543	106
940.018	106
941.492	106
942.966	116
944.439	102
945.911	100
947.384	106
948.856	102
950.328	106
951.799	100
953.27	104
954.741	108
956.21	110
957.68	118
959.15	120
960.619	122
962.088	120
963.556	134
965.023	126
966.491	130
967.958	128
969.425	132
970.891	114
972.357	126
973.824	146
975.288	146
976.754	148
978.218	156
979.682	188
981.146	196
982.609	210
984.072	246
985.534	262
986.997	308
988.459	408
989.92	560
991.382	754
992.842	830
994.302	776
995.763	864
997.222	1226
998.681	1982
1000.14	2856
1001.6	3322
1003.06	2806
1004.52	1960
1005.97	1124
1007.43	716
1008.89	448
1010.34	310
1011.8	244
1013.25	206
1014.71	192
1016.16	176
1017.62	194
1019.07	204
1020.53	218
1021.98	270
1023.43	302
1024.89	398
1026.34	472
1027.79	642
1029.24	766
1030.69	894
1032.14	900
1033.59	812
1035.04	668
1036.49	544
1037.94	398
1039.39	340
1040.84	266
1042.29	250
1043.73	218
1045.18	180
1046.63	176
1048.08	184
1049.52	168
1050.97	162
1052.41	138
1053.86	146
1055.3	162
1056.75	146
1058.19	166
1059.64	164
1061.08	152
1062.52	160
1063.96	168
1065.41	160
1066.85	180
1068.29	168
1069.73	180
1071.17	186
1072.61	188
1074.05	160
1075.49	172
1076.93	162
1078.37	172
1079.81	182
1081.25	176
1082.68	166
1084.12	150
1085.56	160
1087	160
1088.43	172
1089.87	164
1091.3	174
1092.74	166
1094.17	168
1095.61	162
1097.04	172
1098.48	158
1099.91	176
1101.34	164
1102.78	150
1104.21	158
1105.64	158
1107.07	138
1108.5	138
1109.93	138
1111.36	132
1112.8	120
1114.22	130
1115.65	130
1117.08	130
1118.51	122
1119.94	120
1121.37	112
1122.8	100
1124.22	102
1125.65	98
1127.08	98
1128.5	106
1129.93	114
1131.35	106
1132.78	118
1134.2	102
1135.63	116
1137.05	120
1138.48	122
1139.9	120
1141.32	130
1142.75	128
1144.17	144
1145.59	162
1147.01	170
1148.43	186
1149.85	240
1151.27	286
1152.69	354
1154.11	422
1155.53	426
1156.95	384
1158.37	348
1159.79	296
1161.21	242
1162.62	214
1164.04	206
1165.46	214
1166.87	198
1168.29	208
1169.71	218
1171.12	216
1172.54	238
1173.95	254
1175.37	300
1176.78	346
1178.19	404
1179.61	474
1181.02	534
1182.43	516
1183.84	488
1185.26	440
1186.67	452
1188.08	428
1189.49	434
1190.9	476
1192.31	454
1193.72	480
1195.13	504
1196.54	510
1197.95	484
1199.36	508
1200.76	490
1202.17	456
1203.58	424
1204.99	424
1206.39	394
1207.8	356
1209.2	326
1210.61	292
1212.01	264
1213.42	246
1214.82	230
1216.23	224
1217.63	218
1219.03	204
1220.44	208
1221.84	206
1223.24	190
1224.64	198
1226.05	196
1227.45	202
1228.85	178
1230.25	184
1231.65	188
1233.05	182
1234.45	156
1235.85	172
1237.25	164
1238.64	166
1240.04	188
1241.44	170
1242.84	166
1244.23	162
1245.63	164
1247.03	166
1248.42	156
1249.82	164
1251.21	176
1252.61	170
1254	164
1255.4	158
1256.79	172
1258.19	168
1259.58	172
1260.97	174
1262.36	162
1263.76	164
1265.15	174
1266.54	172
1267.93	170
1269.32	174
1270.71	156
1272.1	170
1273.49	170
1274.88	166
1276.27	164
1277.66	180
1279.05	178
1280.43	182
1281.82	176
1283.21	174
1284.6	172
1285.98	178
1287.37	186
1288.75	192
1290.14	178
1291.53	186
1292.91	188
1294.29	186
1295.68	190
1297.06	194
1298.45	206
1299.83	198
1301.21	208
1302.59	216
1303.98	220
1305.36	220
1306.74	226
1308.12	212
1309.5	226
1310.88	224
1312.26	224
1313.64	236
1315.02	236
1316.4	250
1317.78	258
1319.16	268
1320.53	276
1321.91	274
1323.29	278
1324.67	304
1326.04	272
1327.42	290
1328.79	302
1330.17	272
1331.54	272
1332.92	290
1334.29	296
1335.67	274
1337.04	282
1338.42	280
1339.79	262
1341.16	260
1342.53	258
1343.91	256
1345.28	252
1346.65	268
1348.02	262
1349.39	248
1350.76	260
1352.13	262
1353.5	258
1354.87	274
1356.24	256
1357.61	264
1358.98	270
1360.34	260
1361.71	264
1363.08	270
1364.45	272
1365.81	266
1367.18	270
1368.54	274
1369.91	256
1371.28	268
1372.64	268
1374.01	266
1375.37	272
1376.73	280
1378.1	248
1379.46	262
1380.82	272
1382.19	256
1383.55	256
1384.91	226
1386.27	242
1387.63	234
1388.99	232
1390.35	230
1391.71	230
1393.07	216
1394.43	226
1395.79	216
1397.15	224
1398.51	240
1399.87	232
1401.23	220
1402.58	232
1403.94	214
1405.3	218
1406.65	232
1408.01	236
1409.37	210
1410.72	218
1412.08	210
1413.43	228
1414.79	214
1416.14	212
1417.49	210
1418.85	206
1420.2	206
1421.55	220
1422.91	218
1424.26	206
1425.61	216
1426.96	214
1428.31	212
1429.66	218
1431.01	220
1432.36	222
1433.71	230
1435.06	242
1436.41	252
1437.76	266
1439.11	260
1440.46	286
1441.81	276
1443.15	304
1444.5	312
1445.85	322
1447.19	310
1448.54	324
1449.89	330
1451.23	316
1452.58	318
1453.92	312
1455.27	280
1456.61	266
1457.95	244
1459.3	242
1460.64	206
1461.98	212
1463.33	204
1464.67	200
1466.01	182
1467.35	176
1468.69	194
1470.03	188
1471.37	194
1472.71	178
1474.05	192
1475.39	186
1476.73	184
1478.07	192
1479.41	168
1480.75	176
1482.09	176
1483.42	180
1484.76	174
1486.1	174
1487.43	174
1488.77	160
1490.11	184
1491.44	184
1492.78	186
1494.11	172
1495.45	174
1496.78	168
1498.12	176
1499.45	162
1500.78	162
1502.11	172
1503.45	164
1504.78	154
1506.11	166
1507.44	162
1508.77	162
1510.11	162
1511.44	166
1512.77	162
1514.1	170
1515.43	170
1516.76	162
1518.08	148
1519.41	156
1520.74	166
1522.07	158
1523.4	160
1524.72	158
1526.05	162
1527.38	174
1528.7	160
1530.03	158
1531.36	154
1532.68	158
1534.01	150
1535.33	150
1536.66	158
1537.98	138
1539.3	156
1540.63	172
1541.95	156
1543.27	150
1544.6	158
1545.92	154
1547.24	160
1548.56	162
1549.88	164
1551.2	158
1552.52	158
1553.84	164
1555.17	152
1556.48	156
1557.8	164
1559.12	154
1560.44	160
1561.76	150
1563.08	154
1564.4	160
1565.71	164
1567.03	158
1568.35	170
1569.66	174
1570.98	176
1572.29	192
1573.61	188
1574.93	208
1576.24	228
1577.55	246
1578.87	262
1580.18	322
1581.5	376
1582.81	412
1584.12	388
1585.43	328
1586.75	292
1588.06	256
1589.37	228
1590.68	248
1591.99	252
1593.3	264
1594.61	310
1595.92	342
1597.23	430
1598.54	514
1599.85	612
1601.16	680
1602.47	702
1603.78	638
1605.08	558
1606.39	458
1607.7	382
1609	284
1610.31	280
1611.62	244
1612.92	208
1614.23	214
1615.53	198
1616.84	182
1618.14	188
1619.45	174
1620.75	186
1622.06	156
1623.36	164
1624.66	162
1625.96	162
1627.27	162
1628.57	152
1629.87	158
1631.17	158
1632.47	162
1633.77	158
1635.07	146
1636.37	152
1637.67	140
1638.97	138
1640.27	152
1641.57	144
1642.87	146
1644.17	154
1645.47	138
1646.76	148
1648.06	136
1649.36	150
1650.66	144
1651.95	148
1653.25	130
1654.54	138
1655.84	126
1657.13	130
1658.43	128
1659.72	128
1661.02	130
1662.31	126
1663.6	120
1664.9	128
1666.19	126
1667.48	130
1668.78	120
1670.07	126
1671.36	134
1672.65	120
1673.94	130
1675.23	122
1676.52	128
1677.81	134
1679.1	126
1680.39	138
1681.68	130
1682.97	124
1684.26	122
1685.55	124
1686.83	134
1688.12	130
1689.41	108
1690.7	112
1691.98	120
1693.27	130
1694.55	116
1695.84	120
1697.13	118
1698.41	116
1699.69	118
1700.98	128
1702.26	126