File: Mixture_Classification/Jesse_Dataset_v2/Pure Raman/Polystyrene/785nm/ps-ppo-6jan25-1,0000-map3_Y08_X05.txt
204.377	824
206.045	874
207.713	880
209.38	880
211.048	874
212.715	908
214.381	910
216.047	920
217.712	912
219.377	936
221.042	942
222.706	916
224.369	882
226.032	834
227.695	804
229.357	776
231.019	738
232.68	678
234.341	638
236.001	606
237.661	540
239.321	520
240.98	480
242.639	428
244.297	414
245.955	368
247.612	350
249.268	338
250.924	320
252.58	302
254.236	294
255.891	304
257.546	296
259.2	278
260.854	292
262.507	280
264.16	284
265.812	274
267.463	262
269.115	258
270.766	252
272.417	282
274.067	252
275.717	238
277.365	254
279.014	238
280.663	242
282.311	230
283.958	228
285.605	216
287.252	208
288.898	204
290.543	212
292.188	204
293.833	180
295.477	182
297.121	188
298.765	182
300.407	190
302.05	164
303.693	176
305.334	178
306.975	190
308.615	188
310.256	172
311.896	182
313.535	188
315.175	176
316.813	174
318.451	184
320.089	190
321.726	186
323.362	186
324.999	188
326.635	188
328.271	192
329.905	184
331.54	172
333.174	182
334.807	176
336.441	172
338.074	184
339.707	178
341.338	180
342.969	176
344.601	174
346.231	156
347.861	156
349.491	164
351.12	172
352.749	168
354.378	162
356.006	168
357.633	160
359.261	170
360.887	160
362.513	158
364.139	158
365.764	160
367.39	166
369.014	160
370.638	160
372.261	150
373.884	176
375.508	178
377.13	176
378.752	178
380.373	180
381.994	186
383.615	180
385.235	192
386.854	190
388.473	182
390.092	196
391.711	200
393.328	212
394.947	198
396.564	204
398.181	216
399.797	226
401.412	230
403.027	244
404.642	238
406.257	252
407.871	246
409.484	240
411.098	236
412.711	218
414.323	200
415.935	198
417.547	190
419.158	194
420.768	184
422.378	170
423.988	176
425.597	158
427.206	170
428.814	158
430.422	158
432.03	154
433.637	140
435.243	138
436.85	162
438.456	156
440.062	146
441.666	162
443.271	142
444.876	136
446.479	146
448.082	142
449.685	140
451.287	124
452.89	126
454.492	128
456.092	126
457.693	124
459.293	126
460.893	120
462.492	114
464.092	120
465.691	108
467.288	124
468.887	118
470.483	114
472.081	116
473.677	116
475.273	110
476.869	114
478.463	114
480.059	120
481.653	100
483.247	106
484.84	120
486.433	114
488.026	104
489.618	116
491.21	98
492.801	108
494.392	106
495.983	112
497.573	112
499.162	112
500.752	116
502.341	120
503.929	130
505.517	118
507.105	116
508.692	104
510.279	118
511.865	104
513.45	108
515.037	124
516.621	120
518.206	124
519.79	126
521.374	116
522.957	134
524.54	120
526.123	126
527.705	126
529.287	134
530.868	132
532.448	138
534.029	144
535.609	150
537.188	154
538.768	156
540.346	170
541.925	154
543.502	160
545.08	152
546.657	140
548.234	154
549.81	138
551.386	146
552.961	132
554.536	140
556.11	146
557.684	152
559.258	160
560.832	134
562.405	150
563.977	130
565.55	152
567.12	148
568.692	150
570.263	146
571.833	154
573.403	154
574.973	140
576.542	150
578.111	144
579.679	122
581.247	118
582.815	122
584.382	122
585.948	114
587.514	126
589.081	124
590.645	116
592.211	120
593.775	114
595.339	118
596.904	128
598.466	130
600.03	108
601.592	122
603.154	118
604.715	146
606.277	150
607.838	162
609.398	144
610.958	144
612.518	172
614.077	192
615.636	230
617.194	322
618.753	542
620.31	746
621.867	704
623.424	492
624.98	290
626.537	214
628.092	170
629.647	166
631.202	146
632.756	126
634.31	110
635.864	116
637.417	110
638.969	98
640.521	94
642.074	98
643.625	84
645.176	80
646.726	90
648.276	90
649.827	84
651.376	84
652.925	94
654.473	94
656.021	84
657.569	84
659.117	82
660.664	86
662.21	84
663.757	84
665.302	90
666.847	80
668.392	88
669.937	90
671.481	80
673.025	90
674.568	84
676.111	80
677.653	86
679.195	78
680.737	82
682.279	90
683.82	88
685.36	84
686.9	88
688.44	86
689.979	88
691.517	88
693.056	82
694.594	96
696.132	90
697.669	94
699.206	96
700.742	96
702.278	110
703.814	102
705.35	98
706.884	104
708.419	94
709.953	102
711.487	102
713.019	106
714.552	110
716.085	108
717.617	106
719.148	118
720.68	120
722.21	134
723.741	164
725.271	156
726.8	138
728.33	140
729.858	120
731.387	140
732.915	140
734.443	146
735.97	162
737.497	168
739.023	172
740.549	196
742.075	194
743.6	188
745.125	194
746.65	182
748.173	182
749.697	210
751.22	200
752.743	212
754.266	218
755.788	238
757.309	230
758.831	234
760.351	232
761.871	234
763.392	240
764.912	200
766.431	222
767.95	218
769.468	224
770.986	208
772.504	216
774.022	194
775.538	196
777.055	200
778.571	216
780.086	214
781.602	236
783.117	248
784.632	258
786.146	274
787.659	310
789.173	314
790.685	326
792.198	334
793.71	362
795.222	354
796.733	350
798.244	322
799.755	296
801.265	298
802.775	248
804.284	234
805.793	216
807.302	204
808.81	194
810.318	180
811.826	180
813.333	162
814.84	154
816.346	150
817.851	128
819.357	132
820.862	118
822.367	126
823.871	120
825.376	112
826.878	106
828.382	122
829.885	120
831.387	112
832.889	112
834.391	140
835.892	146
837.392	138
838.893	146
840.393	162
841.893	172
843.392	152
844.891	148
846.389	150
847.888	148
849.386	132
850.882	128
852.38	140
853.876	128
855.372	128
856.868	138
858.363	126
859.858	124
861.353	132
862.847	130
864.341	134
865.834	136
867.328	128
868.82	120
870.313	120
871.805	124
873.296	120
874.787	134
876.278	120
877.769	114
879.258	126
880.748	120
882.237	126
883.726	126
885.214	118
886.702	124
888.19	128
889.677	118
891.164	116
892.651	110
894.137	126
895.623	120
897.108	134
898.593	124
900.077	130
901.562	138
903.046	148
904.529	156
906.012	152
907.495	150
908.977	140
910.459	144
911.941	128
913.422	130
914.903	118
916.383	114
917.863	104
919.343	110
920.822	104
922.301	104
923.779	102
925.257	94
926.735	106
928.213	98
929.69	90
931.166	108
932.643	102
934.119	100
935.594	94
937.069	100
938.543	106
940.018	106
941.492	104
942.966	102
944.439	102
945.911	106
947.384	108
948.856	104
950.328	102
951.799	110
953.27	108
954.741	102
956.21	112
957.68	100
959.15	108
960.619	116
962.088	130
963.556	128
965.023	130
966.491	134
967.958	134
969.425	132
970.891	134
972.357	138
973.824	144
975.288	142
976.754	160
978.218	172
979.682	180
981.146	204
982.609	220
984.072	260
985.534	280
986.997	328
988.459	418
989.92	582
991.382	786
992.842	842
994.302	788
995.763	878
997.222	1228
998.681	2004
1000.14	2932
1001.6	3334
1003.06	2850
1004.52	1920
1005.97	1194
1007.43	686
1008.89	456
1010.34	316
1011.8	250
1013.25	204
1014.71	190
1016.16	184
1017.62	196
1019.07	190
1020.53	226
1021.98	264
1023.43	326
1024.89	390
1026.34	500
1027.79	640
1029.24	774
1030.69	864
1032.14	854
1033.59	826
1035.04	680
1036.49	542
1037.94	410
1039.39	330
1040.84	266
1042.29	218
1043.73	208
1045.18	186
1046.63	176
1048.08	156
1049.52	170
1050.97	154
1052.41	166
1053.86	158
1055.3	152
1056.75	158
1058.19	148
1059.64	164
1061.08	160
1062.52	174
1063.96	162
1065.41	170
1066.85	168
1068.29	172
1069.73	174
1071.17	182
1072.61	180
1074.05	162
1075.49	174
1076.93	182
1078.37	182
1079.81	166
1081.25	178
1082.68	166
1084.12	170
1085.56	174
1087	168
1088.43	186
1089.87	174
1091.3	176
1092.74	170
1094.17	172
1095.61	170
1097.04	186
1098.48	166
1099.91	174
1101.34	164
1102.78	162
1104.21	154
1105.64	144
1107.07	144
1108.5	142
1109.93	140
1111.36	128
1112.8	128
1114.22	132
1115.65	130
1117.08	118
1118.51	122
1119.94	126
1121.37	112
1122.8	118
1124.22	118
1125.65	106
1127.08	106
1128.5	118
1129.93	120
1131.35	112
1132.78	118
1134.2	112
1135.63	122
1137.05	124
1138.48	126
1139.9	128
1141.32	126
1142.75	126
1144.17	146
1145.59	156
1147.01	176
1148.43	180
1149.85	230
1151.27	296
1152.69	352
1154.11	400
1155.53	416
1156.95	388
1158.37	336
1159.79	288
1161.21	248
1162.62	224
1164.04	216
1165.46	220
1166.87	200
1168.29	204
1169.71	224
1171.12	220
1172.54	238
1173.95	256
1175.37	312
1176.78	358
1178.19	438
1179.61	484
1181.02	526
1182.43	520
1183.84	514
1185.26	464
1186.67	448
1188.08	416
1189.49	438
1190.9	476
1192.31	476
1193.72	496
1195.13	516
1196.54	516
1197.95	504
1199.36	474
1200.76	486
1202.17	450
1203.58	448
1204.99	408
1206.39	388
1207.8	324
1209.2	326
1210.61	280
1212.01	270
1213.42	250
1214.82	234
1216.23	238
1217.63	212
1219.03	204
1220.44	206
1221.84	220
1223.24	206
1224.64	214
1226.05	192
1227.45	200
1228.85	194
1230.25	184
1231.65	176
1233.05	172
1234.45	166
1235.85	168
1237.25	170
1238.64	178
1240.04	182
1241.44	164
1242.84	172
1244.23	174
1245.63	172
1247.03	164
1248.42	180
1249.82	168
1251.21	184
1252.61	172
1254	166
1255.4	176
1256.79	166
1258.19	180
1259.58	178
1260.97	166
1262.36	162
1263.76	182
1265.15	180
1266.54	168
1267.93	168
1269.32	174
1270.71	166
1272.1	170
1273.49	176
1274.88	176
1276.27	172
1277.66	182
1279.05	170
1280.43	188
1281.82	180
1283.21	174
1284.6	192
1285.98	184
1287.37	198
1288.75	188
1290.14	196
1291.53	202
1292.91	194
1294.29	206
1295.68	202
1297.06	210
1298.45	208
1299.83	202
1301.21	220
1302.59	220
1303.98	210
1305.36	244
1306.74	224
1308.12	220
1309.5	224
1310.88	252
1312.26	230
1313.64	246
1315.02	254
1316.4	258
1317.78	268
1319.16	270
1320.53	262
1321.91	300
1323.29	282
1324.67	282
1326.04	296
1327.42	304
1328.79	300
1330.17	308
1331.54	294
1332.92	316
1334.29	292
1335.67	292
1337.04	290
1338.42	282
1339.79	274
1341.16	272
1342.53	246
1343.91	270
1345.28	268
1346.65	250
1348.02	270
1349.39	264
1350.76	264
1352.13	268
1353.5	268
1354.87	256
1356.24	290
1357.61	286
1358.98	266
1360.34	262
1361.71	276
1363.08	274
1364.45	266
1365.81	268
1367.18	266
1368.54	292
1369.91	290
1371.28	288
1372.64	276
1374.01	292
1375.37	284
1376.73	276
1378.1	280
1379.46	274
1380.82	264
1382.19	266
1383.55	258
1384.91	252
1386.27	254
1387.63	252
1388.99	246
1390.35	246
1391.71	244
1393.07	230
1394.43	248
1395.79	254
1397.15	240
1398.51	244
1399.87	236
1401.23	250
1402.58	230
1403.94	232
1405.3	230
1406.65	224
1408.01	222
1409.37	242
1410.72	232
1412.08	240
1413.43	212
1414.79	218
1416.14	216
1417.49	224
1418.85	224
1420.2	214
1421.55	242
1422.91	228
1424.26	226
1425.61	208
1426.96	220
1428.31	220
1429.66	230
1431.01	242
1432.36	224
1433.71	250
1435.06	252
1436.41	250
1437.76	264
1439.11	280
1440.46	296
1441.81	300
1443.15	294
1444.5	308
1445.85	326
1447.19	334
1448.54	336
1449.89	352
1451.23	342
1452.58	304
1453.92	298
1455.27	288
1456.61	256
1457.95	254
1459.3	228
1460.64	226
1461.98	218
1463.33	208
1464.67	204
1466.01	214
1467.35	186
1468.69	200
1470.03	194
1471.37	186
1472.71	188
1474.05	184
1475.39	186
1476.73	174
1478.07	186
1479.41	176
1480.75	186
1482.09	176
1483.42	174
1484.76	190
1486.1	186
1487.43	174
1488.77	186
1490.11	198
1491.44	190
1492.78	188
1494.11	186
1495.45	198
1496.78	184
1498.12	186
1499.45	174
1500.78	172
1502.11	172
1503.45	172
1504.78	168
1506.11	172
1507.44	168
1508.77	160
1510.11	170
1511.44	174
1512.77	168
1514.1	176
1515.43	162
1516.76	156
1518.08	164
1519.41	160
1520.74	166
1522.07	166
1523.4	166
1524.72	168
1526.05	166
1527.38	182
1528.7	162
1530.03	170
1531.36	166
1532.68	152
1534.01	168
1535.33	160
1536.66	160
1537.98	172
1539.3	170
1540.63	160
1541.95	168
1543.27	166
1544.6	158
1545.92	168
1547.24	170
1548.56	172
1549.88	176
1551.2	170
1552.52	168
1553.84	168
1555.17	176
1556.48	162
1557.8	176
1559.12	168
1560.44	170
1561.76	170
1563.08	166
1564.4	170
1565.71	178
1567.03	180
1568.35	178
1569.66	186
1570.98	186
1572.29	172
1573.61	176
1574.93	204
1576.24	214
1577.55	238
1578.87	278
1580.18	334
1581.5	406
1582.81	422
1584.12	406
1585.43	368
1586.75	318
1588.06	240
1589.37	262
1590.68	238
1591.99	252
1593.3	282
1594.61	326
1595.92	376
1597.23	430
1598.54	520
1599.85	646
1601.16	676
1602.47	700
1603.78	628
1605.08	562
1606.39	466
1607.7	368
1609	318
1610.31	270
1611.62	256
1612.92	248
1614.23	222
1615.53	202
1616.84	194
1618.14	184
1619.45	186
1620.75	186
1622.06	172
1623.36	174
1624.66	170
1625.96	174
1627.27	162
1628.57	158
1629.87	144
1631.17	152
1632.47	156
1633.77	144
1635.07	150
1636.37	162
1637.67	140
1638.97	152
1640.27	156
1641.57	150
1642.87	166
1644.17	162
1645.47	158
1646.76	146
1648.06	158
1649.36	154
1650.66	146
1651.95	152
1653.25	144
1654.54	150
1655.84	140
1657.13	134
1658.43	136
1659.72	140
1661.02	142
1662.31	130
1663.6	124
1664.9	132
1666.19	134
1667.48	136
1668.78	148
1670.07	130
1671.36	136
1672.65	126
1673.94	134
1675.23	130
1676.52	134
1677.81	120
1679.1	138
1680.39	128
1681.68	134
1682.97	142
1684.26	130
1685.55	136
1686.83	128
1688.12	132
1689.41	124
1690.7	126
1691.98	130
1693.27	128
1694.55	118
1695.84	126
1697.13	122
1698.41	120
1699.69	120
1700.98	118
1702.26	116