File: Mixture_Classification/Jesse_Dataset_v2/Pure Raman/Polystyrene/785nm/ps-ppo-6jan25-1,0000-map3_Y07_X00.txt
204.377	856
206.045	832
207.713	884
209.38	882
211.048	878
212.715	874
214.381	928
216.047	910
217.712	896
219.377	918
221.042	884
222.706	902
224.369	868
226.032	854
227.695	786
229.357	768
231.019	728
232.68	704
234.341	596
236.001	590
237.661	550
239.321	512
240.98	456
242.639	418
244.297	394
245.955	340
247.612	336
249.268	320
250.924	306
252.58	300
254.236	294
255.891	286
257.546	282
259.2	278
260.854	278
262.507	260
264.16	266
265.812	262
267.463	244
269.115	256
270.766	250
272.417	256
274.067	240
275.717	248
277.365	234
279.014	212
280.663	214
282.311	216
283.958	198
285.605	200
287.252	212
288.898	202
290.543	192
292.188	192
293.833	170
295.477	164
297.121	178
298.765	174
300.407	168
302.05	184
303.693	176
305.334	174
306.975	174
308.615	170
310.256	172
311.896	162
313.535	158
315.175	176
316.813	176
318.451	182
320.089	180
321.726	166
323.362	180
324.999	170
326.635	174
328.271	160
329.905	170
331.54	182
333.174	166
334.807	172
336.441	164
338.074	176
339.707	166
341.338	160
342.969	172
344.601	162
346.231	176
347.861	140
349.491	148
351.12	154
352.749	148
354.378	148
356.006	154
357.633	142
359.261	140
360.887	148
362.513	144
364.139	152
365.764	142
367.39	154
369.014	152
370.638	158
372.261	156
373.884	160
375.508	164
377.13	162
378.752	168
380.373	164
381.994	178
383.615	170
385.235	192
386.854	184
388.473	186
390.092	192
391.711	198
393.328	182
394.947	178
396.564	178
398.181	206
399.797	214
401.412	224
403.027	212
404.642	240
406.257	240
407.871	238
409.484	216
411.098	224
412.711	212
414.323	198
415.935	196
417.547	178
419.158	170
420.768	186
422.378	174
423.988	160
425.597	148
427.206	158
428.814	156
430.422	150
432.03	146
433.637	144
435.243	128
436.85	150
438.456	142
440.062	138
441.666	152
443.271	140
444.876	144
446.479	124
448.082	134
449.685	130
451.287	124
452.89	114
454.492	128
456.092	118
457.693	108
459.293	110
460.893	122
462.492	110
464.092	118
465.691	108
467.288	104
468.887	104
470.483	104
472.081	102
473.677	106
475.273	112
476.869	112
478.463	104
480.059	108
481.653	108
483.247	100
484.84	108
486.433	94
488.026	98
489.618	100
491.21	96
492.801	98
494.392	98
495.983	112
497.573	106
499.162	108
500.752	110
502.341	110
503.929	118
505.517	110
507.105	106
508.692	108
510.279	96
511.865	106
513.45	118
515.037	104
516.621	112
518.206	110
519.79	122
521.374	120
522.957	110
524.54	112
526.123	120
527.705	124
529.287	134
530.868	126
532.448	134
534.029	148
535.609	134
537.188	160
538.768	156
540.346	146
541.925	154
543.502	136
545.08	144
546.657	140
548.234	142
549.81	144
551.386	140
552.961	136
554.536	140
556.11	142
557.684	138
559.258	122
560.832	128
562.405	134
563.977	128
565.55	130
567.12	132
568.692	150
570.263	136
571.833	130
573.403	142
574.973	134
576.542	134
578.111	128
579.679	118
581.247	130
582.815	114
584.382	114
585.948	114
587.514	112
589.081	106
590.645	118
592.211	108
593.775	112
595.339	110
596.904	108
598.466	110
600.03	106
601.592	110
603.154	126
604.715	136
606.277	140
607.838	148
609.398	144
610.958	150
612.518	170
614.077	178
615.636	214
617.194	320
618.753	514
620.31	700
621.867	684
623.424	446
624.98	274
626.537	188
628.092	162
629.647	156
631.202	134
632.756	120
634.31	114
635.864	110
637.417	98
638.969	86
640.521	94
642.074	82
643.625	90
645.176	90
646.726	88
648.276	94
649.827	82
651.376	84
652.925	74
654.473	80
656.021	72
657.569	78
659.117	82
660.664	76
662.21	86
663.757	78
665.302	82
666.847	78
668.392	74
669.937	80
671.481	74
673.025	76
674.568	76
676.111	76
677.653	80
679.195	78
680.737	76
682.279	78
683.82	76
685.36	72
686.9	78
688.44	74
689.979	76
691.517	76
693.056	76
694.594	82
696.132	86
697.669	90
699.206	96
700.742	96
702.278	96
703.814	104
705.35	94
706.884	94
708.419	102
709.953	98
711.487	104
713.019	96
714.552	94
716.085	102
717.617	100
719.148	104
720.68	114
722.21	134
723.741	144
725.271	144
726.8	122
728.33	132
729.858	136
731.387	122
732.915	128
734.443	124
735.97	144
737.497	160
739.023	178
740.549	172
742.075	174
743.6	174
745.125	180
746.65	178
748.173	192
749.697	186
751.22	204
752.743	210
754.266	212
755.788	230
757.309	226
758.831	218
760.351	238
761.871	240
763.392	220
764.912	218
766.431	210
767.95	202
769.468	198
770.986	208
772.504	198
774.022	210
775.538	202
777.055	190
778.571	210
780.086	202
781.602	228
783.117	248
784.632	262
786.146	270
787.659	286
789.173	304
790.685	324
792.198	342
793.71	338
795.222	354
796.733	340
798.244	318
799.755	306
801.265	274
802.775	248
804.284	226
805.793	206
807.302	190
808.81	186
810.318	182
811.826	168
813.333	146
814.84	158
816.346	132
817.851	132
819.357	122
820.862	116
822.367	114
823.871	112
825.376	110
826.878	116
828.382	116
829.885	104
831.387	116
832.889	122
834.391	132
835.892	140
837.392	152
838.893	156
840.393	156
841.893	164
843.392	154
844.891	148
846.389	150
847.888	138
849.386	138
850.882	124
852.38	124
853.876	130
855.372	120
856.868	116
858.363	122
859.858	126
861.353	128
862.847	118
864.341	128
865.834	118
867.328	122
868.82	118
870.313	122
871.805	128
873.296	114
874.787	106
876.278	110
877.769	122
879.258	112
880.748	122
882.237	114
883.726	108
885.214	114
886.702	114
888.19	110
889.677	114
891.164	114
892.651	104
894.137	122
895.623	106
897.108	122
898.593	124
900.077	126
901.562	128
903.046	148
904.529	138
906.012	150
907.495	136
908.977	146
910.459	132
911.941	122
913.422	122
914.903	110
916.383	92
917.863	104
919.343	102
920.822	108
922.301	98
923.779	100
925.257	108
926.735	104
928.213	98
929.69	102
931.166	88
932.643	100
934.119	96
935.594	102
937.069	92
938.543	92
940.018	102
941.492	98
942.966	102
944.439	98
945.911	104
947.384	100
948.856	106
950.328	102
951.799	102
953.27	102
954.741	94
956.21	108
957.68	108
959.15	112
960.619	114
962.088	118
963.556	124
965.023	116
966.491	126
967.958	120
969.425	124
970.891	116
972.357	116
973.824	142
975.288	136
976.754	160
978.218	158
979.682	188
981.146	196
982.609	206
984.072	244
985.534	276
986.997	316
988.459	404
989.92	552
991.382	736
992.842	804
994.302	760
995.763	852
997.222	1196
998.681	1976
1000.14	2886
1001.6	3356
1003.06	2860
1004.52	1964
1005.97	1150
1007.43	684
1008.89	442
1010.34	324
1011.8	256
1013.25	210
1014.71	190
1016.16	194
1017.62	176
1019.07	194
1020.53	234
1021.98	254
1023.43	294
1024.89	402
1026.34	496
1027.79	616
1029.24	752
1030.69	898
1032.14	882
1033.59	810
1035.04	690
1036.49	522
1037.94	396
1039.39	318
1040.84	262
1042.29	228
1043.73	206
1045.18	184
1046.63	184
1048.08	176
1049.52	158
1050.97	164
1052.41	152
1053.86	154
1055.3	150
1056.75	146
1058.19	152
1059.64	162
1061.08	166
1062.52	156
1063.96	166
1065.41	176
1066.85	170
1068.29	160
1069.73	174
1071.17	164
1072.61	182
1074.05	170
1075.49	168
1076.93	170
1078.37	168
1079.81	174
1081.25	178
1082.68	164
1084.12	168
1085.56	148
1087	160
1088.43	166
1089.87	162
1091.3	170
1092.74	170
1094.17	154
1095.61	170
1097.04	164
1098.48	174
1099.91	166
1101.34	160
1102.78	176
1104.21	158
1105.64	140
1107.07	138
1108.5	130
1109.93	130
1111.36	118
1112.8	140
1114.22	120
1115.65	124
1117.08	120
1118.51	116
1119.94	114
1121.37	106
1122.8	98
1124.22	116
1125.65	102
1127.08	96
1128.5	106
1129.93	110
1131.35	104
1132.78	106
1134.2	106
1135.63	110
1137.05	124
1138.48	118
1139.9	138
1141.32	132
1142.75	142
1144.17	154
1145.59	164
1147.01	164
1148.43	180
1149.85	238
1151.27	302
1152.69	356
1154.11	396
1155.53	392
1156.95	394
1158.37	348
1159.79	292
1161.21	244
1162.62	220
1164.04	212
1165.46	200
1166.87	204
1168.29	214
1169.71	218
1171.12	214
1172.54	232
1173.95	260
1175.37	298
1176.78	352
1178.19	422
1179.61	502
1181.02	520
1182.43	528
1183.84	492
1185.26	468
1186.67	454
1188.08	414
1189.49	444
1190.9	450
1192.31	480
1193.72	492
1195.13	508
1196.54	506
1197.95	482
1199.36	490
1200.76	472
1202.17	470
1203.58	440
1204.99	402
1206.39	380
1207.8	344
1209.2	320
1210.61	302
1212.01	256
1213.42	250
1214.82	222
1216.23	220
1217.63	226
1219.03	220
1220.44	198
1221.84	192
1223.24	202
1224.64	194
1226.05	210
1227.45	192
1228.85	190
1230.25	186
1231.65	184
1233.05	178
1234.45	180
1235.85	168
1237.25	164
1238.64	176
1240.04	170
1241.44	172
1242.84	172
1244.23	164
1245.63	168
1247.03	170
1248.42	170
1249.82	166
1251.21	168
1252.61	180
1254	164
1255.4	156
1256.79	162
1258.19	170
1259.58	172
1260.97	164
1262.36	174
1263.76	172
1265.15	156
1266.54	166
1267.93	176
1269.32	168
1270.71	146
1272.1	152
1273.49	154
1274.88	156
1276.27	164
1277.66	174
1279.05	178
1280.43	166
1281.82	170
1283.21	164
1284.6	184
1285.98	174
1287.37	186
1288.75	176
1290.14	190
1291.53	182
1292.91	188
1294.29	190
1295.68	192
1297.06	208
1298.45	210
1299.83	206
1301.21	204
1302.59	208
1303.98	210
1305.36	220
1306.74	214
1308.12	216
1309.5	210
1310.88	234
1312.26	216
1313.64	230
1315.02	240
1316.4	230
1317.78	264
1319.16	254
1320.53	272
1321.91	262
1323.29	286
1324.67	292
1326.04	270
1327.42	278
1328.79	302
1330.17	284
1331.54	294
1332.92	290
1334.29	306
1335.67	282
1337.04	284
1338.42	266
1339.79	278
1341.16	244
1342.53	264
1343.91	248
1345.28	246
1346.65	262
1348.02	252
1349.39	256
1350.76	246
1352.13	252
1353.5	264
1354.87	250
1356.24	252
1357.61	260
1358.98	264
1360.34	260
1361.71	284
1363.08	272
1364.45	262
1365.81	268
1367.18	290
1368.54	280
1369.91	256
1371.28	266
1372.64	272
1374.01	270
1375.37	268
1376.73	260
1378.1	254
1379.46	256
1380.82	242
1382.19	238
1383.55	262
1384.91	246
1386.27	236
1387.63	236
1388.99	226
1390.35	224
1391.71	228
1393.07	218
1394.43	228
1395.79	240
1397.15	214
1398.51	232
1399.87	242
1401.23	218
1402.58	232
1403.94	232
1405.3	232
1406.65	220
1408.01	220
1409.37	218
1410.72	230
1412.08	212
1413.43	210
1414.79	210
1416.14	200
1417.49	212
1418.85	202
1420.2	222
1421.55	208
1422.91	212
1424.26	212
1425.61	200
1426.96	222
1428.31	210
1429.66	216
1431.01	218
1432.36	220
1433.71	236
1435.06	248
1436.41	260
1437.76	240
1439.11	262
1440.46	264
1441.81	294
1443.15	286
1444.5	296
1445.85	316
1447.19	324
1448.54	302
1449.89	328
1451.23	336
1452.58	312
1453.92	298
1455.27	294
1456.61	262
1457.95	256
1459.3	220
1460.64	212
1461.98	214
1463.33	216
1464.67	198
1466.01	184
1467.35	186
1468.69	182
1470.03	178
1471.37	182
1472.71	176
1474.05	174
1475.39	176
1476.73	160
1478.07	176
1479.41	188
1480.75	176
1482.09	166
1483.42	186
1484.76	168
1486.1	180
1487.43	162
1488.77	166
1490.11	172
1491.44	178
1492.78	188
1494.11	196
1495.45	174
1496.78	154
1498.12	168
1499.45	158
1500.78	168
1502.11	162
1503.45	172
1504.78	162
1506.11	168
1507.44	168
1508.77	168
1510.11	168
1511.44	168
1512.77	156
1514.1	160
1515.43	158
1516.76	168
1518.08	162
1519.41	164
1520.74	162
1522.07	154
1523.4	164
1524.72	160
1526.05	154
1527.38	154
1528.7	162
1530.03	166
1531.36	166
1532.68	160
1534.01	168
1535.33	164
1536.66	156
1537.98	160
1539.3	158
1540.63	146
1541.95	158
1543.27	162
1544.6	160
1545.92	154
1547.24	164
1548.56	160
1549.88	150
1551.2	164
1552.52	160
1553.84	158
1555.17	164
1556.48	162
1557.8	152
1559.12	166
1560.44	158
1561.76	168
1563.08	160
1564.4	164
1565.71	164
1567.03	176
1568.35	180
1569.66	162
1570.98	174
1572.29	190
1573.61	190
1574.93	214
1576.24	216
1577.55	226
1578.87	266
1580.18	328
1581.5	390
1582.81	396
1584.12	384
1585.43	366
1586.75	300
1588.06	260
1589.37	248
1590.68	244
1591.99	260
1593.3	276
1594.61	306
1595.92	350
1597.23	422
1598.54	506
1599.85	594
1601.16	696
1602.47	676
1603.78	646
1605.08	558
1606.39	452
1607.7	380
1609	302
1610.31	288
1611.62	236
1612.92	218
1614.23	216
1615.53	192
1616.84	188
1618.14	174
1619.45	162
1620.75	168
1622.06	158
1623.36	160
1624.66	172
1625.96	148
1627.27	156
1628.57	152
1629.87	146
1631.17	150
1632.47	144
1633.77	142
1635.07	146
1636.37	158
1637.67	144
1638.97	148
1640.27	142
1641.57	136
1642.87	148
1644.17	162
1645.47	152
1646.76	144
1648.06	154
1649.36	146
1650.66	146
1651.95	154
1653.25	138
1654.54	140
1655.84	150
1657.13	132
1658.43	140
1659.72	134
1661.02	132
1662.31	130
1663.6	132
1664.9	136
1666.19	136
1667.48	134
1668.78	134
1670.07	132
1671.36	124
1672.65	138
1673.94	130
1675.23	130
1676.52	128
1677.81	126
1679.1	116
1680.39	126
1681.68	116
1682.97	118
1684.26	134
1685.55	126
1686.83	126
1688.12	124
1689.41	126
1690.7	126
1691.98	122
1693.27	124
1694.55	126
1695.84	126
1697.13	116
1698.41	118
1699.69	120
1700.98	116
1702.26	120