File: Mixture_Classification/Jesse_Dataset_v2/Pure Raman/Polystyrene/785nm/ps-ppo-6jan25-1,0000-map3_Y05_X07.txt
204.377	840
206.045	870
207.713	842
209.38	884
211.048	862
212.715	912
214.381	884
216.047	926
217.712	914
219.377	910
221.042	892
222.706	884
224.369	874
226.032	848
227.695	810
229.357	752
231.019	712
232.68	680
234.341	620
236.001	584
237.661	542
239.321	502
240.98	464
242.639	418
244.297	378
245.955	364
247.612	330
249.268	320
250.924	310
252.58	298
254.236	296
255.891	280
257.546	280
259.2	272
260.854	262
262.507	262
264.16	264
265.812	260
267.463	256
269.115	248
270.766	246
272.417	242
274.067	244
275.717	250
277.365	224
279.014	208
280.663	216
282.311	204
283.958	198
285.605	214
287.252	210
288.898	196
290.543	198
292.188	192
293.833	184
295.477	172
297.121	174
298.765	172
300.407	160
302.05	172
303.693	162
305.334	178
306.975	164
308.615	168
310.256	158
311.896	182
313.535	178
315.175	176
316.813	160
318.451	168
320.089	172
321.726	178
323.362	174
324.999	184
326.635	178
328.271	160
329.905	170
331.54	174
333.174	162
334.807	168
336.441	156
338.074	156
339.707	162
341.338	156
342.969	158
344.601	156
346.231	152
347.861	160
349.491	160
351.12	160
352.749	152
354.378	152
356.006	154
357.633	144
359.261	142
360.887	156
362.513	146
364.139	146
365.764	138
367.39	146
369.014	160
370.638	154
372.261	146
373.884	158
375.508	154
377.13	160
378.752	170
380.373	172
381.994	158
383.615	172
385.235	176
386.854	164
388.473	190
390.092	186
391.711	190
393.328	188
394.947	190
396.564	188
398.181	188
399.797	202
401.412	202
403.027	230
404.642	246
406.257	244
407.871	224
409.484	234
411.098	224
412.711	198
414.323	208
415.935	196
417.547	178
419.158	180
420.768	164
422.378	172
423.988	162
425.597	160
427.206	148
428.814	140
430.422	152
432.03	146
433.637	158
435.243	140
436.85	142
438.456	132
440.062	136
441.666	136
443.271	134
444.876	142
446.479	130
448.082	122
449.685	116
451.287	124
452.89	118
454.492	104
456.092	114
457.693	106
459.293	108
460.893	112
462.492	104
464.092	118
465.691	104
467.288	102
468.887	102
470.483	108
472.081	108
473.677	112
475.273	108
476.869	110
478.463	106
480.059	98
481.653	102
483.247	94
484.84	96
486.433	96
488.026	102
489.618	98
491.21	94
492.801	106
494.392	104
495.983	98
497.573	108
499.162	118
500.752	94
502.341	114
503.929	112
505.517	112
507.105	98
508.692	108
510.279	110
511.865	102
513.45	112
515.037	106
516.621	102
518.206	114
519.79	112
521.374	118
522.957	116
524.54	110
526.123	124
527.705	118
529.287	124
530.868	134
532.448	126
534.029	134
535.609	144
537.188	146
538.768	146
540.346	142
541.925	166
543.502	152
545.08	150
546.657	154
548.234	136
549.81	138
551.386	142
552.961	138
554.536	146
556.11	134
557.684	138
559.258	138
560.832	138
562.405	142
563.977	132
565.55	126
567.12	136
568.692	136
570.263	146
571.833	148
573.403	134
574.973	146
576.542	146
578.111	134
579.679	126
581.247	108
582.815	116
584.382	108
585.948	122
587.514	110
589.081	116
590.645	102
592.211	114
593.775	112
595.339	112
596.904	110
598.466	112
600.03	116
601.592	130
603.154	120
604.715	120
606.277	136
607.838	144
609.398	140
610.958	146
612.518	156
614.077	198
615.636	218
617.194	344
618.753	504
620.31	746
621.867	684
623.424	484
624.98	292
626.537	208
628.092	162
629.647	152
631.202	128
632.756	118
634.31	118
635.864	104
637.417	102
638.969	96
640.521	90
642.074	92
643.625	84
645.176	80
646.726	82
648.276	80
649.827	86
651.376	80
652.925	88
654.473	82
656.021	80
657.569	76
659.117	78
660.664	82
662.21	80
663.757	84
665.302	86
666.847	74
668.392	82
669.937	78
671.481	76
673.025	70
674.568	74
676.111	78
677.653	76
679.195	68
680.737	72
682.279	72
683.82	80
685.36	74
686.9	78
688.44	78
689.979	80
691.517	68
693.056	76
694.594	84
696.132	86
697.669	96
699.206	88
700.742	94
702.278	102
703.814	104
705.35	100
706.884	104
708.419	94
709.953	98
711.487	98
713.019	102
714.552	100
716.085	98
717.617	98
719.148	102
720.68	110
722.21	130
723.741	130
725.271	144
726.8	142
728.33	128
729.858	128
731.387	128
732.915	118
734.443	126
735.97	164
737.497	162
739.023	174
740.549	186
742.075	190
743.6	180
745.125	182
746.65	200
748.173	198
749.697	184
751.22	200
752.743	210
754.266	222
755.788	234
757.309	222
758.831	240
760.351	232
761.871	232
763.392	226
764.912	218
766.431	228
767.95	206
769.468	204
770.986	196
772.504	188
774.022	196
775.538	204
777.055	196
778.571	208
780.086	212
781.602	232
783.117	248
784.632	264
786.146	262
787.659	282
789.173	284
790.685	314
792.198	322
793.71	332
795.222	348
796.733	332
798.244	318
799.755	314
801.265	270
802.775	258
804.284	218
805.793	200
807.302	200
808.81	180
810.318	160
811.826	174
813.333	164
814.84	152
816.346	140
817.851	138
819.357	126
820.862	122
822.367	114
823.871	118
825.376	114
826.878	116
828.382	118
829.885	120
831.387	106
832.889	116
834.391	138
835.892	142
837.392	158
838.893	150
840.393	164
841.893	150
843.392	154
844.891	140
846.389	144
847.888	140
849.386	130
850.882	134
852.38	122
853.876	138
855.372	132
856.868	124
858.363	122
859.858	122
861.353	126
862.847	124
864.341	124
865.834	126
867.328	118
868.82	130
870.313	122
871.805	120
873.296	124
874.787	122
876.278	118
877.769	114
879.258	116
880.748	112
882.237	108
883.726	106
885.214	114
886.702	126
888.19	104
889.677	106
891.164	114
892.651	118
894.137	110
895.623	118
897.108	112
898.593	120
900.077	126
901.562	138
903.046	136
904.529	142
906.012	154
907.495	128
908.977	136
910.459	148
911.941	128
913.422	114
914.903	114
916.383	110
917.863	102
919.343	92
920.822	100
922.301	98
923.779	100
925.257	96
926.735	102
928.213	92
929.69	100
931.166	92
932.643	94
934.119	100
935.594	102
937.069	94
938.543	88
940.018	100
941.492	106
942.966	98
944.439	100
945.911	104
947.384	112
948.856	96
950.328	102
951.799	92
953.27	106
954.741	106
956.21	102
957.68	110
959.15	114
960.619	118
962.088	118
963.556	134
965.023	130
966.491	134
967.958	134
969.425	132
970.891	132
972.357	134
973.824	138
975.288	152
976.754	154
978.218	176
979.682	172
981.146	202
982.609	224
984.072	250
985.534	276
986.997	322
988.459	418
989.92	614
991.382	782
992.842	842
994.302	782
995.763	884
997.222	1242
998.681	1954
1000.14	2896
1001.6	3308
1003.06	2904
1004.52	1948
1005.97	1188
1007.43	682
1008.89	434
1010.34	324
1011.8	252
1013.25	218
1014.71	166
1016.16	188
1017.62	200
1019.07	190
1020.53	218
1021.98	248
1023.43	318
1024.89	400
1026.34	492
1027.79	630
1029.24	792
1030.69	892
1032.14	902
1033.59	782
1035.04	674
1036.49	522
1037.94	408
1039.39	320
1040.84	268
1042.29	220
1043.73	210
1045.18	188
1046.63	182
1048.08	168
1049.52	162
1050.97	154
1052.41	162
1053.86	142
1055.3	154
1056.75	154
1058.19	140
1059.64	160
1061.08	162
1062.52	166
1063.96	156
1065.41	174
1066.85	174
1068.29	182
1069.73	174
1071.17	176
1072.61	186
1074.05	162
1075.49	176
1076.93	150
1078.37	178
1079.81	160
1081.25	168
1082.68	182
1084.12	156
1085.56	168
1087	174
1088.43	164
1089.87	170
1091.3	164
1092.74	160
1094.17	162
1095.61	182
1097.04	182
1098.48	158
1099.91	170
1101.34	158
1102.78	156
1104.21	142
1105.64	156
1107.07	148
1108.5	138
1109.93	140
1111.36	134
1112.8	118
1114.22	128
1115.65	120
1117.08	128
1118.51	122
1119.94	114
1121.37	114
1122.8	116
1124.22	108
1125.65	114
1127.08	116
1128.5	106
1129.93	108
1131.35	116
1132.78	106
1134.2	102
1135.63	112
1137.05	122
1138.48	124
1139.9	134
1141.32	132
1142.75	144
1144.17	148
1145.59	164
1147.01	176
1148.43	202
1149.85	236
1151.27	292
1152.69	350
1154.11	404
1155.53	426
1156.95	392
1158.37	332
1159.79	290
1161.21	266
1162.62	236
1164.04	220
1165.46	216
1166.87	204
1168.29	224
1169.71	242
1171.12	236
1172.54	250
1173.95	256
1175.37	292
1176.78	366
1178.19	442
1179.61	478
1181.02	518
1182.43	518
1183.84	492
1185.26	486
1186.67	454
1188.08	426
1189.49	416
1190.9	454
1192.31	476
1193.72	518
1195.13	486
1196.54	492
1197.95	504
1199.36	492
1200.76	486
1202.17	456
1203.58	448
1204.99	412
1206.39	362
1207.8	354
1209.2	318
1210.61	302
1212.01	254
1213.42	250
1214.82	228
1216.23	224
1217.63	230
1219.03	206
1220.44	202
1221.84	188
1223.24	198
1224.64	186
1226.05	196
1227.45	188
1228.85	196
1230.25	184
1231.65	170
1233.05	176
1234.45	182
1235.85	176
1237.25	180
1238.64	174
1240.04	168
1241.44	174
1242.84	160
1244.23	182
1245.63	166
1247.03	172
1248.42	162
1249.82	168
1251.21	176
1252.61	172
1254	156
1255.4	170
1256.79	176
1258.19	172
1259.58	168
1260.97	174
1262.36	164
1263.76	170
1265.15	180
1266.54	176
1267.93	166
1269.32	178
1270.71	178
1272.1	174
1273.49	158
1274.88	156
1276.27	174
1277.66	180
1279.05	174
1280.43	174
1281.82	184
1283.21	176
1284.6	172
1285.98	188
1287.37	180
1288.75	188
1290.14	196
1291.53	192
1292.91	196
1294.29	196
1295.68	194
1297.06	212
1298.45	198
1299.83	220
1301.21	214
1302.59	212
1303.98	208
1305.36	228
1306.74	238
1308.12	222
1309.5	232
1310.88	216
1312.26	244
1313.64	232
1315.02	238
1316.4	262
1317.78	260
1319.16	270
1320.53	284
1321.91	280
1323.29	282
1324.67	298
1326.04	300
1327.42	302
1328.79	278
1330.17	298
1331.54	304
1332.92	290
1334.29	284
1335.67	294
1337.04	294
1338.42	274
1339.79	280
1341.16	254
1342.53	274
1343.91	272
1345.28	272
1346.65	242
1348.02	264
1349.39	262
1350.76	262
1352.13	262
1353.5	274
1354.87	282
1356.24	282
1357.61	266
1358.98	284
1360.34	280
1361.71	274
1363.08	268
1364.45	296
1365.81	276
1367.18	298
1368.54	284
1369.91	290
1371.28	284
1372.64	300
1374.01	288
1375.37	288
1376.73	276
1378.1	284
1379.46	274
1380.82	270
1382.19	266
1383.55	266
1384.91	252
1386.27	256
1387.63	246
1388.99	248
1390.35	250
1391.71	244
1393.07	256
1394.43	234
1395.79	232
1397.15	242
1398.51	232
1399.87	246
1401.23	232
1402.58	232
1403.94	246
1405.3	238
1406.65	228
1408.01	240
1409.37	236
1410.72	240
1412.08	224
1413.43	220
1414.79	220
1416.14	224
1417.49	228
1418.85	230
1420.2	214
1421.55	232
1422.91	226
1424.26	194
1425.61	226
1426.96	228
1428.31	234
1429.66	226
1431.01	214
1432.36	238
1433.71	236
1435.06	262
1436.41	250
1437.76	270
1439.11	268
1440.46	284
1441.81	296
1443.15	320
1444.5	310
1445.85	344
1447.19	334
1448.54	326
1449.89	348
1451.23	330
1452.58	322
1453.92	318
1455.27	304
1456.61	274
1457.95	250
1459.3	244
1460.64	234
1461.98	218
1463.33	212
1464.67	220
1466.01	206
1467.35	204
1468.69	192
1470.03	194
1471.37	192
1472.71	198
1474.05	190
1475.39	182
1476.73	198
1478.07	190
1479.41	176
1480.75	180
1482.09	192
1483.42	184
1484.76	182
1486.1	180
1487.43	174
1488.77	180
1490.11	190
1491.44	186
1492.78	186
1494.11	180
1495.45	186
1496.78	172
1498.12	164
1499.45	178
1500.78	184
1502.11	180
1503.45	174
1504.78	174
1506.11	154
1507.44	176
1508.77	184
1510.11	158
1511.44	150
1512.77	170
1514.1	172
1515.43	168
1516.76	174
1518.08	170
1519.41	174
1520.74	182
1522.07	176
1523.4	152
1524.72	184
1526.05	164
1527.38	176
1528.7	168
1530.03	164
1531.36	172
1532.68	176
1534.01	170
1535.33	168
1536.66	176
1537.98	172
1539.3	162
1540.63	164
1541.95	168
1543.27	162
1544.6	162
1545.92	166
1547.24	168
1548.56	174
1549.88	166
1551.2	164
1552.52	168
1553.84	162
1555.17	174
1556.48	178
1557.8	164
1559.12	184
1560.44	164
1561.76	166
1563.08	164
1564.4	170
1565.71	168
1567.03	184
1568.35	164
1569.66	166
1570.98	188
1572.29	202
1573.61	202
1574.93	192
1576.24	228
1577.55	246
1578.87	272
1580.18	318
1581.5	390
1582.81	426
1584.12	402
1585.43	352
1586.75	302
1588.06	268
1589.37	248
1590.68	246
1591.99	260
1593.3	282
1594.61	328
1595.92	354
1597.23	436
1598.54	516
1599.85	628
1601.16	686
1602.47	690
1603.78	646
1605.08	552
1606.39	472
1607.7	400
1609	322
1610.31	274
1611.62	248
1612.92	220
1614.23	230
1615.53	194
1616.84	206
1618.14	182
1619.45	184
1620.75	186
1622.06	188
1623.36	168
1624.66	168
1625.96	158
1627.27	152
1628.57	164
1629.87	170
1631.17	148
1632.47	160
1633.77	164
1635.07	144
1636.37	150
1637.67	156
1638.97	150
1640.27	150
1641.57	166
1642.87	144
1644.17	154
1645.47	152
1646.76	160
1648.06	166
1649.36	152
1650.66	146
1651.95	154
1653.25	146
1654.54	148
1655.84	138
1657.13	146
1658.43	134
1659.72	142
1661.02	144
1662.31	142
1663.6	134
1664.9	128
1666.19	126
1667.48	144
1668.78	128
1670.07	134
1671.36	130
1672.65	140
1673.94	128
1675.23	134
1676.52	132
1677.81	134
1679.1	124
1680.39	134
1681.68	130
1682.97	130
1684.26	124
1685.55	120
1686.83	122
1688.12	126
1689.41	128
1690.7	124
1691.98	130
1693.27	130
1694.55	120
1695.84	122
1697.13	128
1698.41	118
1699.69	120
1700.98	120
1702.26	118