File: Mixture_Classification/Jesse_Dataset_v2/Pure Raman/Polystyrene/785nm/ps-ppo-6jan25-1,0000-map3_Y04_X06.txt
204.377	836
206.045	866
207.713	874
209.38	880
211.048	860
212.715	886
214.381	894
216.047	912
217.712	900
219.377	908
221.042	906
222.706	898
224.369	920
226.032	822
227.695	820
229.357	778
231.019	708
232.68	676
234.341	632
236.001	594
237.661	554
239.321	498
240.98	466
242.639	420
244.297	390
245.955	366
247.612	346
249.268	318
250.924	302
252.58	294
254.236	280
255.891	292
257.546	280
259.2	274
260.854	264
262.507	260
264.16	274
265.812	254
267.463	250
269.115	270
270.766	264
272.417	254
274.067	234
275.717	246
277.365	234
279.014	240
280.663	226
282.311	206
283.958	216
285.605	216
287.252	208
288.898	200
290.543	188
292.188	186
293.833	176
295.477	166
297.121	186
298.765	176
300.407	166
302.05	174
303.693	166
305.334	162
306.975	170
308.615	156
310.256	170
311.896	164
313.535	170
315.175	176
316.813	166
318.451	180
320.089	186
321.726	170
323.362	170
324.999	174
326.635	176
328.271	162
329.905	158
331.54	172
333.174	174
334.807	166
336.441	164
338.074	164
339.707	166
341.338	154
342.969	158
344.601	160
346.231	146
347.861	146
349.491	162
351.12	140
352.749	150
354.378	156
356.006	164
357.633	144
359.261	154
360.887	138
362.513	146
364.139	156
365.764	148
367.39	150
369.014	146
370.638	156
372.261	162
373.884	162
375.508	162
377.13	152
378.752	168
380.373	164
381.994	164
383.615	188
385.235	182
386.854	182
388.473	182
390.092	176
391.711	186
393.328	200
394.947	178
396.564	194
398.181	184
399.797	192
401.412	212
403.027	222
404.642	234
406.257	232
407.871	220
409.484	216
411.098	224
412.711	192
414.323	194
415.935	178
417.547	174
419.158	180
420.768	174
422.378	170
423.988	166
425.597	152
427.206	148
428.814	156
430.422	136
432.03	146
433.637	140
435.243	136
436.85	138
438.456	134
440.062	140
441.666	138
443.271	144
444.876	136
446.479	128
448.082	132
449.685	126
451.287	120
452.89	128
454.492	116
456.092	110
457.693	112
459.293	114
460.893	114
462.492	112
464.092	106
465.691	104
467.288	114
468.887	108
470.483	110
472.081	110
473.677	110
475.273	102
476.869	96
478.463	104
480.059	96
481.653	104
483.247	100
484.84	92
486.433	104
488.026	100
489.618	94
491.21	98
492.801	102
494.392	98
495.983	90
497.573	94
499.162	110
500.752	104
502.341	104
503.929	104
505.517	104
507.105	102
508.692	106
510.279	114
511.865	110
513.45	110
515.037	104
516.621	108
518.206	116
519.79	106
521.374	112
522.957	118
524.54	104
526.123	118
527.705	128
529.287	130
530.868	122
532.448	136
534.029	136
535.609	154
537.188	148
538.768	146
540.346	148
541.925	144
543.502	138
545.08	138
546.657	142
548.234	144
549.81	152
551.386	148
552.961	144
554.536	134
556.11	138
557.684	132
559.258	144
560.832	132
562.405	128
563.977	128
565.55	148
567.12	138
568.692	134
570.263	132
571.833	138
573.403	140
574.973	124
576.542	126
578.111	122
579.679	112
581.247	118
582.815	108
584.382	116
585.948	112
587.514	104
589.081	116
590.645	112
592.211	110
593.775	110
595.339	94
596.904	112
598.466	114
600.03	118
601.592	118
603.154	124
604.715	130
606.277	138
607.838	148
609.398	148
610.958	148
612.518	154
614.077	174
615.636	212
617.194	318
618.753	534
620.31	722
621.867	698
623.424	462
624.98	284
626.537	198
628.092	160
629.647	150
631.202	134
632.756	124
634.31	118
635.864	100
637.417	96
638.969	96
640.521	94
642.074	98
643.625	86
645.176	82
646.726	84
648.276	90
649.827	80
651.376	78
652.925	82
654.473	80
656.021	76
657.569	78
659.117	74
660.664	82
662.21	80
663.757	86
665.302	80
666.847	64
668.392	82
669.937	78
671.481	80
673.025	82
674.568	74
676.111	72
677.653	78
679.195	78
680.737	64
682.279	76
683.82	72
685.36	86
686.9	80
688.44	76
689.979	70
691.517	68
693.056	74
694.594	72
696.132	78
697.669	88
699.206	90
700.742	88
702.278	108
703.814	102
705.35	100
706.884	96
708.419	96
709.953	106
711.487	94
713.019	92
714.552	102
716.085	100
717.617	88
719.148	104
720.68	118
722.21	134
723.741	138
725.271	146
726.8	136
728.33	134
729.858	134
731.387	128
732.915	122
734.443	134
735.97	154
737.497	166
739.023	160
740.549	182
742.075	186
743.6	178
745.125	186
746.65	176
748.173	184
749.697	196
751.22	184
752.743	196
754.266	218
755.788	230
757.309	216
758.831	224
760.351	244
761.871	228
763.392	220
764.912	230
766.431	214
767.95	208
769.468	220
770.986	204
772.504	196
774.022	208
775.538	194
777.055	200
778.571	206
780.086	228
781.602	230
783.117	248
784.632	256
786.146	276
787.659	300
789.173	318
790.685	328
792.198	332
793.71	326
795.222	350
796.733	340
798.244	328
799.755	326
801.265	274
802.775	256
804.284	232
805.793	196
807.302	198
808.81	190
810.318	182
811.826	168
813.333	168
814.84	152
816.346	136
817.851	122
819.357	128
820.862	122
822.367	114
823.871	110
825.376	104
826.878	106
828.382	112
829.885	102
831.387	118
832.889	110
834.391	136
835.892	136
837.392	146
838.893	154
840.393	146
841.893	148
843.392	148
844.891	148
846.389	142
847.888	152
849.386	132
850.882	128
852.38	118
853.876	124
855.372	128
856.868	120
858.363	120
859.858	120
861.353	124
862.847	126
864.341	120
865.834	116
867.328	122
868.82	136
870.313	126
871.805	126
873.296	126
874.787	122
876.278	120
877.769	120
879.258	124
880.748	128
882.237	114
883.726	116
885.214	114
886.702	116
888.19	110
889.677	114
891.164	108
892.651	114
894.137	114
895.623	116
897.108	120
898.593	126
900.077	126
901.562	136
903.046	136
904.529	136
906.012	140
907.495	148
908.977	140
910.459	134
911.941	138
913.422	118
914.903	122
916.383	114
917.863	114
919.343	108
920.822	96
922.301	94
923.779	100
925.257	94
926.735	90
928.213	96
929.69	94
931.166	96
932.643	84
934.119	82
935.594	102
937.069	96
938.543	96
940.018	96
941.492	100
942.966	98
944.439	98
945.911	92
947.384	102
948.856	104
950.328	108
951.799	106
953.27	94
954.741	104
956.21	104
957.68	106
959.15	112
960.619	112
962.088	120
963.556	124
965.023	128
966.491	132
967.958	132
969.425	128
970.891	122
972.357	134
973.824	128
975.288	140
976.754	154
978.218	166
979.682	186
981.146	198
982.609	222
984.072	236
985.534	274
986.997	330
988.459	416
989.92	596
991.382	784
992.842	860
994.302	802
995.763	848
997.222	1244
998.681	1914
1000.14	2864
1001.6	3352
1003.06	2904
1004.52	1974
1005.97	1170
1007.43	664
1008.89	434
1010.34	306
1011.8	246
1013.25	216
1014.71	198
1016.16	176
1017.62	184
1019.07	210
1020.53	238
1021.98	258
1023.43	284
1024.89	366
1026.34	470
1027.79	642
1029.24	758
1030.69	872
1032.14	924
1033.59	822
1035.04	664
1036.49	526
1037.94	400
1039.39	310
1040.84	272
1042.29	224
1043.73	212
1045.18	184
1046.63	174
1048.08	162
1049.52	162
1050.97	156
1052.41	154
1053.86	152
1055.3	158
1056.75	154
1058.19	162
1059.64	178
1061.08	156
1062.52	156
1063.96	174
1065.41	176
1066.85	164
1068.29	182
1069.73	168
1071.17	178
1072.61	182
1074.05	154
1075.49	172
1076.93	164
1078.37	194
1079.81	158
1081.25	170
1082.68	154
1084.12	172
1085.56	164
1087	166
1088.43	168
1089.87	176
1091.3	180
1092.74	174
1094.17	182
1095.61	170
1097.04	170
1098.48	172
1099.91	168
1101.34	176
1102.78	172
1104.21	152
1105.64	152
1107.07	146
1108.5	138
1109.93	140
1111.36	130
1112.8	134
1114.22	128
1115.65	134
1117.08	128
1118.51	106
1119.94	116
1121.37	118
1122.8	106
1124.22	102
1125.65	110
1127.08	114
1128.5	108
1129.93	108
1131.35	102
1132.78	110
1134.2	112
1135.63	122
1137.05	108
1138.48	124
1139.9	132
1141.32	130
1142.75	144
1144.17	148
1145.59	158
1147.01	162
1148.43	202
1149.85	248
1151.27	300
1152.69	346
1154.11	408
1155.53	434
1156.95	388
1158.37	330
1159.79	284
1161.21	252
1162.62	226
1164.04	212
1165.46	192
1166.87	208
1168.29	214
1169.71	220
1171.12	222
1172.54	218
1173.95	264
1175.37	284
1176.78	344
1178.19	408
1179.61	504
1181.02	538
1182.43	524
1183.84	492
1185.26	460
1186.67	426
1188.08	432
1189.49	444
1190.9	462
1192.31	482
1193.72	506
1195.13	510
1196.54	498
1197.95	514
1199.36	490
1200.76	482
1202.17	456
1203.58	458
1204.99	388
1206.39	384
1207.8	354
1209.2	306
1210.61	308
1212.01	284
1213.42	260
1214.82	244
1216.23	212
1217.63	216
1219.03	208
1220.44	212
1221.84	204
1223.24	220
1224.64	192
1226.05	200
1227.45	182
1228.85	176
1230.25	186
1231.65	178
1233.05	174
1234.45	188
1235.85	176
1237.25	164
1238.64	168
1240.04	172
1241.44	164
1242.84	162
1244.23	160
1245.63	184
1247.03	168
1248.42	170
1249.82	174
1251.21	164
1252.61	168
1254	172
1255.4	162
1256.79	160
1258.19	172
1259.58	166
1260.97	182
1262.36	170
1263.76	168
1265.15	154
1266.54	178
1267.93	168
1269.32	162
1270.71	170
1272.1	162
1273.49	170
1274.88	166
1276.27	166
1277.66	168
1279.05	180
1280.43	186
1281.82	166
1283.21	168
1284.6	184
1285.98	184
1287.37	182
1288.75	190
1290.14	186
1291.53	190
1292.91	182
1294.29	198
1295.68	220
1297.06	200
1298.45	214
1299.83	202
1301.21	210
1302.59	202
1303.98	206
1305.36	216
1306.74	224
1308.12	230
1309.5	238
1310.88	224
1312.26	234
1313.64	238
1315.02	242
1316.4	248
1317.78	272
1319.16	260
1320.53	280
1321.91	268
1323.29	284
1324.67	290
1326.04	286
1327.42	286
1328.79	300
1330.17	290
1331.54	308
1332.92	294
1334.29	282
1335.67	298
1337.04	294
1338.42	266
1339.79	286
1341.16	284
1342.53	264
1343.91	260
1345.28	260
1346.65	256
1348.02	256
1349.39	248
1350.76	258
1352.13	264
1353.5	254
1354.87	266
1356.24	264
1357.61	268
1358.98	258
1360.34	268
1361.71	290
1363.08	282
1364.45	268
1365.81	266
1367.18	280
1368.54	262
1369.91	290
1371.28	254
1372.64	288
1374.01	286
1375.37	282
1376.73	302
1378.1	280
1379.46	272
1380.82	256
1382.19	268
1383.55	250
1384.91	242
1386.27	242
1387.63	246
1388.99	236
1390.35	236
1391.71	236
1393.07	238
1394.43	228
1395.79	250
1397.15	250
1398.51	236
1399.87	230
1401.23	242
1402.58	240
1403.94	226
1405.3	232
1406.65	224
1408.01	222
1409.37	224
1410.72	216
1412.08	214
1413.43	226
1414.79	224
1416.14	224
1417.49	226
1418.85	214
1420.2	230
1421.55	216
1422.91	218
1424.26	216
1425.61	218
1426.96	212
1428.31	222
1429.66	222
1431.01	226
1432.36	228
1433.71	246
1435.06	248
1436.41	260
1437.76	262
1439.11	274
1440.46	262
1441.81	278
1443.15	298
1444.5	310
1445.85	320
1447.19	334
1448.54	316
1449.89	332
1451.23	320
1452.58	316
1453.92	312
1455.27	310
1456.61	290
1457.95	254
1459.3	232
1460.64	216
1461.98	210
1463.33	210
1464.67	216
1466.01	198
1467.35	186
1468.69	206
1470.03	186
1471.37	188
1472.71	188
1474.05	188
1475.39	176
1476.73	180
1478.07	190
1479.41	180
1480.75	184
1482.09	184
1483.42	174
1484.76	190
1486.1	192
1487.43	184
1488.77	178
1490.11	178
1491.44	190
1492.78	194
1494.11	198
1495.45	180
1496.78	186
1498.12	172
1499.45	168
1500.78	162
1502.11	176
1503.45	166
1504.78	172
1506.11	178
1507.44	174
1508.77	178
1510.11	174
1511.44	180
1512.77	160
1514.1	166
1515.43	164
1516.76	168
1518.08	174
1519.41	166
1520.74	166
1522.07	158
1523.4	162
1524.72	168
1526.05	162
1527.38	156
1528.7	164
1530.03	172
1531.36	160
1532.68	166
1534.01	162
1535.33	166
1536.66	160
1537.98	160
1539.3	158
1540.63	152
1541.95	162
1543.27	168
1544.6	168
1545.92	162
1547.24	164
1548.56	164
1549.88	158
1551.2	150
1552.52	158
1553.84	162
1555.17	152
1556.48	154
1557.8	162
1559.12	160
1560.44	156
1561.76	168
1563.08	168
1564.4	176
1565.71	164
1567.03	180
1568.35	188
1569.66	182
1570.98	188
1572.29	194
1573.61	188
1574.93	212
1576.24	224
1577.55	248
1578.87	266
1580.18	322
1581.5	390
1582.81	422
1584.12	386
1585.43	342
1586.75	302
1588.06	270
1589.37	252
1590.68	238
1591.99	250
1593.3	272
1594.61	298
1595.92	364
1597.23	446
1598.54	508
1599.85	604
1601.16	678
1602.47	700
1603.78	618
1605.08	524
1606.39	462
1607.7	384
1609	332
1610.31	286
1611.62	246
1612.92	210
1614.23	182
1615.53	196
1616.84	198
1618.14	184
1619.45	186
1620.75	172
1622.06	156
1623.36	164
1624.66	166
1625.96	158
1627.27	146
1628.57	160
1629.87	146
1631.17	166
1632.47	150
1633.77	146
1635.07	154
1636.37	154
1637.67	156
1638.97	150
1640.27	144
1641.57	154
1642.87	162
1644.17	158
1645.47	156
1646.76	152
1648.06	164
1649.36	154
1650.66	150
1651.95	144
1653.25	140
1654.54	134
1655.84	142
1657.13	128
1658.43	136
1659.72	126
1661.02	136
1662.31	134
1663.6	134
1664.9	136
1666.19	122
1667.48	130
1668.78	120
1670.07	130
1671.36	132
1672.65	128
1673.94	128
1675.23	116
1676.52	126
1677.81	124
1679.1	134
1680.39	128
1681.68	126
1682.97	128
1684.26	126
1685.55	122
1686.83	128
1688.12	130
1689.41	120
1690.7	130
1691.98	130
1693.27	112
1694.55	120
1695.84	120
1697.13	116
1698.41	118
1699.69	124
1700.98	112
1702.26	122