File: Mixture_Classification/Jesse_Dataset_v2/Pure Raman/Polystyrene/785nm/ps-ppo-6jan25-1,0000-map3_Y01_X05.txt
204.377	802
206.045	860
207.713	846
209.38	854
211.048	854
212.715	852
214.381	892
216.047	882
217.712	926
219.377	892
221.042	892
222.706	906
224.369	864
226.032	866
227.695	802
229.357	786
231.019	712
232.68	644
234.341	616
236.001	590
237.661	568
239.321	488
240.98	446
242.639	416
244.297	376
245.955	346
247.612	342
249.268	302
250.924	316
252.58	294
254.236	304
255.891	276
257.546	278
259.2	274
260.854	240
262.507	252
264.16	258
265.812	238
267.463	246
269.115	262
270.766	244
272.417	248
274.067	226
275.717	236
277.365	212
279.014	220
280.663	218
282.311	218
283.958	222
285.605	210
287.252	192
288.898	184
290.543	186
292.188	184
293.833	170
295.477	184
297.121	178
298.765	164
300.407	160
302.05	164
303.693	164
305.334	154
306.975	160
308.615	166
310.256	144
311.896	174
313.535	158
315.175	156
316.813	176
318.451	158
320.089	170
321.726	166
323.362	168
324.999	152
326.635	156
328.271	174
329.905	164
331.54	168
333.174	162
334.807	178
336.441	176
338.074	158
339.707	158
341.338	158
342.969	154
344.601	164
346.231	158
347.861	150
349.491	160
351.12	146
352.749	142
354.378	148
356.006	152
357.633	138
359.261	144
360.887	142
362.513	146
364.139	154
365.764	146
367.39	148
369.014	156
370.638	154
372.261	164
373.884	138
375.508	162
377.13	146
378.752	158
380.373	154
381.994	162
383.615	180
385.235	178
386.854	170
388.473	188
390.092	180
391.711	184
393.328	180
394.947	192
396.564	182
398.181	194
399.797	196
401.412	200
403.027	220
404.642	238
406.257	232
407.871	230
409.484	208
411.098	204
412.711	194
414.323	184
415.935	190
417.547	172
419.158	164
420.768	156
422.378	160
423.988	154
425.597	152
427.206	152
428.814	144
430.422	134
432.03	140
433.637	130
435.243	148
436.85	134
438.456	136
440.062	138
441.666	130
443.271	118
444.876	134
446.479	124
448.082	120
449.685	124
451.287	116
452.89	110
454.492	110
456.092	110
457.693	94
459.293	106
460.893	112
462.492	104
464.092	110
465.691	104
467.288	104
468.887	106
470.483	88
472.081	96
473.677	102
475.273	100
476.869	96
478.463	100
480.059	98
481.653	96
483.247	98
484.84	92
486.433	90
488.026	94
489.618	104
491.21	90
492.801	100
494.392	100
495.983	98
497.573	102
499.162	102
500.752	102
502.341	102
503.929	114
505.517	96
507.105	104
508.692	104
510.279	110
511.865	102
513.45	108
515.037	96
516.621	112
518.206	114
519.79	104
521.374	116
522.957	104
524.54	118
526.123	116
527.705	122
529.287	116
530.868	116
532.448	122
534.029	126
535.609	146
537.188	142
538.768	134
540.346	152
541.925	144
543.502	148
545.08	134
546.657	142
548.234	144
549.81	136
551.386	130
552.961	142
554.536	124
556.11	134
557.684	130
559.258	138
560.832	124
562.405	128
563.977	130
565.55	130
567.12	122
568.692	136
570.263	130
571.833	134
573.403	140
574.973	140
576.542	136
578.111	124
579.679	116
581.247	114
582.815	104
584.382	108
585.948	104
587.514	108
589.081	114
590.645	110
592.211	98
593.775	106
595.339	108
596.904	112
598.466	118
600.03	114
601.592	106
603.154	114
604.715	124
606.277	120
607.838	154
609.398	128
610.958	146
612.518	144
614.077	176
615.636	234
617.194	316
618.753	516
620.31	694
621.867	698
623.424	462
624.98	276
626.537	204
628.092	156
629.647	130
631.202	126
632.756	114
634.31	110
635.864	100
637.417	98
638.969	96
640.521	92
642.074	94
643.625	90
645.176	82
646.726	82
648.276	78
649.827	70
651.376	78
652.925	74
654.473	68
656.021	80
657.569	76
659.117	76
660.664	80
662.21	72
663.757	80
665.302	78
666.847	82
668.392	74
669.937	74
671.481	72
673.025	74
674.568	72
676.111	70
677.653	72
679.195	74
680.737	74
682.279	70
683.82	78
685.36	76
686.9	72
688.44	84
689.979	78
691.517	72
693.056	72
694.594	72
696.132	86
697.669	90
699.206	88
700.742	94
702.278	94
703.814	100
705.35	94
706.884	96
708.419	86
709.953	90
711.487	100
713.019	92
714.552	84
716.085	104
717.617	100
719.148	94
720.68	116
722.21	136
723.741	130
725.271	146
726.8	130
728.33	128
729.858	126
731.387	120
732.915	122
734.443	134
735.97	144
737.497	150
739.023	176
740.549	182
742.075	184
743.6	186
745.125	174
746.65	170
748.173	190
749.697	190
751.22	200
752.743	214
754.266	214
755.788	208
757.309	244
758.831	230
760.351	228
761.871	212
763.392	236
764.912	224
766.431	204
767.95	200
769.468	210
770.986	208
772.504	184
774.022	190
775.538	202
777.055	184
778.571	194
780.086	220
781.602	204
783.117	238
784.632	260
786.146	266
787.659	290
789.173	300
790.685	312
792.198	328
793.71	342
795.222	340
796.733	322
798.244	318
799.755	292
801.265	286
802.775	260
804.284	222
805.793	206
807.302	204
808.81	186
810.318	170
811.826	170
813.333	148
814.84	148
816.346	142
817.851	136
819.357	114
820.862	116
822.367	116
823.871	114
825.376	112
826.878	114
828.382	114
829.885	110
831.387	120
832.889	132
834.391	126
835.892	136
837.392	138
838.893	142
840.393	158
841.893	152
843.392	152
844.891	150
846.389	144
847.888	144
849.386	132
850.882	126
852.38	120
853.876	122
855.372	124
856.868	126
858.363	116
859.858	126
861.353	128
862.847	122
864.341	120
865.834	118
867.328	106
868.82	126
870.313	126
871.805	120
873.296	120
874.787	122
876.278	126
877.769	114
879.258	112
880.748	120
882.237	106
883.726	104
885.214	114
886.702	108
888.19	118
889.677	112
891.164	106
892.651	116
894.137	114
895.623	102
897.108	122
898.593	118
900.077	124
901.562	134
903.046	138
904.529	142
906.012	140
907.495	138
908.977	142
910.459	136
911.941	134
913.422	122
914.903	118
916.383	112
917.863	98
919.343	102
920.822	100
922.301	96
923.779	88
925.257	96
926.735	96
928.213	96
929.69	100
931.166	94
932.643	102
934.119	100
935.594	88
937.069	94
938.543	106
940.018	98
941.492	96
942.966	102
944.439	92
945.911	92
947.384	98
948.856	96
950.328	94
951.799	98
953.27	96
954.741	108
956.21	94
957.68	90
959.15	90
960.619	116
962.088	118
963.556	120
965.023	122
966.491	120
967.958	124
969.425	126
970.891	122
972.357	130
973.824	138
975.288	154
976.754	142
978.218	156
979.682	190
981.146	204
982.609	228
984.072	240
985.534	250
986.997	332
988.459	418
989.92	576
991.382	728
992.842	810
994.302	784
995.763	850
997.222	1190
998.681	1948
1000.14	2860
1001.6	3368
1003.06	2918
1004.52	1974
1005.97	1190
1007.43	690
1008.89	442
1010.34	340
1011.8	254
1013.25	208
1014.71	194
1016.16	186
1017.62	174
1019.07	202
1020.53	208
1021.98	248
1023.43	326
1024.89	368
1026.34	494
1027.79	612
1029.24	764
1030.69	862
1032.14	880
1033.59	824
1035.04	682
1036.49	526
1037.94	394
1039.39	310
1040.84	256
1042.29	232
1043.73	206
1045.18	176
1046.63	172
1048.08	174
1049.52	164
1050.97	156
1052.41	150
1053.86	150
1055.3	146
1056.75	148
1058.19	164
1059.64	150
1061.08	150
1062.52	158
1063.96	160
1065.41	166
1066.85	168
1068.29	178
1069.73	172
1071.17	178
1072.61	168
1074.05	166
1075.49	162
1076.93	170
1078.37	178
1079.81	168
1081.25	158
1082.68	160
1084.12	168
1085.56	160
1087	152
1088.43	162
1089.87	160
1091.3	160
1092.74	176
1094.17	174
1095.61	180
1097.04	166
1098.48	180
1099.91	166
1101.34	156
1102.78	146
1104.21	156
1105.64	150
1107.07	146
1108.5	140
1109.93	128
1111.36	134
1112.8	124
1114.22	120
1115.65	124
1117.08	128
1118.51	112
1119.94	112
1121.37	102
1122.8	116
1124.22	96
1125.65	110
1127.08	106
1128.5	100
1129.93	104
1131.35	108
1132.78	106
1134.2	112
1135.63	94
1137.05	124
1138.48	120
1139.9	118
1141.32	124
1142.75	136
1144.17	140
1145.59	168
1147.01	178
1148.43	188
1149.85	236
1151.27	292
1152.69	344
1154.11	418
1155.53	394
1156.95	416
1158.37	342
1159.79	300
1161.21	258
1162.62	224
1164.04	208
1165.46	212
1166.87	198
1168.29	202
1169.71	214
1171.12	216
1172.54	226
1173.95	256
1175.37	290
1176.78	346
1178.19	432
1179.61	468
1181.02	542
1182.43	530
1183.84	498
1185.26	456
1186.67	438
1188.08	422
1189.49	450
1190.9	462
1192.31	490
1193.72	494
1195.13	502
1196.54	486
1197.95	486
1199.36	468
1200.76	454
1202.17	450
1203.58	426
1204.99	414
1206.39	364
1207.8	348
1209.2	314
1210.61	278
1212.01	264
1213.42	240
1214.82	222
1216.23	210
1217.63	224
1219.03	210
1220.44	186
1221.84	204
1223.24	182
1224.64	208
1226.05	196
1227.45	176
1228.85	182
1230.25	180
1231.65	184
1233.05	172
1234.45	174
1235.85	164
1237.25	168
1238.64	172
1240.04	156
1241.44	164
1242.84	166
1244.23	170
1245.63	178
1247.03	164
1248.42	162
1249.82	170
1251.21	168
1252.61	164
1254	174
1255.4	156
1256.79	164
1258.19	166
1259.58	172
1260.97	180
1262.36	154
1263.76	164
1265.15	170
1266.54	180
1267.93	154
1269.32	168
1270.71	180
1272.1	170
1273.49	158
1274.88	168
1276.27	178
1277.66	166
1279.05	170
1280.43	170
1281.82	170
1283.21	188
1284.6	172
1285.98	166
1287.37	172
1288.75	172
1290.14	196
1291.53	186
1292.91	196
1294.29	202
1295.68	200
1297.06	208
1298.45	200
1299.83	208
1301.21	192
1302.59	226
1303.98	230
1305.36	220
1306.74	212
1308.12	236
1309.5	212
1310.88	236
1312.26	232
1313.64	238
1315.02	234
1316.4	248
1317.78	246
1319.16	266
1320.53	270
1321.91	266
1323.29	266
1324.67	278
1326.04	292
1327.42	276
1328.79	290
1330.17	290
1331.54	282
1332.92	298
1334.29	296
1335.67	264
1337.04	266
1338.42	274
1339.79	270
1341.16	268
1342.53	258
1343.91	274
1345.28	246
1346.65	252
1348.02	268
1349.39	262
1350.76	270
1352.13	254
1353.5	254
1354.87	252
1356.24	266
1357.61	260
1358.98	254
1360.34	274
1361.71	274
1363.08	272
1364.45	272
1365.81	270
1367.18	270
1368.54	260
1369.91	298
1371.28	270
1372.64	262
1374.01	274
1375.37	276
1376.73	266
1378.1	274
1379.46	264
1380.82	254
1382.19	264
1383.55	254
1384.91	242
1386.27	244
1387.63	244
1388.99	228
1390.35	246
1391.71	216
1393.07	244
1394.43	236
1395.79	232
1397.15	232
1398.51	238
1399.87	224
1401.23	230
1402.58	222
1403.94	226
1405.3	218
1406.65	228
1408.01	230
1409.37	216
1410.72	224
1412.08	218
1413.43	216
1414.79	210
1416.14	212
1417.49	210
1418.85	226
1420.2	216
1421.55	212
1422.91	222
1424.26	216
1425.61	218
1426.96	208
1428.31	208
1429.66	214
1431.01	226
1432.36	226
1433.71	234
1435.06	234
1436.41	272
1437.76	262
1439.11	268
1440.46	280
1441.81	272
1443.15	316
1444.5	322
1445.85	318
1447.19	326
1448.54	328
1449.89	334
1451.23	334
1452.58	310
1453.92	304
1455.27	286
1456.61	272
1457.95	248
1459.3	234
1460.64	210
1461.98	206
1463.33	212
1464.67	204
1466.01	194
1467.35	194
1468.69	188
1470.03	182
1471.37	180
1472.71	180
1474.05	176
1475.39	180
1476.73	184
1478.07	182
1479.41	178
1480.75	176
1482.09	174
1483.42	162
1484.76	184
1486.1	188
1487.43	176
1488.77	168
1490.11	168
1491.44	174
1492.78	186
1494.11	190
1495.45	178
1496.78	186
1498.12	178
1499.45	164
1500.78	184
1502.11	158
1503.45	174
1504.78	168
1506.11	176
1507.44	164
1508.77	156
1510.11	158
1511.44	180
1512.77	162
1514.1	176
1515.43	172
1516.76	170
1518.08	156
1519.41	166
1520.74	160
1522.07	158
1523.4	166
1524.72	164
1526.05	170
1527.38	154
1528.7	146
1530.03	158
1531.36	166
1532.68	146
1534.01	162
1535.33	160
1536.66	162
1537.98	172
1539.3	158
1540.63	148
1541.95	150
1543.27	144
1544.6	150
1545.92	158
1547.24	148
1548.56	154
1549.88	164
1551.2	156
1552.52	156
1553.84	160
1555.17	158
1556.48	166
1557.8	158
1559.12	152
1560.44	162
1561.76	160
1563.08	170
1564.4	170
1565.71	168
1567.03	162
1568.35	176
1569.66	166
1570.98	178
1572.29	184
1573.61	194
1574.93	212
1576.24	220
1577.55	234
1578.87	264
1580.18	320
1581.5	374
1582.81	416
1584.12	384
1585.43	356
1586.75	300
1588.06	268
1589.37	246
1590.68	240
1591.99	266
1593.3	272
1594.61	302
1595.92	356
1597.23	396
1598.54	508
1599.85	604
1601.16	676
1602.47	676
1603.78	646
1605.08	550
1606.39	438
1607.7	388
1609	308
1610.31	284
1611.62	230
1612.92	218
1614.23	206
1615.53	198
1616.84	184
1618.14	178
1619.45	164
1620.75	168
1622.06	180
1623.36	166
1624.66	162
1625.96	164
1627.27	152
1628.57	148
1629.87	148
1631.17	152
1632.47	136
1633.77	146
1635.07	148
1636.37	148
1637.67	142
1638.97	142
1640.27	158
1641.57	150
1642.87	156
1644.17	142
1645.47	136
1646.76	150
1648.06	158
1649.36	150
1650.66	148
1651.95	144
1653.25	142
1654.54	132
1655.84	140
1657.13	134
1658.43	126
1659.72	136
1661.02	138
1662.31	138
1663.6	126
1664.9	130
1666.19	126
1667.48	134
1668.78	124
1670.07	120
1671.36	128
1672.65	126
1673.94	122
1675.23	128
1676.52	122
1677.81	124
1679.1	126
1680.39	116
1681.68	120
1682.97	120
1684.26	128
1685.55	126
1686.83	120
1688.12	130
1689.41	122
1690.7	120
1691.98	124
1693.27	128
1694.55	124
1695.84	116
1697.13	114
1698.41	122
1699.69	116
1700.98	114
1702.26	128