File: Mixture_Classification/Jesse_Dataset_v2/Pure Raman/Polystyrene/785nm/ps-ppo-6jan25-1,0000-map3_Y07_X02.txt
204.377	832
206.045	820
207.713	874
209.38	888
211.048	872
212.715	894
214.381	892
216.047	908
217.712	928
219.377	902
221.042	886
222.706	884
224.369	878
226.032	836
227.695	812
229.357	768
231.019	730
232.68	666
234.341	636
236.001	594
237.661	550
239.321	502
240.98	446
242.639	424
244.297	380
245.955	352
247.612	344
249.268	312
250.924	302
252.58	316
254.236	266
255.891	286
257.546	282
259.2	262
260.854	260
262.507	256
264.16	270
265.812	260
267.463	252
269.115	256
270.766	246
272.417	248
274.067	222
275.717	242
277.365	228
279.014	214
280.663	216
282.311	214
283.958	202
285.605	204
287.252	206
288.898	198
290.543	196
292.188	180
293.833	176
295.477	174
297.121	158
298.765	168
300.407	174
302.05	162
303.693	168
305.334	158
306.975	150
308.615	164
310.256	176
311.896	172
313.535	166
315.175	176
316.813	170
318.451	172
320.089	168
321.726	158
323.362	160
324.999	166
326.635	170
328.271	176
329.905	174
331.54	174
333.174	158
334.807	162
336.441	162
338.074	172
339.707	164
341.338	164
342.969	160
344.601	150
346.231	150
347.861	170
349.491	156
351.12	146
352.749	152
354.378	144
356.006	162
357.633	150
359.261	146
360.887	150
362.513	142
364.139	148
365.764	154
367.39	150
369.014	144
370.638	162
372.261	142
373.884	154
375.508	160
377.13	162
378.752	150
380.373	172
381.994	172
383.615	178
385.235	180
386.854	180
388.473	182
390.092	186
391.711	190
393.328	184
394.947	194
396.564	198
398.181	200
399.797	206
401.412	200
403.027	222
404.642	238
406.257	240
407.871	238
409.484	218
411.098	218
412.711	198
414.323	192
415.935	178
417.547	182
419.158	162
420.768	172
422.378	170
423.988	146
425.597	160
427.206	158
428.814	148
430.422	140
432.03	146
433.637	134
435.243	142
436.85	138
438.456	134
440.062	130
441.666	138
443.271	130
444.876	128
446.479	132
448.082	128
449.685	120
451.287	122
452.89	118
454.492	106
456.092	110
457.693	116
459.293	106
460.893	110
462.492	106
464.092	98
465.691	102
467.288	100
468.887	104
470.483	102
472.081	98
473.677	110
475.273	108
476.869	102
478.463	90
480.059	96
481.653	102
483.247	94
484.84	94
486.433	102
488.026	102
489.618	94
491.21	94
492.801	90
494.392	102
495.983	94
497.573	108
499.162	108
500.752	100
502.341	110
503.929	114
505.517	106
507.105	106
508.692	104
510.279	104
511.865	100
513.45	112
515.037	102
516.621	110
518.206	114
519.79	110
521.374	108
522.957	100
524.54	120
526.123	116
527.705	120
529.287	118
530.868	128
532.448	120
534.029	136
535.609	136
537.188	142
538.768	138
540.346	142
541.925	142
543.502	146
545.08	140
546.657	144
548.234	148
549.81	148
551.386	138
552.961	138
554.536	142
556.11	130
557.684	142
559.258	136
560.832	136
562.405	136
563.977	132
565.55	126
567.12	128
568.692	140
570.263	132
571.833	142
573.403	138
574.973	130
576.542	134
578.111	130
579.679	120
581.247	102
582.815	110
584.382	108
585.948	100
587.514	102
589.081	100
590.645	110
592.211	104
593.775	104
595.339	114
596.904	116
598.466	110
600.03	114
601.592	108
603.154	128
604.715	120
606.277	148
607.838	152
609.398	152
610.958	142
612.518	170
614.077	172
615.636	226
617.194	320
618.753	518
620.31	726
621.867	674
623.424	458
624.98	280
626.537	198
628.092	160
629.647	140
631.202	132
632.756	126
634.31	116
635.864	100
637.417	104
638.969	96
640.521	88
642.074	92
643.625	82
645.176	90
646.726	80
648.276	82
649.827	84
651.376	74
652.925	68
654.473	80
656.021	72
657.569	72
659.117	76
660.664	80
662.21	78
663.757	82
665.302	72
666.847	74
668.392	76
669.937	76
671.481	68
673.025	74
674.568	76
676.111	72
677.653	84
679.195	74
680.737	74
682.279	78
683.82	78
685.36	76
686.9	72
688.44	84
689.979	74
691.517	72
693.056	82
694.594	82
696.132	80
697.669	90
699.206	96
700.742	102
702.278	94
703.814	90
705.35	106
706.884	92
708.419	100
709.953	96
711.487	100
713.019	98
714.552	86
716.085	90
717.617	104
719.148	110
720.68	118
722.21	130
723.741	150
725.271	144
726.8	140
728.33	130
729.858	120
731.387	126
732.915	124
734.443	138
735.97	146
737.497	152
739.023	178
740.549	192
742.075	190
743.6	190
745.125	176
746.65	190
748.173	194
749.697	178
751.22	198
752.743	214
754.266	210
755.788	230
757.309	222
758.831	240
760.351	248
761.871	216
763.392	226
764.912	220
766.431	210
767.95	222
769.468	204
770.986	186
772.504	180
774.022	186
775.538	196
777.055	190
778.571	192
780.086	208
781.602	218
783.117	246
784.632	258
786.146	272
787.659	288
789.173	306
790.685	316
792.198	326
793.71	344
795.222	366
796.733	348
798.244	332
799.755	310
801.265	278
802.775	236
804.284	220
805.793	224
807.302	198
808.81	186
810.318	164
811.826	168
813.333	164
814.84	148
816.346	144
817.851	144
819.357	128
820.862	122
822.367	112
823.871	114
825.376	116
826.878	106
828.382	110
829.885	112
831.387	124
832.889	120
834.391	130
835.892	124
837.392	138
838.893	152
840.393	164
841.893	162
843.392	162
844.891	150
846.389	158
847.888	140
849.386	132
850.882	124
852.38	126
853.876	122
855.372	132
856.868	122
858.363	116
859.858	128
861.353	122
862.847	122
864.341	116
865.834	134
867.328	106
868.82	128
870.313	128
871.805	120
873.296	122
874.787	120
876.278	126
877.769	120
879.258	118
880.748	112
882.237	108
883.726	108
885.214	114
886.702	114
888.19	118
889.677	120
891.164	118
892.651	114
894.137	112
895.623	108
897.108	122
898.593	128
900.077	126
901.562	134
903.046	140
904.529	136
906.012	128
907.495	146
908.977	134
910.459	136
911.941	118
913.422	124
914.903	114
916.383	112
917.863	100
919.343	100
920.822	104
922.301	100
923.779	88
925.257	98
926.735	94
928.213	98
929.69	100
931.166	94
932.643	94
934.119	96
935.594	88
937.069	102
938.543	106
940.018	102
941.492	104
942.966	98
944.439	100
945.911	102
947.384	100
948.856	94
950.328	96
951.799	90
953.27	92
954.741	102
956.21	108
957.68	102
959.15	96
960.619	118
962.088	118
963.556	122
965.023	124
966.491	126
967.958	126
969.425	118
970.891	126
972.357	126
973.824	140
975.288	128
976.754	156
978.218	172
979.682	184
981.146	192
982.609	218
984.072	240
985.534	262
986.997	328
988.459	410
989.92	580
991.382	766
992.842	812
994.302	772
995.763	858
997.222	1210
998.681	1996
1000.14	2914
1001.6	3316
1003.06	2874
1004.52	1972
1005.97	1176
1007.43	676
1008.89	462
1010.34	296
1011.8	242
1013.25	212
1014.71	188
1016.16	190
1017.62	178
1019.07	208
1020.53	232
1021.98	256
1023.43	296
1024.89	400
1026.34	488
1027.79	636
1029.24	774
1030.69	850
1032.14	904
1033.59	810
1035.04	670
1036.49	528
1037.94	424
1039.39	298
1040.84	254
1042.29	234
1043.73	194
1045.18	192
1046.63	184
1048.08	172
1049.52	156
1050.97	156
1052.41	162
1053.86	150
1055.3	148
1056.75	150
1058.19	144
1059.64	152
1061.08	158
1062.52	168
1063.96	176
1065.41	162
1066.85	170
1068.29	172
1069.73	164
1071.17	172
1072.61	184
1074.05	170
1075.49	162
1076.93	172
1078.37	166
1079.81	166
1081.25	160
1082.68	174
1084.12	160
1085.56	168
1087	176
1088.43	154
1089.87	158
1091.3	166
1092.74	158
1094.17	184
1095.61	180
1097.04	168
1098.48	166
1099.91	172
1101.34	162
1102.78	168
1104.21	154
1105.64	152
1107.07	140
1108.5	130
1109.93	128
1111.36	136
1112.8	134
1114.22	122
1115.65	134
1117.08	122
1118.51	128
1119.94	116
1121.37	106
1122.8	110
1124.22	114
1125.65	110
1127.08	104
1128.5	102
1129.93	108
1131.35	102
1132.78	104
1134.2	104
1135.63	112
1137.05	114
1138.48	112
1139.9	118
1141.32	126
1142.75	138
1144.17	148
1145.59	160
1147.01	178
1148.43	194
1149.85	248
1151.27	286
1152.69	358
1154.11	390
1155.53	426
1156.95	386
1158.37	348
1159.79	278
1161.21	248
1162.62	218
1164.04	226
1165.46	198
1166.87	204
1168.29	198
1169.71	214
1171.12	226
1172.54	230
1173.95	264
1175.37	310
1176.78	346
1178.19	400
1179.61	474
1181.02	522
1182.43	542
1183.84	492
1185.26	462
1186.67	430
1188.08	436
1189.49	424
1190.9	452
1192.31	480
1193.72	488
1195.13	510
1196.54	516
1197.95	482
1199.36	506
1200.76	480
1202.17	448
1203.58	424
1204.99	398
1206.39	358
1207.8	342
1209.2	338
1210.61	294
1212.01	250
1213.42	236
1214.82	228
1216.23	202
1217.63	206
1219.03	202
1220.44	200
1221.84	204
1223.24	188
1224.64	192
1226.05	208
1227.45	196
1228.85	176
1230.25	174
1231.65	184
1233.05	170
1234.45	160
1235.85	158
1237.25	172
1238.64	172
1240.04	162
1241.44	164
1242.84	172
1244.23	162
1245.63	168
1247.03	172
1248.42	162
1249.82	172
1251.21	176
1252.61	150
1254	164
1255.4	166
1256.79	176
1258.19	172
1259.58	182
1260.97	156
1262.36	162
1263.76	158
1265.15	178
1266.54	176
1267.93	180
1269.32	176
1270.71	174
1272.1	182
1273.49	166
1274.88	170
1276.27	156
1277.66	164
1279.05	164
1280.43	166
1281.82	176
1283.21	176
1284.6	176
1285.98	168
1287.37	176
1288.75	182
1290.14	182
1291.53	184
1292.91	184
1294.29	202
1295.68	196
1297.06	198
1298.45	202
1299.83	208
1301.21	202
1302.59	202
1303.98	208
1305.36	222
1306.74	226
1308.12	218
1309.5	222
1310.88	222
1312.26	230
1313.64	222
1315.02	250
1316.4	248
1317.78	260
1319.16	262
1320.53	282
1321.91	268
1323.29	278
1324.67	280
1326.04	290
1327.42	296
1328.79	306
1330.17	306
1331.54	292
1332.92	298
1334.29	296
1335.67	286
1337.04	274
1338.42	264
1339.79	268
1341.16	260
1342.53	266
1343.91	254
1345.28	258
1346.65	258
1348.02	268
1349.39	252
1350.76	276
1352.13	260
1353.5	266
1354.87	270
1356.24	260
1357.61	254
1358.98	256
1360.34	266
1361.71	272
1363.08	264
1364.45	270
1365.81	268
1367.18	264
1368.54	272
1369.91	278
1371.28	290
1372.64	260
1374.01	252
1375.37	264
1376.73	272
1378.1	250
1379.46	252
1380.82	256
1382.19	264
1383.55	254
1384.91	246
1386.27	256
1387.63	230
1388.99	254
1390.35	230
1391.71	232
1393.07	232
1394.43	234
1395.79	234
1397.15	234
1398.51	230
1399.87	210
1401.23	234
1402.58	212
1403.94	232
1405.3	208
1406.65	226
1408.01	234
1409.37	228
1410.72	236
1412.08	218
1413.43	224
1414.79	202
1416.14	212
1417.49	220
1418.85	208
1420.2	220
1421.55	214
1422.91	208
1424.26	210
1425.61	212
1426.96	218
1428.31	218
1429.66	226
1431.01	234
1432.36	222
1433.71	236
1435.06	244
1436.41	246
1437.76	258
1439.11	268
1440.46	268
1441.81	288
1443.15	306
1444.5	304
1445.85	310
1447.19	330
1448.54	334
1449.89	336
1451.23	314
1452.58	312
1453.92	320
1455.27	274
1456.61	266
1457.95	232
1459.3	232
1460.64	218
1461.98	210
1463.33	192
1464.67	196
1466.01	200
1467.35	194
1468.69	188
1470.03	188
1471.37	184
1472.71	184
1474.05	176
1475.39	196
1476.73	172
1478.07	184
1479.41	188
1480.75	172
1482.09	180
1483.42	170
1484.76	176
1486.1	188
1487.43	174
1488.77	172
1490.11	182
1491.44	184
1492.78	178
1494.11	192
1495.45	192
1496.78	176
1498.12	172
1499.45	176
1500.78	164
1502.11	170
1503.45	158
1504.78	160
1506.11	154
1507.44	154
1508.77	162
1510.11	156
1511.44	162
1512.77	160
1514.1	166
1515.43	160
1516.76	158
1518.08	164
1519.41	162
1520.74	162
1522.07	174
1523.4	162
1524.72	160
1526.05	160
1527.38	166
1528.7	160
1530.03	158
1531.36	150
1532.68	152
1534.01	160
1535.33	146
1536.66	160
1537.98	152
1539.3	162
1540.63	156
1541.95	158
1543.27	154
1544.6	162
1545.92	156
1547.24	158
1548.56	160
1549.88	164
1551.2	152
1552.52	162
1553.84	154
1555.17	166
1556.48	160
1557.8	166
1559.12	166
1560.44	158
1561.76	160
1563.08	170
1564.4	150
1565.71	164
1567.03	176
1568.35	172
1569.66	186
1570.98	168
1572.29	172
1573.61	190
1574.93	210
1576.24	222
1577.55	232
1578.87	274
1580.18	306
1581.5	406
1582.81	416
1584.12	398
1585.43	356
1586.75	284
1588.06	258
1589.37	244
1590.68	258
1591.99	246
1593.3	290
1594.61	312
1595.92	356
1597.23	426
1598.54	504
1599.85	620
1601.16	660
1602.47	702
1603.78	666
1605.08	540
1606.39	464
1607.7	378
1609	294
1610.31	282
1611.62	228
1612.92	226
1614.23	194
1615.53	192
1616.84	188
1618.14	162
1619.45	190
1620.75	172
1622.06	172
1623.36	178
1624.66	160
1625.96	150
1627.27	154
1628.57	150
1629.87	142
1631.17	140
1632.47	148
1633.77	146
1635.07	142
1636.37	152
1637.67	146
1638.97	148
1640.27	152
1641.57	154
1642.87	146
1644.17	148
1645.47	152
1646.76	158
1648.06	154
1649.36	150
1650.66	150
1651.95	142
1653.25	120
1654.54	144
1655.84	140
1657.13	144
1658.43	126
1659.72	136
1661.02	138
1662.31	118
1663.6	128
1664.9	136
1666.19	126
1667.48	136
1668.78	126
1670.07	132
1671.36	124
1672.65	120
1673.94	128
1675.23	122
1676.52	126
1677.81	128
1679.1	118
1680.39	128
1681.68	126
1682.97	122
1684.26	120
1685.55	116
1686.83	126
1688.12	122
1689.41	124
1690.7	124
1691.98	118
1693.27	124
1694.55	124
1695.84	118
1697.13	122
1698.41	120
1699.69	114
1700.98	120
1702.26	118