File: Mixture_Classification/Jesse_Dataset_v2/Pure Raman/Polystyrene/785nm/ps-ppo-6jan25-1,0000-map3_Y02_X03.txt
204.377	856
206.045	838
207.713	896
209.38	848
211.048	892
212.715	896
214.381	874
216.047	922
217.712	892
219.377	950
221.042	914
222.706	902
224.369	922
226.032	830
227.695	826
229.357	758
231.019	736
232.68	680
234.341	638
236.001	602
237.661	550
239.321	506
240.98	448
242.639	428
244.297	370
245.955	358
247.612	356
249.268	326
250.924	314
252.58	304
254.236	290
255.891	286
257.546	278
259.2	266
260.854	270
262.507	246
264.16	272
265.812	262
267.463	254
269.115	264
270.766	260
272.417	254
274.067	234
275.717	246
277.365	222
279.014	228
280.663	234
282.311	224
283.958	212
285.605	218
287.252	198
288.898	204
290.543	190
292.188	182
293.833	182
295.477	182
297.121	186
298.765	164
300.407	170
302.05	178
303.693	176
305.334	156
306.975	174
308.615	172
310.256	178
311.896	166
313.535	168
315.175	172
316.813	178
318.451	172
320.089	164
321.726	184
323.362	178
324.999	162
326.635	170
328.271	168
329.905	170
331.54	170
333.174	170
334.807	176
336.441	166
338.074	182
339.707	164
341.338	170
342.969	172
344.601	164
346.231	166
347.861	142
349.491	152
351.12	146
352.749	148
354.378	152
356.006	154
357.633	156
359.261	152
360.887	148
362.513	150
364.139	158
365.764	140
367.39	154
369.014	162
370.638	150
372.261	140
373.884	152
375.508	156
377.13	160
378.752	170
380.373	182
381.994	180
383.615	164
385.235	176
386.854	170
388.473	178
390.092	174
391.711	172
393.328	184
394.947	178
396.564	198
398.181	210
399.797	204
401.412	212
403.027	204
404.642	232
406.257	250
407.871	224
409.484	232
411.098	222
412.711	204
414.323	188
415.935	200
417.547	186
419.158	184
420.768	164
422.378	168
423.988	174
425.597	150
427.206	158
428.814	160
430.422	142
432.03	138
433.637	142
435.243	138
436.85	142
438.456	146
440.062	134
441.666	138
443.271	136
444.876	132
446.479	138
448.082	136
449.685	122
451.287	124
452.89	120
454.492	118
456.092	106
457.693	116
459.293	116
460.893	100
462.492	112
464.092	108
465.691	110
467.288	106
468.887	110
470.483	112
472.081	116
473.677	110
475.273	106
476.869	104
478.463	98
480.059	98
481.653	108
483.247	104
484.84	88
486.433	96
488.026	98
489.618	94
491.21	102
492.801	98
494.392	100
495.983	92
497.573	102
499.162	112
500.752	108
502.341	110
503.929	102
505.517	108
507.105	108
508.692	92
510.279	114
511.865	108
513.45	112
515.037	110
516.621	108
518.206	106
519.79	110
521.374	112
522.957	116
524.54	114
526.123	114
527.705	120
529.287	128
530.868	132
532.448	148
534.029	130
535.609	150
537.188	142
538.768	146
540.346	150
541.925	148
543.502	156
545.08	146
546.657	146
548.234	144
549.81	148
551.386	148
552.961	134
554.536	132
556.11	122
557.684	138
559.258	144
560.832	136
562.405	146
563.977	134
565.55	122
567.12	126
568.692	136
570.263	128
571.833	140
573.403	130
574.973	140
576.542	132
578.111	134
579.679	126
581.247	122
582.815	118
584.382	114
585.948	112
587.514	112
589.081	112
590.645	104
592.211	112
593.775	104
595.339	116
596.904	116
598.466	106
600.03	102
601.592	118
603.154	126
604.715	128
606.277	146
607.838	152
609.398	142
610.958	144
612.518	154
614.077	178
615.636	232
617.194	332
618.753	520
620.31	702
621.867	684
623.424	474
624.98	284
626.537	206
628.092	174
629.647	146
631.202	132
632.756	122
634.31	110
635.864	102
637.417	96
638.969	100
640.521	88
642.074	86
643.625	92
645.176	86
646.726	84
648.276	86
649.827	78
651.376	78
652.925	74
654.473	78
656.021	82
657.569	82
659.117	76
660.664	78
662.21	78
663.757	80
665.302	82
666.847	80
668.392	78
669.937	66
671.481	86
673.025	72
674.568	82
676.111	76
677.653	68
679.195	70
680.737	82
682.279	82
683.82	82
685.36	78
686.9	82
688.44	82
689.979	74
691.517	76
693.056	84
694.594	88
696.132	84
697.669	82
699.206	94
700.742	94
702.278	98
703.814	96
705.35	100
706.884	94
708.419	102
709.953	100
711.487	100
713.019	86
714.552	90
716.085	102
717.617	102
719.148	96
720.68	116
722.21	130
723.741	148
725.271	150
726.8	134
728.33	150
729.858	120
731.387	128
732.915	128
734.443	136
735.97	144
737.497	160
739.023	174
740.549	162
742.075	186
743.6	184
745.125	180
746.65	184
748.173	194
749.697	192
751.22	196
752.743	202
754.266	200
755.788	216
757.309	228
758.831	236
760.351	254
761.871	224
763.392	228
764.912	208
766.431	220
767.95	202
769.468	192
770.986	190
772.504	192
774.022	212
775.538	194
777.055	202
778.571	206
780.086	208
781.602	222
783.117	246
784.632	246
786.146	272
787.659	310
789.173	330
790.685	320
792.198	306
793.71	346
795.222	342
796.733	346
798.244	330
799.755	308
801.265	290
802.775	250
804.284	248
805.793	194
807.302	192
808.81	188
810.318	164
811.826	180
813.333	156
814.84	168
816.346	144
817.851	138
819.357	130
820.862	128
822.367	114
823.871	114
825.376	106
826.878	114
828.382	122
829.885	118
831.387	118
832.889	116
834.391	118
835.892	128
837.392	142
838.893	150
840.393	162
841.893	150
843.392	162
844.891	152
846.389	142
847.888	140
849.386	138
850.882	138
852.38	116
853.876	134
855.372	118
856.868	120
858.363	126
859.858	126
861.353	114
862.847	128
864.341	126
865.834	126
867.328	132
868.82	118
870.313	126
871.805	120
873.296	120
874.787	124
876.278	116
877.769	110
879.258	120
880.748	128
882.237	128
883.726	110
885.214	106
886.702	112
888.19	110
889.677	120
891.164	108
892.651	110
894.137	110
895.623	126
897.108	120
898.593	124
900.077	128
901.562	132
903.046	142
904.529	140
906.012	140
907.495	144
908.977	142
910.459	138
911.941	134
913.422	122
914.903	118
916.383	112
917.863	112
919.343	112
920.822	104
922.301	104
923.779	104
925.257	102
926.735	108
928.213	94
929.69	104
931.166	100
932.643	94
934.119	94
935.594	102
937.069	94
938.543	100
940.018	112
941.492	114
942.966	110
944.439	114
945.911	104
947.384	108
948.856	106
950.328	108
951.799	104
953.27	106
954.741	94
956.21	108
957.68	110
959.15	98
960.619	116
962.088	118
963.556	116
965.023	130
966.491	138
967.958	134
969.425	134
970.891	124
972.357	126
973.824	136
975.288	128
976.754	154
978.218	176
979.682	198
981.146	192
982.609	222
984.072	236
985.534	268
986.997	342
988.459	410
989.92	568
991.382	762
992.842	798
994.302	748
995.763	824
997.222	1238
998.681	1984
1000.14	2858
1001.6	3282
1003.06	2874
1004.52	2026
1005.97	1174
1007.43	698
1008.89	478
1010.34	302
1011.8	250
1013.25	222
1014.71	210
1016.16	180
1017.62	190
1019.07	208
1020.53	232
1021.98	250
1023.43	320
1024.89	388
1026.34	496
1027.79	640
1029.24	778
1030.69	890
1032.14	902
1033.59	828
1035.04	700
1036.49	554
1037.94	398
1039.39	314
1040.84	270
1042.29	240
1043.73	220
1045.18	184
1046.63	184
1048.08	164
1049.52	164
1050.97	158
1052.41	152
1053.86	166
1055.3	156
1056.75	148
1058.19	148
1059.64	156
1061.08	164
1062.52	156
1063.96	160
1065.41	162
1066.85	168
1068.29	174
1069.73	172
1071.17	186
1072.61	162
1074.05	176
1075.49	164
1076.93	168
1078.37	176
1079.81	164
1081.25	180
1082.68	168
1084.12	172
1085.56	170
1087	164
1088.43	154
1089.87	180
1091.3	166
1092.74	174
1094.17	170
1095.61	166
1097.04	172
1098.48	176
1099.91	170
1101.34	154
1102.78	170
1104.21	152
1105.64	152
1107.07	126
1108.5	134
1109.93	146
1111.36	138
1112.8	132
1114.22	134
1115.65	128
1117.08	122
1118.51	124
1119.94	114
1121.37	106
1122.8	104
1124.22	112
1125.65	106
1127.08	106
1128.5	104
1129.93	108
1131.35	104
1132.78	112
1134.2	118
1135.63	110
1137.05	108
1138.48	120
1139.9	126
1141.32	126
1142.75	136
1144.17	144
1145.59	160
1147.01	176
1148.43	180
1149.85	232
1151.27	278
1152.69	362
1154.11	396
1155.53	432
1156.95	396
1158.37	362
1159.79	270
1161.21	252
1162.62	226
1164.04	218
1165.46	194
1166.87	200
1168.29	200
1169.71	214
1171.12	222
1172.54	238
1173.95	250
1175.37	306
1176.78	346
1178.19	416
1179.61	480
1181.02	510
1182.43	538
1183.84	488
1185.26	466
1186.67	426
1188.08	430
1189.49	446
1190.9	450
1192.31	496
1193.72	480
1195.13	502
1196.54	522
1197.95	492
1199.36	506
1200.76	490
1202.17	470
1203.58	438
1204.99	404
1206.39	374
1207.8	338
1209.2	324
1210.61	288
1212.01	272
1213.42	244
1214.82	230
1216.23	216
1217.63	202
1219.03	204
1220.44	214
1221.84	204
1223.24	198
1224.64	204
1226.05	190
1227.45	196
1228.85	192
1230.25	188
1231.65	178
1233.05	182
1234.45	168
1235.85	164
1237.25	166
1238.64	168
1240.04	164
1241.44	164
1242.84	178
1244.23	178
1245.63	172
1247.03	172
1248.42	164
1249.82	160
1251.21	170
1252.61	164
1254	172
1255.4	164
1256.79	160
1258.19	168
1259.58	166
1260.97	170
1262.36	162
1263.76	172
1265.15	170
1266.54	170
1267.93	166
1269.32	162
1270.71	170
1272.1	168
1273.49	150
1274.88	166
1276.27	166
1277.66	152
1279.05	178
1280.43	168
1281.82	178
1283.21	174
1284.6	168
1285.98	178
1287.37	172
1288.75	192
1290.14	186
1291.53	200
1292.91	194
1294.29	196
1295.68	204
1297.06	206
1298.45	208
1299.83	196
1301.21	206
1302.59	212
1303.98	218
1305.36	222
1306.74	216
1308.12	202
1309.5	228
1310.88	226
1312.26	232
1313.64	236
1315.02	236
1316.4	246
1317.78	268
1319.16	256
1320.53	258
1321.91	268
1323.29	272
1324.67	292
1326.04	296
1327.42	284
1328.79	286
1330.17	294
1331.54	294
1332.92	298
1334.29	306
1335.67	286
1337.04	270
1338.42	280
1339.79	274
1341.16	272
1342.53	256
1343.91	260
1345.28	262
1346.65	264
1348.02	262
1349.39	244
1350.76	252
1352.13	250
1353.5	264
1354.87	246
1356.24	270
1357.61	238
1358.98	276
1360.34	270
1361.71	264
1363.08	252
1364.45	256
1365.81	266
1367.18	272
1368.54	270
1369.91	276
1371.28	264
1372.64	264
1374.01	268
1375.37	276
1376.73	288
1378.1	276
1379.46	266
1380.82	256
1382.19	270
1383.55	254
1384.91	250
1386.27	248
1387.63	232
1388.99	240
1390.35	224
1391.71	234
1393.07	244
1394.43	220
1395.79	228
1397.15	214
1398.51	232
1399.87	232
1401.23	232
1402.58	228
1403.94	214
1405.3	236
1406.65	226
1408.01	242
1409.37	212
1410.72	222
1412.08	196
1413.43	214
1414.79	214
1416.14	206
1417.49	210
1418.85	226
1420.2	216
1421.55	212
1422.91	206
1424.26	194
1425.61	208
1426.96	218
1428.31	226
1429.66	220
1431.01	210
1432.36	234
1433.71	230
1435.06	246
1436.41	252
1437.76	270
1439.11	274
1440.46	266
1441.81	286
1443.15	286
1444.5	304
1445.85	326
1447.19	330
1448.54	344
1449.89	324
1451.23	328
1452.58	312
1453.92	302
1455.27	280
1456.61	270
1457.95	232
1459.3	220
1460.64	218
1461.98	198
1463.33	210
1464.67	214
1466.01	196
1467.35	178
1468.69	186
1470.03	192
1471.37	186
1472.71	180
1474.05	176
1475.39	182
1476.73	176
1478.07	182
1479.41	190
1480.75	182
1482.09	174
1483.42	178
1484.76	162
1486.1	172
1487.43	180
1488.77	188
1490.11	178
1491.44	182
1492.78	186
1494.11	182
1495.45	174
1496.78	168
1498.12	164
1499.45	168
1500.78	168
1502.11	166
1503.45	168
1504.78	162
1506.11	168
1507.44	156
1508.77	166
1510.11	172
1511.44	158
1512.77	162
1514.1	164
1515.43	166
1516.76	168
1518.08	160
1519.41	156
1520.74	164
1522.07	160
1523.4	156
1524.72	154
1526.05	168
1527.38	170
1528.7	162
1530.03	170
1531.36	148
1532.68	158
1534.01	162
1535.33	152
1536.66	168
1537.98	168
1539.3	160
1540.63	158
1541.95	158
1543.27	160
1544.6	150
1545.92	174
1547.24	162
1548.56	154
1549.88	150
1551.2	164
1552.52	160
1553.84	166
1555.17	166
1556.48	154
1557.8	148
1559.12	156
1560.44	164
1561.76	146
1563.08	180
1564.4	164
1565.71	160
1567.03	164
1568.35	172
1569.66	172
1570.98	164
1572.29	174
1573.61	182
1574.93	198
1576.24	222
1577.55	248
1578.87	266
1580.18	316
1581.5	386
1582.81	424
1584.12	400
1585.43	332
1586.75	282
1588.06	254
1589.37	260
1590.68	244
1591.99	262
1593.3	282
1594.61	302
1595.92	324
1597.23	430
1598.54	520
1599.85	612
1601.16	712
1602.47	676
1603.78	636
1605.08	570
1606.39	444
1607.7	388
1609	328
1610.31	290
1611.62	258
1612.92	220
1614.23	224
1615.53	186
1616.84	190
1618.14	182
1619.45	186
1620.75	178
1622.06	162
1623.36	166
1624.66	162
1625.96	168
1627.27	150
1628.57	156
1629.87	150
1631.17	148
1632.47	136
1633.77	142
1635.07	142
1636.37	146
1637.67	152
1638.97	156
1640.27	146
1641.57	154
1642.87	144
1644.17	158
1645.47	162
1646.76	152
1648.06	156
1649.36	154
1650.66	140
1651.95	132
1653.25	146
1654.54	152
1655.84	124
1657.13	138
1658.43	136
1659.72	130
1661.02	132
1662.31	134
1663.6	130
1664.9	132
1666.19	136
1667.48	124
1668.78	132
1670.07	128
1671.36	128
1672.65	128
1673.94	114
1675.23	124
1676.52	134
1677.81	118
1679.1	126
1680.39	128
1681.68	124
1682.97	136
1684.26	126
1685.55	124
1686.83	126
1688.12	128
1689.41	128
1690.7	116
1691.98	118
1693.27	120
1694.55	126
1695.84	122
1697.13	124
1698.41	122
1699.69	114
1700.98	114
1702.26	122