File: Mixture_Classification/Jesse_Dataset_v2/Pure Raman/Polystyrene/785nm/ps-ppo-6jan25-1,0000-map3_Y03_X07.txt
204.377	846
206.045	824
207.713	826
209.38	886
211.048	890
212.715	880
214.381	894
216.047	914
217.712	936
219.377	888
221.042	912
222.706	842
224.369	868
226.032	856
227.695	824
229.357	766
231.019	732
232.68	672
234.341	630
236.001	586
237.661	540
239.321	476
240.98	436
242.639	416
244.297	366
245.955	356
247.612	338
249.268	320
250.924	306
252.58	306
254.236	286
255.891	284
257.546	258
259.2	276
260.854	260
262.507	250
264.16	256
265.812	254
267.463	262
269.115	258
270.766	238
272.417	248
274.067	232
275.717	236
277.365	234
279.014	208
280.663	212
282.311	212
283.958	206
285.605	204
287.252	202
288.898	206
290.543	198
292.188	180
293.833	188
295.477	180
297.121	180
298.765	164
300.407	164
302.05	158
303.693	162
305.334	174
306.975	168
308.615	164
310.256	166
311.896	162
313.535	162
315.175	168
316.813	144
318.451	166
320.089	170
321.726	158
323.362	178
324.999	168
326.635	178
328.271	166
329.905	160
331.54	166
333.174	178
334.807	166
336.441	158
338.074	162
339.707	166
341.338	146
342.969	150
344.601	148
346.231	150
347.861	158
349.491	154
351.12	136
352.749	132
354.378	140
356.006	142
357.633	156
359.261	142
360.887	146
362.513	148
364.139	136
365.764	142
367.39	146
369.014	144
370.638	150
372.261	156
373.884	158
375.508	164
377.13	158
378.752	164
380.373	162
381.994	168
383.615	170
385.235	180
386.854	180
388.473	178
390.092	174
391.711	170
393.328	180
394.947	188
396.564	196
398.181	184
399.797	204
401.412	206
403.027	216
404.642	232
406.257	236
407.871	246
409.484	210
411.098	198
412.711	184
414.323	188
415.935	178
417.547	176
419.158	172
420.768	166
422.378	152
423.988	156
425.597	148
427.206	154
428.814	154
430.422	140
432.03	144
433.637	140
435.243	142
436.85	136
438.456	140
440.062	140
441.666	134
443.271	130
444.876	120
446.479	126
448.082	126
449.685	120
451.287	114
452.89	118
454.492	106
456.092	106
457.693	108
459.293	110
460.893	114
462.492	98
464.092	110
465.691	100
467.288	106
468.887	102
470.483	114
472.081	106
473.677	104
475.273	104
476.869	96
478.463	92
480.059	96
481.653	100
483.247	98
484.84	96
486.433	96
488.026	96
489.618	102
491.21	98
492.801	98
494.392	94
495.983	106
497.573	106
499.162	104
500.752	98
502.341	104
503.929	108
505.517	104
507.105	96
508.692	102
510.279	96
511.865	96
513.45	108
515.037	100
516.621	112
518.206	112
519.79	98
521.374	100
522.957	110
524.54	110
526.123	114
527.705	120
529.287	120
530.868	120
532.448	128
534.029	126
535.609	136
537.188	140
538.768	152
540.346	150
541.925	148
543.502	144
545.08	146
546.657	134
548.234	138
549.81	136
551.386	128
552.961	136
554.536	140
556.11	128
557.684	138
559.258	130
560.832	136
562.405	132
563.977	138
565.55	122
567.12	134
568.692	128
570.263	124
571.833	140
573.403	142
574.973	140
576.542	128
578.111	112
579.679	118
581.247	112
582.815	102
584.382	102
585.948	114
587.514	108
589.081	104
590.645	104
592.211	106
593.775	104
595.339	110
596.904	112
598.466	106
600.03	106
601.592	106
603.154	120
604.715	136
606.277	140
607.838	152
609.398	146
610.958	156
612.518	154
614.077	172
615.636	222
617.194	302
618.753	498
620.31	692
621.867	698
623.424	482
624.98	282
626.537	192
628.092	152
629.647	150
631.202	150
632.756	122
634.31	118
635.864	108
637.417	102
638.969	92
640.521	92
642.074	80
643.625	70
645.176	90
646.726	84
648.276	80
649.827	72
651.376	88
652.925	76
654.473	66
656.021	78
657.569	78
659.117	70
660.664	74
662.21	80
663.757	74
665.302	78
666.847	70
668.392	72
669.937	74
671.481	72
673.025	72
674.568	72
676.111	80
677.653	66
679.195	78
680.737	68
682.279	84
683.82	80
685.36	70
686.9	78
688.44	70
689.979	84
691.517	70
693.056	80
694.594	76
696.132	82
697.669	90
699.206	94
700.742	92
702.278	92
703.814	100
705.35	94
706.884	98
708.419	84
709.953	90
711.487	86
713.019	102
714.552	94
716.085	90
717.617	104
719.148	104
720.68	116
722.21	124
723.741	146
725.271	128
726.8	136
728.33	124
729.858	120
731.387	126
732.915	120
734.443	134
735.97	138
737.497	164
739.023	158
740.549	184
742.075	180
743.6	196
745.125	192
746.65	184
748.173	200
749.697	186
751.22	192
752.743	204
754.266	218
755.788	230
757.309	232
758.831	224
760.351	214
761.871	230
763.392	234
764.912	230
766.431	212
767.95	204
769.468	204
770.986	204
772.504	190
774.022	182
775.538	180
777.055	202
778.571	210
780.086	204
781.602	216
783.117	234
784.632	254
786.146	272
787.659	284
789.173	316
790.685	326
792.198	324
793.71	332
795.222	344
796.733	330
798.244	336
799.755	328
801.265	294
802.775	266
804.284	226
805.793	224
807.302	206
808.81	184
810.318	170
811.826	164
813.333	154
814.84	156
816.346	134
817.851	142
819.357	128
820.862	110
822.367	118
823.871	114
825.376	106
826.878	120
828.382	100
829.885	110
831.387	116
832.889	120
834.391	132
835.892	138
837.392	140
838.893	160
840.393	152
841.893	156
843.392	156
844.891	158
846.389	144
847.888	144
849.386	132
850.882	136
852.38	136
853.876	120
855.372	130
856.868	128
858.363	116
859.858	124
861.353	122
862.847	120
864.341	122
865.834	114
867.328	120
868.82	116
870.313	122
871.805	120
873.296	124
874.787	124
876.278	112
877.769	126
879.258	116
880.748	116
882.237	112
883.726	104
885.214	110
886.702	116
888.19	110
889.677	94
891.164	108
892.651	120
894.137	110
895.623	110
897.108	114
898.593	122
900.077	130
901.562	138
903.046	130
904.529	130
906.012	154
907.495	144
908.977	132
910.459	124
911.941	130
913.422	118
914.903	118
916.383	112
917.863	106
919.343	102
920.822	106
922.301	100
923.779	90
925.257	98
926.735	100
928.213	98
929.69	94
931.166	100
932.643	96
934.119	92
935.594	98
937.069	102
938.543	98
940.018	100
941.492	108
942.966	96
944.439	94
945.911	98
947.384	102
948.856	102
950.328	100
951.799	88
953.27	100
954.741	106
956.21	92
957.68	100
959.15	106
960.619	110
962.088	114
963.556	124
965.023	128
966.491	128
967.958	128
969.425	132
970.891	122
972.357	114
973.824	132
975.288	146
976.754	146
978.218	168
979.682	166
981.146	198
982.609	212
984.072	234
985.534	266
986.997	318
988.459	398
989.92	584
991.382	786
992.842	840
994.302	764
995.763	874
997.222	1220
998.681	1976
1000.14	2936
1001.6	3350
1003.06	2914
1004.52	2000
1005.97	1200
1007.43	692
1008.89	450
1010.34	324
1011.8	248
1013.25	220
1014.71	200
1016.16	184
1017.62	180
1019.07	190
1020.53	214
1021.98	270
1023.43	310
1024.89	380
1026.34	502
1027.79	642
1029.24	760
1030.69	854
1032.14	906
1033.59	834
1035.04	698
1036.49	534
1037.94	378
1039.39	320
1040.84	262
1042.29	232
1043.73	198
1045.18	184
1046.63	170
1048.08	168
1049.52	170
1050.97	164
1052.41	158
1053.86	138
1055.3	146
1056.75	144
1058.19	158
1059.64	156
1061.08	152
1062.52	158
1063.96	172
1065.41	180
1066.85	164
1068.29	184
1069.73	178
1071.17	184
1072.61	172
1074.05	166
1075.49	170
1076.93	174
1078.37	170
1079.81	166
1081.25	158
1082.68	162
1084.12	160
1085.56	166
1087	164
1088.43	164
1089.87	168
1091.3	182
1092.74	164
1094.17	172
1095.61	174
1097.04	176
1098.48	168
1099.91	174
1101.34	176
1102.78	156
1104.21	152
1105.64	154
1107.07	136
1108.5	140
1109.93	144
1111.36	130
1112.8	120
1114.22	122
1115.65	124
1117.08	122
1118.51	122
1119.94	122
1121.37	112
1122.8	112
1124.22	108
1125.65	104
1127.08	110
1128.5	108
1129.93	104
1131.35	102
1132.78	102
1134.2	118
1135.63	108
1137.05	118
1138.48	114
1139.9	116
1141.32	132
1142.75	146
1144.17	148
1145.59	166
1147.01	176
1148.43	198
1149.85	230
1151.27	284
1152.69	366
1154.11	394
1155.53	432
1156.95	400
1158.37	344
1159.79	290
1161.21	264
1162.62	232
1164.04	218
1165.46	194
1166.87	202
1168.29	212
1169.71	208
1171.12	214
1172.54	224
1173.95	272
1175.37	278
1176.78	354
1178.19	426
1179.61	480
1181.02	522
1182.43	518
1183.84	500
1185.26	480
1186.67	428
1188.08	420
1189.49	434
1190.9	454
1192.31	486
1193.72	474
1195.13	480
1196.54	526
1197.95	470
1199.36	488
1200.76	462
1202.17	450
1203.58	432
1204.99	416
1206.39	398
1207.8	350
1209.2	302
1210.61	278
1212.01	256
1213.42	252
1214.82	232
1216.23	228
1217.63	214
1219.03	198
1220.44	190
1221.84	206
1223.24	196
1224.64	210
1226.05	190
1227.45	196
1228.85	180
1230.25	182
1231.65	172
1233.05	178
1234.45	186
1235.85	176
1237.25	160
1238.64	170
1240.04	174
1241.44	178
1242.84	170
1244.23	170
1245.63	160
1247.03	174
1248.42	174
1249.82	176
1251.21	174
1252.61	164
1254	160
1255.4	166
1256.79	168
1258.19	158
1259.58	164
1260.97	168
1262.36	178
1263.76	164
1265.15	160
1266.54	172
1267.93	166
1269.32	182
1270.71	168
1272.1	170
1273.49	174
1274.88	176
1276.27	188
1277.66	174
1279.05	172
1280.43	176
1281.82	180
1283.21	176
1284.6	170
1285.98	152
1287.37	184
1288.75	180
1290.14	184
1291.53	188
1292.91	198
1294.29	198
1295.68	190
1297.06	206
1298.45	200
1299.83	204
1301.21	206
1302.59	226
1303.98	214
1305.36	216
1306.74	230
1308.12	224
1309.5	224
1310.88	248
1312.26	232
1313.64	248
1315.02	240
1316.4	248
1317.78	252
1319.16	260
1320.53	264
1321.91	290
1323.29	276
1324.67	278
1326.04	306
1327.42	292
1328.79	304
1330.17	304
1331.54	306
1332.92	318
1334.29	314
1335.67	296
1337.04	284
1338.42	298
1339.79	272
1341.16	274
1342.53	268
1343.91	288
1345.28	258
1346.65	266
1348.02	262
1349.39	246
1350.76	272
1352.13	252
1353.5	254
1354.87	272
1356.24	274
1357.61	274
1358.98	282
1360.34	272
1361.71	268
1363.08	260
1364.45	276
1365.81	280
1367.18	296
1368.54	272
1369.91	286
1371.28	282
1372.64	272
1374.01	292
1375.37	288
1376.73	278
1378.1	290
1379.46	278
1380.82	276
1382.19	264
1383.55	262
1384.91	260
1386.27	240
1387.63	254
1388.99	240
1390.35	234
1391.71	238
1393.07	248
1394.43	248
1395.79	236
1397.15	238
1398.51	238
1399.87	246
1401.23	246
1402.58	244
1403.94	250
1405.3	232
1406.65	236
1408.01	228
1409.37	236
1410.72	218
1412.08	216
1413.43	226
1414.79	232
1416.14	222
1417.49	244
1418.85	226
1420.2	220
1421.55	218
1422.91	234
1424.26	210
1425.61	234
1426.96	214
1428.31	232
1429.66	230
1431.01	222
1432.36	214
1433.71	252
1435.06	250
1436.41	272
1437.76	250
1439.11	268
1440.46	280
1441.81	294
1443.15	314
1444.5	306
1445.85	318
1447.19	324
1448.54	336
1449.89	346
1451.23	342
1452.58	324
1453.92	312
1455.27	302
1456.61	282
1457.95	258
1459.3	240
1460.64	214
1461.98	204
1463.33	220
1464.67	210
1466.01	182
1467.35	204
1468.69	188
1470.03	192
1471.37	190
1472.71	200
1474.05	184
1475.39	184
1476.73	178
1478.07	186
1479.41	186
1480.75	182
1482.09	188
1483.42	180
1484.76	180
1486.1	180
1487.43	176
1488.77	186
1490.11	196
1491.44	194
1492.78	186
1494.11	198
1495.45	186
1496.78	178
1498.12	186
1499.45	166
1500.78	182
1502.11	164
1503.45	182
1504.78	180
1506.11	172
1507.44	172
1508.77	162
1510.11	184
1511.44	168
1512.77	166
1514.1	172
1515.43	164
1516.76	186
1518.08	170
1519.41	180
1520.74	156
1522.07	164
1523.4	166
1524.72	172
1526.05	166
1527.38	172
1528.7	154
1530.03	178
1531.36	176
1532.68	176
1534.01	166
1535.33	172
1536.66	166
1537.98	172
1539.3	166
1540.63	146
1541.95	162
1543.27	162
1544.6	164
1545.92	166
1547.24	166
1548.56	176
1549.88	152
1551.2	162
1552.52	170
1553.84	170
1555.17	166
1556.48	172
1557.8	152
1559.12	168
1560.44	168
1561.76	176
1563.08	172
1564.4	172
1565.71	180
1567.03	160
1568.35	164
1569.66	184
1570.98	190
1572.29	178
1573.61	184
1574.93	206
1576.24	198
1577.55	236
1578.87	272
1580.18	338
1581.5	400
1582.81	428
1584.12	386
1585.43	370
1586.75	318
1588.06	268
1589.37	242
1590.68	262
1591.99	274
1593.3	288
1594.61	296
1595.92	350
1597.23	448
1598.54	514
1599.85	606
1601.16	674
1602.47	710
1603.78	646
1605.08	560
1606.39	456
1607.7	388
1609	338
1610.31	286
1611.62	254
1612.92	222
1614.23	212
1615.53	196
1616.84	180
1618.14	188
1619.45	176
1620.75	172
1622.06	178
1623.36	168
1624.66	162
1625.96	156
1627.27	148
1628.57	170
1629.87	152
1631.17	146
1632.47	146
1633.77	148
1635.07	148
1636.37	152
1637.67	144
1638.97	162
1640.27	164
1641.57	150
1642.87	146
1644.17	158
1645.47	164
1646.76	156
1648.06	160
1649.36	156
1650.66	148
1651.95	140
1653.25	148
1654.54	126
1655.84	140
1657.13	140
1658.43	134
1659.72	132
1661.02	126
1662.31	130
1663.6	130
1664.9	134
1666.19	132
1667.48	134
1668.78	134
1670.07	134
1671.36	134
1672.65	138
1673.94	122
1675.23	134
1676.52	132
1677.81	124
1679.1	132
1680.39	124
1681.68	128
1682.97	128
1684.26	128
1685.55	126
1686.83	122
1688.12	128
1689.41	128
1690.7	126
1691.98	126
1693.27	130
1694.55	136
1695.84	118
1697.13	120
1698.41	130
1699.69	120
1700.98	126
1702.26	124