File: Mixture_Classification/Jesse_Dataset_v2/Pure Raman/Polystyrene/785nm/ps-ppo-6jan25-1,0000-map3_Y06_X08.txt
204.377	874
206.045	852
207.713	850
209.38	870
211.048	900
212.715	890
214.381	864
216.047	898
217.712	950
219.377	928
221.042	910
222.706	912
224.369	878
226.032	862
227.695	834
229.357	770
231.019	716
232.68	678
234.341	624
236.001	602
237.661	538
239.321	516
240.98	472
242.639	438
244.297	366
245.955	374
247.612	328
249.268	308
250.924	320
252.58	296
254.236	292
255.891	284
257.546	302
259.2	284
260.854	266
262.507	266
264.16	260
265.812	260
267.463	242
269.115	266
270.766	244
272.417	256
274.067	252
275.717	228
277.365	244
279.014	228
280.663	222
282.311	224
283.958	208
285.605	212
287.252	226
288.898	204
290.543	188
292.188	198
293.833	164
295.477	182
297.121	172
298.765	180
300.407	176
302.05	170
303.693	170
305.334	170
306.975	174
308.615	168
310.256	178
311.896	184
313.535	174
315.175	172
316.813	192
318.451	180
320.089	180
321.726	188
323.362	176
324.999	176
326.635	178
328.271	176
329.905	180
331.54	174
333.174	176
334.807	170
336.441	156
338.074	172
339.707	168
341.338	174
342.969	170
344.601	174
346.231	158
347.861	152
349.491	154
351.12	152
352.749	164
354.378	160
356.006	150
357.633	150
359.261	150
360.887	152
362.513	172
364.139	170
365.764	158
367.39	156
369.014	150
370.638	156
372.261	164
373.884	154
375.508	156
377.13	168
378.752	160
380.373	176
381.994	178
383.615	184
385.235	168
386.854	192
388.473	186
390.092	200
391.711	186
393.328	216
394.947	192
396.564	202
398.181	206
399.797	206
401.412	220
403.027	222
404.642	246
406.257	244
407.871	228
409.484	222
411.098	210
412.711	208
414.323	208
415.935	186
417.547	194
419.158	188
420.768	182
422.378	172
423.988	174
425.597	158
427.206	154
428.814	156
430.422	150
432.03	154
433.637	158
435.243	150
436.85	152
438.456	150
440.062	138
441.666	140
443.271	136
444.876	126
446.479	138
448.082	138
449.685	120
451.287	126
452.89	122
454.492	112
456.092	116
457.693	112
459.293	112
460.893	116
462.492	112
464.092	112
465.691	108
467.288	106
468.887	106
470.483	106
472.081	110
473.677	108
475.273	110
476.869	102
478.463	102
480.059	106
481.653	108
483.247	96
484.84	104
486.433	104
488.026	112
489.618	112
491.21	110
492.801	102
494.392	112
495.983	96
497.573	112
499.162	108
500.752	110
502.341	114
503.929	120
505.517	112
507.105	112
508.692	108
510.279	116
511.865	110
513.45	104
515.037	102
516.621	110
518.206	116
519.79	114
521.374	120
522.957	136
524.54	110
526.123	128
527.705	124
529.287	118
530.868	132
532.448	136
534.029	156
535.609	146
537.188	150
538.768	152
540.346	160
541.925	156
543.502	148
545.08	150
546.657	138
548.234	154
549.81	144
551.386	146
552.961	128
554.536	140
556.11	144
557.684	140
559.258	142
560.832	132
562.405	136
563.977	140
565.55	150
567.12	128
568.692	144
570.263	144
571.833	144
573.403	156
574.973	144
576.542	142
578.111	128
579.679	130
581.247	128
582.815	122
584.382	110
585.948	114
587.514	110
589.081	110
590.645	106
592.211	116
593.775	114
595.339	116
596.904	118
598.466	124
600.03	116
601.592	128
603.154	128
604.715	130
606.277	150
607.838	160
609.398	160
610.958	152
612.518	158
614.077	186
615.636	232
617.194	340
618.753	516
620.31	712
621.867	686
623.424	484
624.98	268
626.537	202
628.092	168
629.647	146
631.202	144
632.756	130
634.31	108
635.864	104
637.417	102
638.969	104
640.521	98
642.074	90
643.625	94
645.176	94
646.726	84
648.276	76
649.827	82
651.376	84
652.925	82
654.473	84
656.021	94
657.569	88
659.117	74
660.664	74
662.21	84
663.757	80
665.302	84
666.847	82
668.392	84
669.937	84
671.481	78
673.025	76
674.568	88
676.111	84
677.653	80
679.195	80
680.737	86
682.279	74
683.82	80
685.36	82
686.9	78
688.44	80
689.979	86
691.517	80
693.056	86
694.594	84
696.132	88
697.669	88
699.206	94
700.742	102
702.278	90
703.814	100
705.35	104
706.884	96
708.419	100
709.953	94
711.487	102
713.019	100
714.552	96
716.085	92
717.617	102
719.148	112
720.68	124
722.21	140
723.741	158
725.271	154
726.8	138
728.33	132
729.858	138
731.387	130
732.915	130
734.443	138
735.97	152
737.497	170
739.023	184
740.549	190
742.075	192
743.6	186
745.125	192
746.65	198
748.173	184
749.697	202
751.22	186
752.743	192
754.266	216
755.788	212
757.309	226
758.831	236
760.351	220
761.871	216
763.392	228
764.912	218
766.431	220
767.95	220
769.468	206
770.986	210
772.504	202
774.022	204
775.538	204
777.055	214
778.571	210
780.086	216
781.602	232
783.117	238
784.632	248
786.146	294
787.659	308
789.173	278
790.685	320
792.198	322
793.71	338
795.222	354
796.733	354
798.244	340
799.755	322
801.265	290
802.775	250
804.284	240
805.793	216
807.302	194
808.81	188
810.318	198
811.826	180
813.333	168
814.84	132
816.346	144
817.851	144
819.357	134
820.862	126
822.367	120
823.871	116
825.376	122
826.878	108
828.382	118
829.885	122
831.387	124
832.889	116
834.391	142
835.892	134
837.392	162
838.893	170
840.393	154
841.893	156
843.392	154
844.891	154
846.389	142
847.888	156
849.386	144
850.882	136
852.38	142
853.876	130
855.372	124
856.868	132
858.363	122
859.858	128
861.353	130
862.847	124
864.341	118
865.834	140
867.328	134
868.82	122
870.313	118
871.805	128
873.296	138
874.787	126
876.278	128
877.769	122
879.258	110
880.748	118
882.237	122
883.726	124
885.214	116
886.702	114
888.19	114
889.677	110
891.164	104
892.651	132
894.137	114
895.623	114
897.108	132
898.593	130
900.077	120
901.562	140
903.046	146
904.529	136
906.012	138
907.495	150
908.977	152
910.459	142
911.941	136
913.422	122
914.903	126
916.383	114
917.863	114
919.343	108
920.822	102
922.301	98
923.779	102
925.257	106
926.735	108
928.213	94
929.69	94
931.166	110
932.643	104
934.119	98
935.594	106
937.069	96
938.543	102
940.018	110
941.492	104
942.966	100
944.439	96
945.911	110
947.384	110
948.856	106
950.328	108
951.799	116
953.27	108
954.741	106
956.21	102
957.68	110
959.15	130
960.619	120
962.088	130
963.556	132
965.023	120
966.491	122
967.958	136
969.425	142
970.891	136
972.357	130
973.824	148
975.288	154
976.754	158
978.218	176
979.682	190
981.146	214
982.609	244
984.072	254
985.534	280
986.997	332
988.459	450
989.92	608
991.382	778
992.842	870
994.302	802
995.763	876
997.222	1248
998.681	2014
1000.14	2932
1001.6	3334
1003.06	2814
1004.52	1964
1005.97	1180
1007.43	698
1008.89	420
1010.34	316
1011.8	238
1013.25	218
1014.71	200
1016.16	200
1017.62	200
1019.07	204
1020.53	234
1021.98	280
1023.43	312
1024.89	386
1026.34	500
1027.79	634
1029.24	766
1030.69	884
1032.14	878
1033.59	818
1035.04	686
1036.49	530
1037.94	416
1039.39	314
1040.84	278
1042.29	246
1043.73	204
1045.18	192
1046.63	186
1048.08	180
1049.52	176
1050.97	160
1052.41	166
1053.86	158
1055.3	166
1056.75	154
1058.19	136
1059.64	154
1061.08	160
1062.52	182
1063.96	172
1065.41	176
1066.85	168
1068.29	168
1069.73	182
1071.17	188
1072.61	174
1074.05	188
1075.49	172
1076.93	184
1078.37	170
1079.81	184
1081.25	166
1082.68	168
1084.12	174
1085.56	164
1087	178
1088.43	158
1089.87	158
1091.3	162
1092.74	180
1094.17	174
1095.61	160
1097.04	166
1098.48	186
1099.91	180
1101.34	160
1102.78	168
1104.21	166
1105.64	166
1107.07	152
1108.5	142
1109.93	140
1111.36	136
1112.8	138
1114.22	130
1115.65	130
1117.08	128
1118.51	126
1119.94	114
1121.37	128
1122.8	118
1124.22	116
1125.65	108
1127.08	118
1128.5	110
1129.93	112
1131.35	104
1132.78	114
1134.2	116
1135.63	120
1137.05	122
1138.48	106
1139.9	132
1141.32	136
1142.75	148
1144.17	156
1145.59	146
1147.01	178
1148.43	190
1149.85	246
1151.27	292
1152.69	370
1154.11	412
1155.53	434
1156.95	396
1158.37	344
1159.79	292
1161.21	242
1162.62	232
1164.04	218
1165.46	208
1166.87	226
1168.29	210
1169.71	212
1171.12	226
1172.54	254
1173.95	280
1175.37	312
1176.78	342
1178.19	428
1179.61	500
1181.02	492
1182.43	532
1183.84	506
1185.26	462
1186.67	454
1188.08	426
1189.49	446
1190.9	458
1192.31	484
1193.72	486
1195.13	500
1196.54	492
1197.95	520
1199.36	482
1200.76	488
1202.17	448
1203.58	456
1204.99	416
1206.39	394
1207.8	368
1209.2	344
1210.61	284
1212.01	266
1213.42	242
1214.82	236
1216.23	232
1217.63	210
1219.03	216
1220.44	220
1221.84	210
1223.24	218
1224.64	206
1226.05	212
1227.45	200
1228.85	202
1230.25	176
1231.65	198
1233.05	190
1234.45	186
1235.85	186
1237.25	178
1238.64	182
1240.04	186
1241.44	166
1242.84	168
1244.23	162
1245.63	182
1247.03	166
1248.42	184
1249.82	166
1251.21	154
1252.61	176
1254	172
1255.4	172
1256.79	170
1258.19	156
1259.58	180
1260.97	180
1262.36	166
1263.76	184
1265.15	182
1266.54	178
1267.93	160
1269.32	166
1270.71	176
1272.1	176
1273.49	172
1274.88	176
1276.27	182
1277.66	176
1279.05	190
1280.43	172
1281.82	180
1283.21	182
1284.6	170
1285.98	188
1287.37	182
1288.75	194
1290.14	190
1291.53	192
1292.91	196
1294.29	206
1295.68	210
1297.06	204
1298.45	218
1299.83	208
1301.21	216
1302.59	216
1303.98	228
1305.36	234
1306.74	240
1308.12	224
1309.5	234
1310.88	236
1312.26	236
1313.64	244
1315.02	264
1316.4	238
1317.78	272
1319.16	278
1320.53	272
1321.91	286
1323.29	276
1324.67	288
1326.04	324
1327.42	302
1328.79	304
1330.17	300
1331.54	314
1332.92	296
1334.29	310
1335.67	290
1337.04	284
1338.42	294
1339.79	294
1341.16	262
1342.53	268
1343.91	270
1345.28	274
1346.65	266
1348.02	270
1349.39	270
1350.76	256
1352.13	252
1353.5	278
1354.87	284
1356.24	280
1357.61	282
1358.98	262
1360.34	292
1361.71	286
1363.08	272
1364.45	288
1365.81	282
1367.18	282
1368.54	306
1369.91	300
1371.28	282
1372.64	294
1374.01	290
1375.37	286
1376.73	298
1378.1	292
1379.46	262
1380.82	272
1382.19	264
1383.55	260
1384.91	260
1386.27	244
1387.63	260
1388.99	244
1390.35	242
1391.71	252
1393.07	244
1394.43	254
1395.79	246
1397.15	236
1398.51	236
1399.87	242
1401.23	236
1402.58	238
1403.94	234
1405.3	240
1406.65	250
1408.01	228
1409.37	240
1410.72	232
1412.08	226
1413.43	234
1414.79	240
1416.14	236
1417.49	228
1418.85	228
1420.2	232
1421.55	246
1422.91	228
1424.26	216
1425.61	224
1426.96	236
1428.31	230
1429.66	248
1431.01	246
1432.36	238
1433.71	236
1435.06	248
1436.41	260
1437.76	284
1439.11	286
1440.46	286
1441.81	308
1443.15	304
1444.5	332
1445.85	334
1447.19	342
1448.54	336
1449.89	346
1451.23	340
1452.58	334
1453.92	312
1455.27	312
1456.61	278
1457.95	242
1459.3	246
1460.64	234
1461.98	228
1463.33	222
1464.67	204
1466.01	202
1467.35	210
1468.69	210
1470.03	186
1471.37	212
1472.71	192
1474.05	192
1475.39	196
1476.73	176
1478.07	190
1479.41	186
1480.75	186
1482.09	188
1483.42	194
1484.76	186
1486.1	184
1487.43	186
1488.77	186
1490.11	190
1491.44	196
1492.78	200
1494.11	182
1495.45	196
1496.78	190
1498.12	176
1499.45	184
1500.78	172
1502.11	178
1503.45	174
1504.78	174
1506.11	176
1507.44	178
1508.77	184
1510.11	172
1511.44	180
1512.77	168
1514.1	180
1515.43	176
1516.76	164
1518.08	164
1519.41	170
1520.74	156
1522.07	172
1523.4	176
1524.72	176
1526.05	166
1527.38	166
1528.7	188
1530.03	184
1531.36	174
1532.68	182
1534.01	174
1535.33	178
1536.66	162
1537.98	160
1539.3	150
1540.63	158
1541.95	158
1543.27	168
1544.6	156
1545.92	176
1547.24	178
1548.56	162
1549.88	160
1551.2	164
1552.52	170
1553.84	154
1555.17	160
1556.48	160
1557.8	170
1559.12	168
1560.44	172
1561.76	166
1563.08	182
1564.4	178
1565.71	186
1567.03	176
1568.35	172
1569.66	190
1570.98	190
1572.29	190
1573.61	210
1574.93	200
1576.24	220
1577.55	234
1578.87	288
1580.18	344
1581.5	392
1582.81	434
1584.12	404
1585.43	366
1586.75	310
1588.06	276
1589.37	262
1590.68	250
1591.99	262
1593.3	296
1594.61	318
1595.92	348
1597.23	442
1598.54	532
1599.85	612
1601.16	668
1602.47	688
1603.78	656
1605.08	544
1606.39	470
1607.7	382
1609	322
1610.31	266
1611.62	238
1612.92	230
1614.23	214
1615.53	214
1616.84	196
1618.14	190
1619.45	182
1620.75	188
1622.06	168
1623.36	170
1624.66	170
1625.96	174
1627.27	152
1628.57	160
1629.87	150
1631.17	166
1632.47	152
1633.77	144
1635.07	156
1636.37	164
1637.67	156
1638.97	158
1640.27	152
1641.57	158
1642.87	154
1644.17	158
1645.47	156
1646.76	160
1648.06	168
1649.36	150
1650.66	156
1651.95	156
1653.25	146
1654.54	152
1655.84	146
1657.13	146
1658.43	138
1659.72	142
1661.02	140
1662.31	132
1663.6	142
1664.9	130
1666.19	138
1667.48	138
1668.78	134
1670.07	126
1671.36	140
1672.65	126
1673.94	132
1675.23	134
1676.52	122
1677.81	134
1679.1	132
1680.39	118
1681.68	150
1682.97	136
1684.26	128
1685.55	144
1686.83	132
1688.12	128
1689.41	132
1690.7	124
1691.98	126
1693.27	126
1694.55	124
1695.84	126
1697.13	126
1698.41	124
1699.69	122
1700.98	124
1702.26	126