File: Mixture_Classification/Jesse_Dataset_v2/Pure Raman/Polystyrene/785nm/ps-ppo-6jan25-1,0000-map3_Y09_X09.txt
204.377	846
206.045	856
207.713	860
209.38	896
211.048	884
212.715	898
214.381	892
216.047	898
217.712	914
219.377	910
221.042	920
222.706	906
224.369	890
226.032	820
227.695	814
229.357	778
231.019	708
232.68	676
234.341	638
236.001	592
237.661	522
239.321	498
240.98	460
242.639	412
244.297	378
245.955	352
247.612	348
249.268	316
250.924	302
252.58	302
254.236	300
255.891	282
257.546	278
259.2	276
260.854	264
262.507	256
264.16	250
265.812	254
267.463	248
269.115	262
270.766	236
272.417	240
274.067	252
275.717	252
277.365	234
279.014	216
280.663	232
282.311	218
283.958	214
285.605	216
287.252	202
288.898	198
290.543	194
292.188	184
293.833	182
295.477	178
297.121	174
298.765	170
300.407	158
302.05	170
303.693	170
305.334	168
306.975	174
308.615	164
310.256	178
311.896	168
313.535	170
315.175	174
316.813	178
318.451	180
320.089	182
321.726	174
323.362	174
324.999	164
326.635	174
328.271	172
329.905	170
331.54	172
333.174	176
334.807	168
336.441	158
338.074	166
339.707	158
341.338	164
342.969	166
344.601	158
346.231	162
347.861	160
349.491	154
351.12	156
352.749	158
354.378	154
356.006	160
357.633	142
359.261	166
360.887	156
362.513	148
364.139	150
365.764	156
367.39	164
369.014	152
370.638	162
372.261	158
373.884	162
375.508	164
377.13	182
378.752	168
380.373	174
381.994	180
383.615	190
385.235	190
386.854	176
388.473	200
390.092	190
391.711	204
393.328	198
394.947	190
396.564	200
398.181	200
399.797	208
401.412	210
403.027	242
404.642	242
406.257	220
407.871	232
409.484	226
411.098	226
412.711	200
414.323	194
415.935	200
417.547	168
419.158	168
420.768	174
422.378	168
423.988	170
425.597	158
427.206	154
428.814	158
430.422	152
432.03	150
433.637	150
435.243	142
436.85	148
438.456	144
440.062	132
441.666	136
443.271	148
444.876	134
446.479	130
448.082	124
449.685	130
451.287	122
452.89	120
454.492	118
456.092	120
457.693	124
459.293	114
460.893	118
462.492	116
464.092	114
465.691	114
467.288	114
468.887	110
470.483	114
472.081	106
473.677	108
475.273	110
476.869	102
478.463	110
480.059	96
481.653	102
483.247	100
484.84	108
486.433	94
488.026	108
489.618	100
491.21	96
492.801	96
494.392	112
495.983	102
497.573	112
499.162	104
500.752	108
502.341	116
503.929	110
505.517	104
507.105	128
508.692	120
510.279	110
511.865	108
513.45	110
515.037	116
516.621	120
518.206	122
519.79	114
521.374	112
522.957	110
524.54	126
526.123	118
527.705	124
529.287	128
530.868	132
532.448	134
534.029	140
535.609	146
537.188	144
538.768	150
540.346	146
541.925	146
543.502	134
545.08	154
546.657	146
548.234	144
549.81	146
551.386	148
552.961	136
554.536	146
556.11	150
557.684	138
559.258	138
560.832	140
562.405	134
563.977	140
565.55	148
567.12	134
568.692	130
570.263	140
571.833	144
573.403	146
574.973	140
576.542	134
578.111	136
579.679	122
581.247	120
582.815	116
584.382	114
585.948	114
587.514	120
589.081	112
590.645	108
592.211	106
593.775	116
595.339	116
596.904	114
598.466	114
600.03	114
601.592	126
603.154	126
604.715	138
606.277	162
607.838	160
609.398	166
610.958	156
612.518	168
614.077	192
615.636	224
617.194	312
618.753	522
620.31	718
621.867	684
623.424	462
624.98	270
626.537	202
628.092	172
629.647	148
631.202	132
632.756	132
634.31	102
635.864	100
637.417	102
638.969	100
640.521	96
642.074	100
643.625	94
645.176	94
646.726	84
648.276	80
649.827	76
651.376	80
652.925	82
654.473	86
656.021	84
657.569	88
659.117	84
660.664	86
662.21	78
663.757	80
665.302	86
666.847	82
668.392	80
669.937	68
671.481	74
673.025	82
674.568	84
676.111	80
677.653	82
679.195	78
680.737	84
682.279	72
683.82	74
685.36	74
686.9	82
688.44	84
689.979	74
691.517	84
693.056	74
694.594	86
696.132	84
697.669	98
699.206	100
700.742	98
702.278	100
703.814	104
705.35	100
706.884	90
708.419	94
709.953	98
711.487	94
713.019	94
714.552	96
716.085	98
717.617	98
719.148	110
720.68	114
722.21	144
723.741	152
725.271	152
726.8	146
728.33	136
729.858	128
731.387	128
732.915	128
734.443	130
735.97	158
737.497	160
739.023	184
740.549	188
742.075	180
743.6	198
745.125	180
746.65	194
748.173	196
749.697	200
751.22	190
752.743	226
754.266	208
755.788	234
757.309	232
758.831	232
760.351	230
761.871	216
763.392	238
764.912	222
766.431	218
767.95	218
769.468	204
770.986	198
772.504	198
774.022	198
775.538	192
777.055	206
778.571	206
780.086	212
781.602	236
783.117	240
784.632	254
786.146	286
787.659	306
789.173	308
790.685	328
792.198	336
793.71	330
795.222	350
796.733	342
798.244	328
799.755	314
801.265	282
802.775	242
804.284	236
805.793	222
807.302	202
808.81	186
810.318	176
811.826	164
813.333	160
814.84	160
816.346	146
817.851	138
819.357	132
820.862	120
822.367	100
823.871	118
825.376	112
826.878	110
828.382	114
829.885	128
831.387	118
832.889	120
834.391	124
835.892	136
837.392	150
838.893	154
840.393	162
841.893	156
843.392	168
844.891	158
846.389	154
847.888	136
849.386	138
850.882	136
852.38	128
853.876	128
855.372	126
856.868	126
858.363	124
859.858	120
861.353	132
862.847	128
864.341	110
865.834	122
867.328	120
868.82	126
870.313	130
871.805	122
873.296	130
874.787	124
876.278	126
877.769	130
879.258	114
880.748	118
882.237	118
883.726	114
885.214	116
886.702	116
888.19	108
889.677	116
891.164	120
892.651	110
894.137	118
895.623	108
897.108	118
898.593	122
900.077	126
901.562	138
903.046	138
904.529	140
906.012	148
907.495	142
908.977	146
910.459	132
911.941	130
913.422	124
914.903	124
916.383	114
917.863	106
919.343	102
920.822	100
922.301	92
923.779	106
925.257	88
926.735	100
928.213	92
929.69	110
931.166	90
932.643	98
934.119	104
935.594	100
937.069	96
938.543	94
940.018	102
941.492	108
942.966	106
944.439	104
945.911	100
947.384	102
948.856	104
950.328	106
951.799	98
953.27	106
954.741	104
956.21	110
957.68	114
959.15	118
960.619	118
962.088	120
963.556	130
965.023	124
966.491	132
967.958	128
969.425	122
970.891	124
972.357	132
973.824	136
975.288	140
976.754	170
978.218	168
979.682	180
981.146	196
982.609	224
984.072	250
985.534	260
986.997	340
988.459	436
989.92	602
991.382	804
992.842	846
994.302	808
995.763	874
997.222	1274
998.681	2028
1000.14	2966
1001.6	3344
1003.06	2778
1004.52	1966
1005.97	1148
1007.43	664
1008.89	424
1010.34	302
1011.8	242
1013.25	206
1014.71	190
1016.16	194
1017.62	182
1019.07	198
1020.53	222
1021.98	258
1023.43	328
1024.89	384
1026.34	510
1027.79	638
1029.24	786
1030.69	872
1032.14	914
1033.59	796
1035.04	670
1036.49	524
1037.94	408
1039.39	324
1040.84	262
1042.29	238
1043.73	202
1045.18	188
1046.63	162
1048.08	174
1049.52	160
1050.97	166
1052.41	144
1053.86	168
1055.3	162
1056.75	142
1058.19	154
1059.64	154
1061.08	160
1062.52	158
1063.96	164
1065.41	158
1066.85	174
1068.29	170
1069.73	180
1071.17	176
1072.61	190
1074.05	182
1075.49	180
1076.93	170
1078.37	174
1079.81	150
1081.25	164
1082.68	170
1084.12	160
1085.56	168
1087	168
1088.43	164
1089.87	170
1091.3	174
1092.74	162
1094.17	160
1095.61	180
1097.04	182
1098.48	184
1099.91	168
1101.34	164
1102.78	164
1104.21	154
1105.64	158
1107.07	144
1108.5	132
1109.93	138
1111.36	140
1112.8	136
1114.22	132
1115.65	120
1117.08	120
1118.51	114
1119.94	118
1121.37	106
1122.8	104
1124.22	102
1125.65	112
1127.08	104
1128.5	114
1129.93	120
1131.35	112
1132.78	110
1134.2	114
1135.63	100
1137.05	116
1138.48	120
1139.9	120
1141.32	134
1142.75	152
1144.17	152
1145.59	158
1147.01	178
1148.43	214
1149.85	232
1151.27	298
1152.69	366
1154.11	398
1155.53	406
1156.95	388
1158.37	340
1159.79	274
1161.21	244
1162.62	218
1164.04	228
1165.46	202
1166.87	204
1168.29	212
1169.71	222
1171.12	248
1172.54	252
1173.95	284
1175.37	306
1176.78	334
1178.19	428
1179.61	500
1181.02	516
1182.43	540
1183.84	498
1185.26	466
1186.67	444
1188.08	428
1189.49	438
1190.9	462
1192.31	498
1193.72	512
1195.13	504
1196.54	508
1197.95	500
1199.36	500
1200.76	488
1202.17	470
1203.58	440
1204.99	414
1206.39	376
1207.8	356
1209.2	308
1210.61	282
1212.01	272
1213.42	250
1214.82	226
1216.23	218
1217.63	206
1219.03	204
1220.44	220
1221.84	216
1223.24	200
1224.64	202
1226.05	198
1227.45	200
1228.85	204
1230.25	194
1231.65	188
1233.05	182
1234.45	176
1235.85	174
1237.25	184
1238.64	170
1240.04	170
1241.44	182
1242.84	174
1244.23	178
1245.63	182
1247.03	176
1248.42	182
1249.82	184
1251.21	184
1252.61	160
1254	176
1255.4	174
1256.79	178
1258.19	168
1259.58	182
1260.97	178
1262.36	162
1263.76	176
1265.15	164
1266.54	172
1267.93	172
1269.32	172
1270.71	174
1272.1	184
1273.49	148
1274.88	170
1276.27	180
1277.66	182
1279.05	170
1280.43	164
1281.82	172
1283.21	178
1284.6	188
1285.98	172
1287.37	160
1288.75	188
1290.14	176
1291.53	196
1292.91	216
1294.29	200
1295.68	206
1297.06	218
1298.45	200
1299.83	204
1301.21	222
1302.59	230
1303.98	234
1305.36	218
1306.74	242
1308.12	238
1309.5	238
1310.88	238
1312.26	244
1313.64	232
1315.02	258
1316.4	268
1317.78	254
1319.16	270
1320.53	278
1321.91	288
1323.29	294
1324.67	304
1326.04	304
1327.42	292
1328.79	298
1330.17	308
1331.54	314
1332.92	318
1334.29	296
1335.67	302
1337.04	290
1338.42	286
1339.79	294
1341.16	278
1342.53	260
1343.91	278
1345.28	266
1346.65	272
1348.02	278
1349.39	280
1350.76	278
1352.13	276
1353.5	274
1354.87	288
1356.24	286
1357.61	280
1358.98	284
1360.34	272
1361.71	270
1363.08	268
1364.45	288
1365.81	284
1367.18	294
1368.54	292
1369.91	296
1371.28	274
1372.64	282
1374.01	280
1375.37	302
1376.73	278
1378.1	292
1379.46	290
1380.82	290
1382.19	266
1383.55	264
1384.91	262
1386.27	260
1387.63	266
1388.99	260
1390.35	244
1391.71	238
1393.07	258
1394.43	244
1395.79	240
1397.15	256
1398.51	256
1399.87	246
1401.23	228
1402.58	258
1403.94	242
1405.3	248
1406.65	246
1408.01	240
1409.37	252
1410.72	242
1412.08	244
1413.43	242
1414.79	238
1416.14	250
1417.49	238
1418.85	218
1420.2	238
1421.55	240
1422.91	250
1424.26	206
1425.61	234
1426.96	216
1428.31	224
1429.66	228
1431.01	242
1432.36	254
1433.71	252
1435.06	268
1436.41	256
1437.76	280
1439.11	290
1440.46	270
1441.81	322
1443.15	314
1444.5	314
1445.85	330
1447.19	354
1448.54	334
1449.89	328
1451.23	342
1452.58	354
1453.92	318
1455.27	312
1456.61	284
1457.95	252
1459.3	246
1460.64	226
1461.98	232
1463.33	214
1464.67	216
1466.01	208
1467.35	210
1468.69	196
1470.03	200
1471.37	202
1472.71	194
1474.05	200
1475.39	194
1476.73	198
1478.07	190
1479.41	190
1480.75	194
1482.09	174
1483.42	180
1484.76	182
1486.1	186
1487.43	184
1488.77	194
1490.11	184
1491.44	188
1492.78	194
1494.11	196
1495.45	190
1496.78	192
1498.12	180
1499.45	188
1500.78	194
1502.11	176
1503.45	180
1504.78	188
1506.11	172
1507.44	174
1508.77	172
1510.11	178
1511.44	174
1512.77	170
1514.1	186
1515.43	180
1516.76	184
1518.08	180
1519.41	170
1520.74	168
1522.07	166
1523.4	170
1524.72	174
1526.05	160
1527.38	176
1528.7	162
1530.03	174
1531.36	172
1532.68	168
1534.01	174
1535.33	164
1536.66	172
1537.98	172
1539.3	154
1540.63	172
1541.95	170
1543.27	168
1544.6	158
1545.92	166
1547.24	180
1548.56	172
1549.88	182
1551.2	162
1552.52	170
1553.84	168
1555.17	168
1556.48	170
1557.8	172
1559.12	170
1560.44	174
1561.76	184
1563.08	174
1564.4	182
1565.71	188
1567.03	174
1568.35	178
1569.66	180
1570.98	190
1572.29	206
1573.61	202
1574.93	216
1576.24	228
1577.55	248
1578.87	274
1580.18	334
1581.5	390
1582.81	424
1584.12	394
1585.43	352
1586.75	312
1588.06	286
1589.37	266
1590.68	254
1591.99	272
1593.3	294
1594.61	328
1595.92	368
1597.23	438
1598.54	536
1599.85	612
1601.16	702
1602.47	690
1603.78	618
1605.08	546
1606.39	466
1607.7	396
1609	326
1610.31	264
1611.62	260
1612.92	242
1614.23	208
1615.53	204
1616.84	206
1618.14	180
1619.45	184
1620.75	184
1622.06	174
1623.36	184
1624.66	168
1625.96	172
1627.27	174
1628.57	176
1629.87	170
1631.17	166
1632.47	164
1633.77	156
1635.07	174
1636.37	156
1637.67	152
1638.97	164
1640.27	158
1641.57	160
1642.87	164
1644.17	166
1645.47	148
1646.76	162
1648.06	166
1649.36	160
1650.66	152
1651.95	158
1653.25	154
1654.54	144
1655.84	148
1657.13	144
1658.43	154
1659.72	136
1661.02	144
1662.31	138
1663.6	140
1664.9	140
1666.19	126
1667.48	130
1668.78	140
1670.07	132
1671.36	138
1672.65	128
1673.94	122
1675.23	142
1676.52	132
1677.81	142
1679.1	130
1680.39	136
1681.68	136
1682.97	128
1684.26	122
1685.55	130
1686.83	122
1688.12	128
1689.41	122
1690.7	128
1691.98	130
1693.27	128
1694.55	126
1695.84	126
1697.13	130
1698.41	130
1699.69	130
1700.98	114
1702.26	120