File: Mixture_Classification/Jesse_Dataset_v2/Pure Raman/Polystyrene/785nm/ps-ppo-6jan25-1,0000-map3_Y06_X05.txt
204.377	838
206.045	842
207.713	870
209.38	900
211.048	906
212.715	872
214.381	918
216.047	912
217.712	918
219.377	928
221.042	934
222.706	902
224.369	872
226.032	830
227.695	838
229.357	788
231.019	738
232.68	690
234.341	638
236.001	588
237.661	562
239.321	486
240.98	464
242.639	432
244.297	380
245.955	362
247.612	356
249.268	348
250.924	310
252.58	310
254.236	292
255.891	284
257.546	286
259.2	274
260.854	284
262.507	264
264.16	264
265.812	272
267.463	254
269.115	254
270.766	250
272.417	232
274.067	256
275.717	242
277.365	236
279.014	246
280.663	230
282.311	236
283.958	208
285.605	208
287.252	206
288.898	202
290.543	184
292.188	208
293.833	188
295.477	196
297.121	182
298.765	188
300.407	190
302.05	174
303.693	178
305.334	182
306.975	188
308.615	178
310.256	178
311.896	176
313.535	174
315.175	186
316.813	158
318.451	184
320.089	178
321.726	182
323.362	186
324.999	176
326.635	186
328.271	182
329.905	170
331.54	166
333.174	180
334.807	182
336.441	166
338.074	178
339.707	178
341.338	174
342.969	174
344.601	166
346.231	164
347.861	152
349.491	154
351.12	154
352.749	166
354.378	166
356.006	152
357.633	150
359.261	152
360.887	154
362.513	158
364.139	164
365.764	162
367.39	174
369.014	162
370.638	152
372.261	166
373.884	158
375.508	170
377.13	178
378.752	158
380.373	188
381.994	174
383.615	180
385.235	188
386.854	194
388.473	182
390.092	204
391.711	186
393.328	192
394.947	202
396.564	196
398.181	196
399.797	202
401.412	228
403.027	222
404.642	232
406.257	244
407.871	238
409.484	234
411.098	234
412.711	226
414.323	198
415.935	194
417.547	176
419.158	188
420.768	170
422.378	174
423.988	164
425.597	154
427.206	166
428.814	140
430.422	162
432.03	152
433.637	164
435.243	152
436.85	148
438.456	142
440.062	148
441.666	134
443.271	144
444.876	132
446.479	134
448.082	128
449.685	130
451.287	130
452.89	124
454.492	138
456.092	112
457.693	126
459.293	116
460.893	114
462.492	120
464.092	116
465.691	114
467.288	118
468.887	108
470.483	124
472.081	122
473.677	108
475.273	116
476.869	110
478.463	110
480.059	104
481.653	110
483.247	112
484.84	112
486.433	106
488.026	106
489.618	108
491.21	110
492.801	104
494.392	112
495.983	112
497.573	108
499.162	116
500.752	116
502.341	112
503.929	124
505.517	122
507.105	120
508.692	116
510.279	118
511.865	110
513.45	120
515.037	122
516.621	122
518.206	122
519.79	116
521.374	118
522.957	120
524.54	124
526.123	132
527.705	130
529.287	112
530.868	130
532.448	152
534.029	142
535.609	156
537.188	162
538.768	166
540.346	164
541.925	162
543.502	162
545.08	166
546.657	156
548.234	158
549.81	156
551.386	150
552.961	132
554.536	166
556.11	140
557.684	150
559.258	134
560.832	136
562.405	140
563.977	144
565.55	148
567.12	146
568.692	146
570.263	144
571.833	134
573.403	152
574.973	152
576.542	148
578.111	140
579.679	138
581.247	122
582.815	116
584.382	124
585.948	124
587.514	106
589.081	124
590.645	126
592.211	114
593.775	112
595.339	128
596.904	116
598.466	124
600.03	128
601.592	114
603.154	134
604.715	136
606.277	146
607.838	158
609.398	154
610.958	152
612.518	170
614.077	202
615.636	232
617.194	326
618.753	542
620.31	742
621.867	698
623.424	474
624.98	286
626.537	198
628.092	174
629.647	156
631.202	144
632.756	138
634.31	122
635.864	114
637.417	106
638.969	108
640.521	108
642.074	92
643.625	88
645.176	94
646.726	88
648.276	94
649.827	76
651.376	84
652.925	84
654.473	88
656.021	88
657.569	84
659.117	88
660.664	80
662.21	84
663.757	82
665.302	90
666.847	82
668.392	78
669.937	88
671.481	86
673.025	76
674.568	88
676.111	82
677.653	88
679.195	72
680.737	74
682.279	80
683.82	86
685.36	86
686.9	80
688.44	74
689.979	82
691.517	86
693.056	82
694.594	80
696.132	84
697.669	98
699.206	100
700.742	110
702.278	108
703.814	102
705.35	110
706.884	106
708.419	104
709.953	104
711.487	102
713.019	96
714.552	100
716.085	96
717.617	108
719.148	102
720.68	126
722.21	146
723.741	160
725.271	154
726.8	150
728.33	134
729.858	126
731.387	128
732.915	130
734.443	148
735.97	154
737.497	168
739.023	176
740.549	178
742.075	194
743.6	192
745.125	194
746.65	198
748.173	184
749.697	198
751.22	200
752.743	200
754.266	198
755.788	242
757.309	238
758.831	244
760.351	240
761.871	240
763.392	224
764.912	222
766.431	206
767.95	220
769.468	214
770.986	200
772.504	204
774.022	202
775.538	204
777.055	214
778.571	212
780.086	214
781.602	232
783.117	246
784.632	272
786.146	272
787.659	294
789.173	320
790.685	316
792.198	352
793.71	338
795.222	356
796.733	338
798.244	322
799.755	330
801.265	296
802.775	258
804.284	238
805.793	210
807.302	198
808.81	180
810.318	184
811.826	156
813.333	158
814.84	152
816.346	138
817.851	142
819.357	134
820.862	130
822.367	118
823.871	124
825.376	120
826.878	122
828.382	122
829.885	122
831.387	120
832.889	134
834.391	126
835.892	136
837.392	156
838.893	160
840.393	156
841.893	162
843.392	158
844.891	148
846.389	154
847.888	152
849.386	136
850.882	136
852.38	140
853.876	144
855.372	122
856.868	124
858.363	126
859.858	122
861.353	132
862.847	130
864.341	122
865.834	132
867.328	126
868.82	126
870.313	124
871.805	124
873.296	120
874.787	120
876.278	110
877.769	122
879.258	120
880.748	116
882.237	122
883.726	118
885.214	118
886.702	114
888.19	116
889.677	108
891.164	118
892.651	118
894.137	114
895.623	116
897.108	128
898.593	128
900.077	130
901.562	140
903.046	138
904.529	150
906.012	140
907.495	156
908.977	138
910.459	136
911.941	132
913.422	122
914.903	120
916.383	116
917.863	118
919.343	112
920.822	102
922.301	98
923.779	102
925.257	106
926.735	92
928.213	102
929.69	86
931.166	98
932.643	104
934.119	98
935.594	108
937.069	96
938.543	96
940.018	96
941.492	100
942.966	110
944.439	104
945.911	106
947.384	98
948.856	106
950.328	98
951.799	108
953.27	98
954.741	108
956.21	98
957.68	100
959.15	114
960.619	116
962.088	122
963.556	124
965.023	122
966.491	134
967.958	124
969.425	126
970.891	122
972.357	130
973.824	132
975.288	142
976.754	156
978.218	168
979.682	184
981.146	194
982.609	230
984.072	256
985.534	282
986.997	308
988.459	436
989.92	574
991.382	788
992.842	834
994.302	808
995.763	862
997.222	1228
998.681	1986
1000.14	2878
1001.6	3366
1003.06	2862
1004.52	1914
1005.97	1160
1007.43	688
1008.89	440
1010.34	326
1011.8	252
1013.25	220
1014.71	204
1016.16	182
1017.62	194
1019.07	216
1020.53	218
1021.98	256
1023.43	320
1024.89	398
1026.34	494
1027.79	614
1029.24	778
1030.69	844
1032.14	892
1033.59	820
1035.04	684
1036.49	540
1037.94	398
1039.39	316
1040.84	282
1042.29	240
1043.73	212
1045.18	186
1046.63	170
1048.08	162
1049.52	166
1050.97	164
1052.41	164
1053.86	150
1055.3	164
1056.75	146
1058.19	152
1059.64	164
1061.08	160
1062.52	172
1063.96	168
1065.41	172
1066.85	174
1068.29	176
1069.73	166
1071.17	168
1072.61	186
1074.05	168
1075.49	162
1076.93	172
1078.37	170
1079.81	174
1081.25	174
1082.68	160
1084.12	172
1085.56	156
1087	172
1088.43	166
1089.87	162
1091.3	156
1092.74	168
1094.17	164
1095.61	178
1097.04	178
1098.48	178
1099.91	154
1101.34	174
1102.78	152
1104.21	154
1105.64	146
1107.07	140
1108.5	134
1109.93	136
1111.36	134
1112.8	132
1114.22	126
1115.65	128
1117.08	120
1118.51	118
1119.94	104
1121.37	108
1122.8	116
1124.22	108
1125.65	110
1127.08	110
1128.5	116
1129.93	112
1131.35	102
1132.78	106
1134.2	118
1135.63	110
1137.05	110
1138.48	124
1139.9	118
1141.32	136
1142.75	126
1144.17	148
1145.59	150
1147.01	176
1148.43	194
1149.85	224
1151.27	282
1152.69	360
1154.11	394
1155.53	402
1156.95	392
1158.37	348
1159.79	282
1161.21	270
1162.62	234
1164.04	206
1165.46	200
1166.87	210
1168.29	216
1169.71	212
1171.12	218
1172.54	234
1173.95	264
1175.37	298
1176.78	364
1178.19	430
1179.61	484
1181.02	526
1182.43	530
1183.84	502
1185.26	450
1186.67	438
1188.08	426
1189.49	436
1190.9	458
1192.31	484
1193.72	506
1195.13	520
1196.54	494
1197.95	514
1199.36	470
1200.76	484
1202.17	466
1203.58	432
1204.99	418
1206.39	374
1207.8	342
1209.2	294
1210.61	304
1212.01	278
1213.42	258
1214.82	228
1216.23	210
1217.63	206
1219.03	216
1220.44	206
1221.84	202
1223.24	210
1224.64	190
1226.05	186
1227.45	198
1228.85	192
1230.25	192
1231.65	180
1233.05	182
1234.45	172
1235.85	166
1237.25	174
1238.64	176
1240.04	176
1241.44	172
1242.84	168
1244.23	166
1245.63	178
1247.03	162
1248.42	174
1249.82	178
1251.21	174
1252.61	170
1254	172
1255.4	184
1256.79	154
1258.19	176
1259.58	160
1260.97	168
1262.36	170
1263.76	164
1265.15	178
1266.54	166
1267.93	164
1269.32	172
1270.71	168
1272.1	168
1273.49	166
1274.88	160
1276.27	176
1277.66	164
1279.05	166
1280.43	174
1281.82	172
1283.21	174
1284.6	186
1285.98	180
1287.37	170
1288.75	186
1290.14	182
1291.53	202
1292.91	182
1294.29	202
1295.68	200
1297.06	194
1298.45	212
1299.83	210
1301.21	206
1302.59	204
1303.98	224
1305.36	198
1306.74	218
1308.12	234
1309.5	228
1310.88	220
1312.26	244
1313.64	244
1315.02	242
1316.4	262
1317.78	262
1319.16	264
1320.53	282
1321.91	282
1323.29	302
1324.67	288
1326.04	288
1327.42	304
1328.79	286
1330.17	286
1331.54	306
1332.92	300
1334.29	292
1335.67	282
1337.04	278
1338.42	294
1339.79	274
1341.16	276
1342.53	264
1343.91	254
1345.28	268
1346.65	266
1348.02	280
1349.39	274
1350.76	262
1352.13	266
1353.5	272
1354.87	270
1356.24	264
1357.61	268
1358.98	270
1360.34	268
1361.71	272
1363.08	270
1364.45	276
1365.81	276
1367.18	286
1368.54	268
1369.91	284
1371.28	270
1372.64	284
1374.01	258
1375.37	296
1376.73	290
1378.1	272
1379.46	268
1380.82	258
1382.19	258
1383.55	252
1384.91	248
1386.27	246
1387.63	250
1388.99	250
1390.35	250
1391.71	254
1393.07	240
1394.43	236
1395.79	238
1397.15	232
1398.51	242
1399.87	244
1401.23	234
1402.58	228
1403.94	234
1405.3	244
1406.65	232
1408.01	236
1409.37	230
1410.72	236
1412.08	216
1413.43	220
1414.79	212
1416.14	228
1417.49	228
1418.85	204
1420.2	232
1421.55	224
1422.91	218
1424.26	204
1425.61	218
1426.96	230
1428.31	222
1429.66	218
1431.01	228
1432.36	224
1433.71	242
1435.06	244
1436.41	256
1437.76	278
1439.11	274
1440.46	270
1441.81	278
1443.15	312
1444.5	298
1445.85	322
1447.19	320
1448.54	328
1449.89	318
1451.23	336
1452.58	322
1453.92	310
1455.27	306
1456.61	274
1457.95	250
1459.3	236
1460.64	234
1461.98	216
1463.33	184
1464.67	196
1466.01	200
1467.35	202
1468.69	188
1470.03	190
1471.37	204
1472.71	186
1474.05	184
1475.39	194
1476.73	190
1478.07	184
1479.41	196
1480.75	176
1482.09	178
1483.42	178
1484.76	180
1486.1	178
1487.43	176
1488.77	198
1490.11	178
1491.44	186
1492.78	200
1494.11	200
1495.45	182
1496.78	178
1498.12	170
1499.45	186
1500.78	176
1502.11	176
1503.45	168
1504.78	176
1506.11	168
1507.44	162
1508.77	164
1510.11	174
1511.44	172
1512.77	170
1514.1	166
1515.43	162
1516.76	180
1518.08	170
1519.41	166
1520.74	164
1522.07	158
1523.4	170
1524.72	152
1526.05	168
1527.38	160
1528.7	168
1530.03	158
1531.36	172
1532.68	168
1534.01	166
1535.33	168
1536.66	152
1537.98	150
1539.3	158
1540.63	148
1541.95	166
1543.27	172
1544.6	178
1545.92	170
1547.24	160
1548.56	162
1549.88	158
1551.2	168
1552.52	158
1553.84	162
1555.17	180
1556.48	150
1557.8	152
1559.12	162
1560.44	160
1561.76	158
1563.08	158
1564.4	162
1565.71	174
1567.03	166
1568.35	172
1569.66	194
1570.98	190
1572.29	194
1573.61	200
1574.93	220
1576.24	218
1577.55	252
1578.87	270
1580.18	324
1581.5	388
1582.81	416
1584.12	408
1585.43	372
1586.75	302
1588.06	270
1589.37	248
1590.68	260
1591.99	244
1593.3	292
1594.61	320
1595.92	364
1597.23	422
1598.54	508
1599.85	642
1601.16	678
1602.47	692
1603.78	640
1605.08	554
1606.39	456
1607.7	372
1609	342
1610.31	264
1611.62	246
1612.92	228
1614.23	224
1615.53	212
1616.84	188
1618.14	172
1619.45	168
1620.75	176
1622.06	176
1623.36	176
1624.66	162
1625.96	162
1627.27	156
1628.57	158
1629.87	158
1631.17	164
1632.47	158
1633.77	148
1635.07	154
1636.37	148
1637.67	146
1638.97	152
1640.27	148
1641.57	166
1642.87	154
1644.17	150
1645.47	156
1646.76	160
1648.06	152
1649.36	150
1650.66	144
1651.95	150
1653.25	148
1654.54	142
1655.84	144
1657.13	138
1658.43	134
1659.72	140
1661.02	140
1662.31	134
1663.6	132
1664.9	130
1666.19	136
1667.48	130
1668.78	120
1670.07	126
1671.36	130
1672.65	132
1673.94	128
1675.23	124
1676.52	128
1677.81	132
1679.1	128
1680.39	134
1681.68	124
1682.97	126
1684.26	122
1685.55	128
1686.83	120
1688.12	132
1689.41	130
1690.7	118
1691.98	132
1693.27	122
1694.55	126
1695.84	112
1697.13	128
1698.41	126
1699.69	126
1700.98	120
1702.26	126