File: Mixture_Classification/Jesse_Dataset_v2/Pure Raman/Polystyrene/785nm/ps-ppo-6jan25-1,0000-map3_Y02_X07.txt
204.377	824
206.045	844
207.713	866
209.38	846
211.048	904
212.715	892
214.381	864
216.047	896
217.712	910
219.377	922
221.042	916
222.706	890
224.369	862
226.032	824
227.695	794
229.357	746
231.019	738
232.68	690
234.341	636
236.001	590
237.661	540
239.321	494
240.98	442
242.639	418
244.297	392
245.955	364
247.612	330
249.268	320
250.924	310
252.58	288
254.236	284
255.891	266
257.546	278
259.2	264
260.854	274
262.507	260
264.16	268
265.812	256
267.463	250
269.115	246
270.766	240
272.417	242
274.067	226
275.717	226
277.365	244
279.014	212
280.663	212
282.311	212
283.958	216
285.605	220
287.252	204
288.898	198
290.543	186
292.188	178
293.833	174
295.477	176
297.121	162
298.765	172
300.407	168
302.05	166
303.693	154
305.334	158
306.975	162
308.615	150
310.256	170
311.896	164
313.535	166
315.175	152
316.813	164
318.451	166
320.089	158
321.726	178
323.362	168
324.999	164
326.635	166
328.271	166
329.905	158
331.54	162
333.174	168
334.807	176
336.441	164
338.074	160
339.707	166
341.338	162
342.969	158
344.601	158
346.231	148
347.861	150
349.491	150
351.12	146
352.749	146
354.378	154
356.006	140
357.633	148
359.261	136
360.887	138
362.513	146
364.139	150
365.764	126
367.39	158
369.014	154
370.638	154
372.261	150
373.884	156
375.508	148
377.13	158
378.752	164
380.373	164
381.994	172
383.615	170
385.235	178
386.854	174
388.473	182
390.092	184
391.711	178
393.328	184
394.947	184
396.564	184
398.181	200
399.797	206
401.412	218
403.027	216
404.642	240
406.257	230
407.871	228
409.484	218
411.098	212
412.711	190
414.323	184
415.935	180
417.547	168
419.158	176
420.768	162
422.378	162
423.988	166
425.597	156
427.206	158
428.814	160
430.422	140
432.03	136
433.637	132
435.243	130
436.85	140
438.456	140
440.062	122
441.666	140
443.271	130
444.876	118
446.479	126
448.082	116
449.685	128
451.287	112
452.89	112
454.492	112
456.092	120
457.693	98
459.293	106
460.893	104
462.492	106
464.092	108
465.691	106
467.288	98
468.887	104
470.483	102
472.081	102
473.677	106
475.273	104
476.869	96
478.463	104
480.059	102
481.653	94
483.247	100
484.84	92
486.433	98
488.026	98
489.618	94
491.21	96
492.801	96
494.392	90
495.983	90
497.573	98
499.162	104
500.752	110
502.341	100
503.929	108
505.517	108
507.105	102
508.692	92
510.279	104
511.865	110
513.45	108
515.037	98
516.621	104
518.206	110
519.79	108
521.374	108
522.957	110
524.54	106
526.123	118
527.705	120
529.287	120
530.868	128
532.448	130
534.029	134
535.609	132
537.188	152
538.768	136
540.346	140
541.925	146
543.502	142
545.08	140
546.657	150
548.234	142
549.81	122
551.386	146
552.961	136
554.536	140
556.11	132
557.684	136
559.258	132
560.832	130
562.405	130
563.977	130
565.55	132
567.12	130
568.692	128
570.263	126
571.833	144
573.403	148
574.973	140
576.542	132
578.111	124
579.679	116
581.247	112
582.815	104
584.382	102
585.948	102
587.514	108
589.081	104
590.645	108
592.211	106
593.775	108
595.339	108
596.904	114
598.466	110
600.03	112
601.592	126
603.154	112
604.715	124
606.277	144
607.838	146
609.398	152
610.958	148
612.518	160
614.077	182
615.636	216
617.194	328
618.753	502
620.31	724
621.867	704
623.424	474
624.98	264
626.537	208
628.092	160
629.647	138
631.202	142
632.756	118
634.31	114
635.864	110
637.417	96
638.969	98
640.521	82
642.074	80
643.625	88
645.176	88
646.726	78
648.276	76
649.827	74
651.376	80
652.925	80
654.473	76
656.021	72
657.569	80
659.117	82
660.664	72
662.21	74
663.757	80
665.302	78
666.847	74
668.392	82
669.937	74
671.481	74
673.025	70
674.568	78
676.111	74
677.653	76
679.195	70
680.737	78
682.279	74
683.82	72
685.36	78
686.9	72
688.44	76
689.979	76
691.517	80
693.056	76
694.594	72
696.132	74
697.669	88
699.206	94
700.742	90
702.278	96
703.814	98
705.35	92
706.884	96
708.419	100
709.953	94
711.487	98
713.019	98
714.552	102
716.085	94
717.617	98
719.148	98
720.68	108
722.21	128
723.741	144
725.271	148
726.8	148
728.33	126
729.858	126
731.387	114
732.915	132
734.443	130
735.97	144
737.497	156
739.023	178
740.549	180
742.075	192
743.6	194
745.125	194
746.65	176
748.173	184
749.697	182
751.22	194
752.743	202
754.266	218
755.788	220
757.309	212
758.831	260
760.351	236
761.871	220
763.392	234
764.912	216
766.431	210
767.95	216
769.468	212
770.986	204
772.504	192
774.022	198
775.538	192
777.055	194
778.571	194
780.086	218
781.602	208
783.117	238
784.632	262
786.146	262
787.659	292
789.173	318
790.685	322
792.198	332
793.71	344
795.222	326
796.733	354
798.244	324
799.755	314
801.265	276
802.775	254
804.284	224
805.793	202
807.302	184
808.81	174
810.318	178
811.826	162
813.333	154
814.84	162
816.346	140
817.851	126
819.357	124
820.862	116
822.367	116
823.871	108
825.376	112
826.878	114
828.382	110
829.885	120
831.387	120
832.889	122
834.391	130
835.892	136
837.392	144
838.893	152
840.393	152
841.893	152
843.392	174
844.891	158
846.389	148
847.888	136
849.386	138
850.882	136
852.38	130
853.876	118
855.372	138
856.868	122
858.363	136
859.858	124
861.353	126
862.847	126
864.341	122
865.834	128
867.328	126
868.82	114
870.313	124
871.805	106
873.296	118
874.787	128
876.278	108
877.769	118
879.258	118
880.748	116
882.237	108
883.726	118
885.214	108
886.702	108
888.19	106
889.677	110
891.164	104
892.651	108
894.137	112
895.623	114
897.108	124
898.593	120
900.077	130
901.562	128
903.046	134
904.529	142
906.012	136
907.495	142
908.977	146
910.459	136
911.941	128
913.422	116
914.903	108
916.383	96
917.863	100
919.343	114
920.822	98
922.301	96
923.779	96
925.257	84
926.735	94
928.213	84
929.69	88
931.166	96
932.643	100
934.119	100
935.594	98
937.069	94
938.543	104
940.018	102
941.492	98
942.966	106
944.439	102
945.911	90
947.384	96
948.856	94
950.328	108
951.799	98
953.27	102
954.741	100
956.21	104
957.68	106
959.15	112
960.619	112
962.088	120
963.556	120
965.023	124
966.491	112
967.958	136
969.425	112
970.891	126
972.357	130
973.824	126
975.288	140
976.754	156
978.218	172
979.682	188
981.146	198
982.609	218
984.072	244
985.534	278
986.997	330
988.459	418
989.92	578
991.382	754
992.842	840
994.302	768
995.763	852
997.222	1218
998.681	1936
1000.14	2868
1001.6	3336
1003.06	2824
1004.52	2008
1005.97	1178
1007.43	718
1008.89	458
1010.34	310
1011.8	248
1013.25	204
1014.71	198
1016.16	176
1017.62	186
1019.07	192
1020.53	212
1021.98	268
1023.43	288
1024.89	378
1026.34	478
1027.79	620
1029.24	776
1030.69	902
1032.14	940
1033.59	822
1035.04	668
1036.49	532
1037.94	414
1039.39	308
1040.84	266
1042.29	224
1043.73	220
1045.18	192
1046.63	182
1048.08	168
1049.52	166
1050.97	158
1052.41	156
1053.86	138
1055.3	158
1056.75	150
1058.19	152
1059.64	152
1061.08	150
1062.52	162
1063.96	168
1065.41	170
1066.85	170
1068.29	172
1069.73	172
1071.17	168
1072.61	180
1074.05	176
1075.49	154
1076.93	164
1078.37	164
1079.81	178
1081.25	158
1082.68	178
1084.12	162
1085.56	160
1087	156
1088.43	162
1089.87	158
1091.3	152
1092.74	170
1094.17	174
1095.61	168
1097.04	178
1098.48	152
1099.91	176
1101.34	176
1102.78	154
1104.21	150
1105.64	140
1107.07	148
1108.5	136
1109.93	124
1111.36	132
1112.8	126
1114.22	130
1115.65	126
1117.08	128
1118.51	118
1119.94	116
1121.37	114
1122.8	104
1124.22	114
1125.65	104
1127.08	108
1128.5	102
1129.93	100
1131.35	104
1132.78	110
1134.2	104
1135.63	106
1137.05	116
1138.48	116
1139.9	122
1141.32	134
1142.75	142
1144.17	156
1145.59	164
1147.01	166
1148.43	204
1149.85	234
1151.27	294
1152.69	354
1154.11	390
1155.53	400
1156.95	384
1158.37	352
1159.79	292
1161.21	246
1162.62	226
1164.04	218
1165.46	204
1166.87	210
1168.29	216
1169.71	224
1171.12	218
1172.54	240
1173.95	264
1175.37	292
1176.78	324
1178.19	404
1179.61	478
1181.02	522
1182.43	510
1183.84	504
1185.26	462
1186.67	434
1188.08	418
1189.49	430
1190.9	424
1192.31	470
1193.72	464
1195.13	504
1196.54	520
1197.95	494
1199.36	478
1200.76	484
1202.17	456
1203.58	454
1204.99	404
1206.39	382
1207.8	354
1209.2	314
1210.61	302
1212.01	274
1213.42	260
1214.82	228
1216.23	222
1217.63	208
1219.03	206
1220.44	200
1221.84	186
1223.24	200
1224.64	202
1226.05	206
1227.45	200
1228.85	192
1230.25	186
1231.65	180
1233.05	176
1234.45	176
1235.85	164
1237.25	176
1238.64	166
1240.04	166
1241.44	172
1242.84	170
1244.23	158
1245.63	168
1247.03	168
1248.42	160
1249.82	158
1251.21	160
1252.61	162
1254	164
1255.4	164
1256.79	168
1258.19	158
1259.58	162
1260.97	160
1262.36	156
1263.76	164
1265.15	158
1266.54	170
1267.93	172
1269.32	174
1270.71	178
1272.1	170
1273.49	166
1274.88	166
1276.27	162
1277.66	166
1279.05	168
1280.43	182
1281.82	172
1283.21	180
1284.6	178
1285.98	190
1287.37	184
1288.75	196
1290.14	178
1291.53	194
1292.91	196
1294.29	194
1295.68	196
1297.06	202
1298.45	210
1299.83	210
1301.21	220
1302.59	214
1303.98	212
1305.36	208
1306.74	228
1308.12	222
1309.5	230
1310.88	230
1312.26	226
1313.64	244
1315.02	250
1316.4	246
1317.78	246
1319.16	256
1320.53	278
1321.91	284
1323.29	290
1324.67	296
1326.04	286
1327.42	298
1328.79	314
1330.17	306
1331.54	304
1332.92	290
1334.29	310
1335.67	280
1337.04	276
1338.42	286
1339.79	270
1341.16	274
1342.53	262
1343.91	262
1345.28	270
1346.65	266
1348.02	268
1349.39	280
1350.76	268
1352.13	264
1353.5	258
1354.87	266
1356.24	270
1357.61	244
1358.98	258
1360.34	278
1361.71	290
1363.08	266
1364.45	262
1365.81	266
1367.18	284
1368.54	282
1369.91	274
1371.28	278
1372.64	286
1374.01	276
1375.37	270
1376.73	268
1378.1	270
1379.46	274
1380.82	276
1382.19	256
1383.55	246
1384.91	258
1386.27	246
1387.63	248
1388.99	234
1390.35	230
1391.71	248
1393.07	234
1394.43	240
1395.79	246
1397.15	232
1398.51	216
1399.87	228
1401.23	230
1402.58	242
1403.94	232
1405.3	232
1406.65	232
1408.01	232
1409.37	232
1410.72	214
1412.08	206
1413.43	218
1414.79	234
1416.14	218
1417.49	222
1418.85	224
1420.2	230
1421.55	212
1422.91	216
1424.26	230
1425.61	226
1426.96	214
1428.31	226
1429.66	228
1431.01	246
1432.36	224
1433.71	242
1435.06	232
1436.41	270
1437.76	264
1439.11	262
1440.46	272
1441.81	280
1443.15	298
1444.5	312
1445.85	332
1447.19	324
1448.54	318
1449.89	326
1451.23	330
1452.58	324
1453.92	310
1455.27	290
1456.61	272
1457.95	228
1459.3	224
1460.64	240
1461.98	218
1463.33	214
1464.67	204
1466.01	206
1467.35	194
1468.69	184
1470.03	188
1471.37	186
1472.71	182
1474.05	180
1475.39	186
1476.73	190
1478.07	188
1479.41	182
1480.75	190
1482.09	168
1483.42	174
1484.76	176
1486.1	180
1487.43	172
1488.77	176
1490.11	180
1491.44	182
1492.78	192
1494.11	182
1495.45	176
1496.78	170
1498.12	172
1499.45	180
1500.78	172
1502.11	166
1503.45	172
1504.78	156
1506.11	170
1507.44	182
1508.77	164
1510.11	164
1511.44	174
1512.77	168
1514.1	164
1515.43	166
1516.76	168
1518.08	162
1519.41	162
1520.74	166
1522.07	164
1523.4	160
1524.72	160
1526.05	158
1527.38	160
1528.7	162
1530.03	156
1531.36	160
1532.68	164
1534.01	158
1535.33	160
1536.66	152
1537.98	150
1539.3	170
1540.63	156
1541.95	162
1543.27	162
1544.6	166
1545.92	166
1547.24	160
1548.56	152
1549.88	166
1551.2	146
1552.52	156
1553.84	158
1555.17	168
1556.48	156
1557.8	150
1559.12	160
1560.44	156
1561.76	160
1563.08	158
1564.4	160
1565.71	172
1567.03	162
1568.35	176
1569.66	168
1570.98	178
1572.29	190
1573.61	202
1574.93	212
1576.24	226
1577.55	244
1578.87	270
1580.18	326
1581.5	378
1582.81	408
1584.12	382
1585.43	344
1586.75	302
1588.06	278
1589.37	248
1590.68	254
1591.99	270
1593.3	274
1594.61	312
1595.92	346
1597.23	438
1598.54	520
1599.85	630
1601.16	692
1602.47	678
1603.78	654
1605.08	560
1606.39	478
1607.7	380
1609	326
1610.31	292
1611.62	246
1612.92	232
1614.23	220
1615.53	210
1616.84	196
1618.14	178
1619.45	180
1620.75	188
1622.06	170
1623.36	170
1624.66	148
1625.96	164
1627.27	164
1628.57	146
1629.87	160
1631.17	156
1632.47	148
1633.77	148
1635.07	150
1636.37	140
1637.67	148
1638.97	140
1640.27	154
1641.57	154
1642.87	166
1644.17	150
1645.47	156
1646.76	158
1648.06	162
1649.36	150
1650.66	148
1651.95	150
1653.25	146
1654.54	140
1655.84	148
1657.13	146
1658.43	134
1659.72	140
1661.02	138
1662.31	128
1663.6	124
1664.9	124
1666.19	134
1667.48	124
1668.78	136
1670.07	132
1671.36	136
1672.65	128
1673.94	122
1675.23	128
1676.52	134
1677.81	120
1679.1	128
1680.39	122
1681.68	116
1682.97	128
1684.26	126
1685.55	134
1686.83	124
1688.12	126
1689.41	118
1690.7	128
1691.98	128
1693.27	106
1694.55	124
1695.84	122
1697.13	124
1698.41	120
1699.69	126
1700.98	114
1702.26	120