File: Mixture_Classification/Jesse_Dataset_v2/Pure Raman/Polystyrene/785nm/ps-ppo-6jan25-1,0000-map3_Y01_X08.txt
204.377	816
206.045	850
207.713	844
209.38	844
211.048	918
212.715	910
214.381	884
216.047	914
217.712	942
219.377	892
221.042	892
222.706	900
224.369	876
226.032	858
227.695	806
229.357	774
231.019	724
232.68	666
234.341	650
236.001	602
237.661	554
239.321	492
240.98	458
242.639	412
244.297	396
245.955	352
247.612	332
249.268	314
250.924	306
252.58	310
254.236	286
255.891	288
257.546	262
259.2	264
260.854	262
262.507	260
264.16	260
265.812	268
267.463	268
269.115	238
270.766	236
272.417	248
274.067	236
275.717	236
277.365	224
279.014	240
280.663	214
282.311	198
283.958	210
285.605	206
287.252	200
288.898	190
290.543	162
292.188	198
293.833	164
295.477	188
297.121	162
298.765	170
300.407	174
302.05	164
303.693	164
305.334	166
306.975	162
308.615	158
310.256	162
311.896	174
313.535	172
315.175	166
316.813	168
318.451	158
320.089	168
321.726	168
323.362	158
324.999	166
326.635	166
328.271	172
329.905	162
331.54	172
333.174	178
334.807	168
336.441	166
338.074	158
339.707	160
341.338	168
342.969	158
344.601	158
346.231	150
347.861	144
349.491	152
351.12	160
352.749	138
354.378	136
356.006	146
357.633	146
359.261	150
360.887	150
362.513	146
364.139	144
365.764	142
367.39	162
369.014	150
370.638	152
372.261	154
373.884	156
375.508	156
377.13	160
378.752	164
380.373	172
381.994	166
383.615	174
385.235	176
386.854	186
388.473	182
390.092	180
391.711	192
393.328	188
394.947	184
396.564	200
398.181	204
399.797	202
401.412	206
403.027	226
404.642	224
406.257	238
407.871	232
409.484	230
411.098	220
412.711	188
414.323	198
415.935	182
417.547	184
419.158	172
420.768	160
422.378	168
423.988	160
425.597	152
427.206	144
428.814	148
430.422	146
432.03	148
433.637	142
435.243	126
436.85	148
438.456	144
440.062	142
441.666	130
443.271	136
444.876	128
446.479	134
448.082	120
449.685	116
451.287	122
452.89	114
454.492	104
456.092	114
457.693	108
459.293	106
460.893	108
462.492	100
464.092	98
465.691	102
467.288	108
468.887	106
470.483	100
472.081	108
473.677	104
475.273	102
476.869	92
478.463	102
480.059	98
481.653	108
483.247	98
484.84	96
486.433	102
488.026	98
489.618	88
491.21	100
492.801	98
494.392	102
495.983	100
497.573	102
499.162	98
500.752	108
502.341	104
503.929	106
505.517	98
507.105	108
508.692	112
510.279	110
511.865	104
513.45	110
515.037	110
516.621	108
518.206	110
519.79	108
521.374	120
522.957	108
524.54	110
526.123	120
527.705	124
529.287	122
530.868	124
532.448	130
534.029	132
535.609	138
537.188	154
538.768	158
540.346	150
541.925	150
543.502	150
545.08	128
546.657	146
548.234	136
549.81	142
551.386	150
552.961	140
554.536	144
556.11	134
557.684	126
559.258	136
560.832	128
562.405	130
563.977	130
565.55	142
567.12	134
568.692	126
570.263	128
571.833	124
573.403	134
574.973	138
576.542	124
578.111	130
579.679	120
581.247	120
582.815	112
584.382	118
585.948	116
587.514	108
589.081	106
590.645	106
592.211	110
593.775	104
595.339	106
596.904	108
598.466	104
600.03	104
601.592	106
603.154	116
604.715	128
606.277	144
607.838	156
609.398	136
610.958	160
612.518	146
614.077	194
615.636	234
617.194	298
618.753	496
620.31	726
621.867	688
623.424	478
624.98	278
626.537	192
628.092	168
629.647	146
631.202	128
632.756	126
634.31	106
635.864	104
637.417	100
638.969	100
640.521	92
642.074	92
643.625	88
645.176	78
646.726	88
648.276	72
649.827	78
651.376	76
652.925	74
654.473	74
656.021	80
657.569	72
659.117	74
660.664	74
662.21	70
663.757	76
665.302	74
666.847	86
668.392	78
669.937	70
671.481	78
673.025	72
674.568	80
676.111	70
677.653	74
679.195	74
680.737	74
682.279	76
683.82	74
685.36	78
686.9	70
688.44	84
689.979	76
691.517	66
693.056	82
694.594	76
696.132	86
697.669	88
699.206	88
700.742	96
702.278	102
703.814	100
705.35	84
706.884	92
708.419	92
709.953	92
711.487	100
713.019	92
714.552	88
716.085	98
717.617	102
719.148	90
720.68	112
722.21	132
723.741	148
725.271	158
726.8	134
728.33	120
729.858	118
731.387	132
732.915	114
734.443	132
735.97	146
737.497	168
739.023	156
740.549	182
742.075	190
743.6	168
745.125	190
746.65	180
748.173	182
749.697	194
751.22	210
752.743	214
754.266	212
755.788	202
757.309	224
758.831	218
760.351	226
761.871	234
763.392	216
764.912	216
766.431	218
767.95	210
769.468	214
770.986	198
772.504	202
774.022	192
775.538	202
777.055	210
778.571	200
780.086	206
781.602	224
783.117	240
784.632	258
786.146	266
787.659	294
789.173	316
790.685	312
792.198	326
793.71	340
795.222	342
796.733	322
798.244	318
799.755	316
801.265	276
802.775	252
804.284	234
805.793	212
807.302	186
808.81	186
810.318	180
811.826	166
813.333	164
814.84	150
816.346	132
817.851	132
819.357	130
820.862	126
822.367	114
823.871	110
825.376	106
826.878	108
828.382	120
829.885	108
831.387	114
832.889	130
834.391	134
835.892	132
837.392	132
838.893	152
840.393	170
841.893	168
843.392	156
844.891	148
846.389	150
847.888	140
849.386	134
850.882	124
852.38	130
853.876	126
855.372	122
856.868	126
858.363	128
859.858	126
861.353	122
862.847	124
864.341	120
865.834	132
867.328	128
868.82	124
870.313	128
871.805	122
873.296	130
874.787	122
876.278	122
877.769	110
879.258	110
880.748	110
882.237	110
883.726	122
885.214	114
886.702	118
888.19	106
889.677	114
891.164	106
892.651	106
894.137	106
895.623	122
897.108	126
898.593	124
900.077	130
901.562	142
903.046	138
904.529	142
906.012	144
907.495	150
908.977	140
910.459	130
911.941	132
913.422	118
914.903	120
916.383	104
917.863	102
919.343	98
920.822	102
922.301	96
923.779	108
925.257	96
926.735	94
928.213	96
929.69	88
931.166	94
932.643	100
934.119	90
935.594	102
937.069	92
938.543	98
940.018	102
941.492	100
942.966	94
944.439	106
945.911	102
947.384	92
948.856	100
950.328	102
951.799	104
953.27	102
954.741	102
956.21	108
957.68	102
959.15	122
960.619	126
962.088	124
963.556	130
965.023	130
966.491	128
967.958	132
969.425	130
970.891	126
972.357	134
973.824	122
975.288	136
976.754	142
978.218	156
979.682	178
981.146	202
982.609	226
984.072	250
985.534	268
986.997	334
988.459	426
989.92	600
991.382	786
992.842	834
994.302	790
995.763	878
997.222	1194
998.681	1960
1000.14	2902
1001.6	3300
1003.06	2842
1004.52	1936
1005.97	1182
1007.43	698
1008.89	472
1010.34	300
1011.8	254
1013.25	202
1014.71	190
1016.16	194
1017.62	200
1019.07	188
1020.53	226
1021.98	260
1023.43	312
1024.89	418
1026.34	510
1027.79	626
1029.24	772
1030.69	846
1032.14	906
1033.59	830
1035.04	670
1036.49	534
1037.94	406
1039.39	336
1040.84	248
1042.29	224
1043.73	202
1045.18	192
1046.63	160
1048.08	178
1049.52	164
1050.97	174
1052.41	164
1053.86	156
1055.3	156
1056.75	142
1058.19	152
1059.64	160
1061.08	160
1062.52	158
1063.96	158
1065.41	162
1066.85	168
1068.29	168
1069.73	194
1071.17	188
1072.61	166
1074.05	164
1075.49	174
1076.93	176
1078.37	170
1079.81	176
1081.25	164
1082.68	158
1084.12	166
1085.56	172
1087	158
1088.43	156
1089.87	166
1091.3	160
1092.74	166
1094.17	172
1095.61	178
1097.04	180
1098.48	170
1099.91	180
1101.34	164
1102.78	156
1104.21	170
1105.64	152
1107.07	142
1108.5	144
1109.93	130
1111.36	138
1112.8	130
1114.22	112
1115.65	132
1117.08	126
1118.51	118
1119.94	120
1121.37	104
1122.8	106
1124.22	98
1125.65	112
1127.08	106
1128.5	104
1129.93	106
1131.35	120
1132.78	112
1134.2	118
1135.63	110
1137.05	120
1138.48	122
1139.9	126
1141.32	134
1142.75	134
1144.17	152
1145.59	162
1147.01	174
1148.43	194
1149.85	226
1151.27	292
1152.69	348
1154.11	400
1155.53	416
1156.95	388
1158.37	342
1159.79	292
1161.21	252
1162.62	230
1164.04	204
1165.46	214
1166.87	196
1168.29	212
1169.71	214
1171.12	210
1172.54	252
1173.95	264
1175.37	290
1176.78	344
1178.19	400
1179.61	474
1181.02	492
1182.43	538
1183.84	514
1185.26	460
1186.67	440
1188.08	430
1189.49	444
1190.9	460
1192.31	466
1193.72	506
1195.13	494
1196.54	510
1197.95	490
1199.36	500
1200.76	468
1202.17	468
1203.58	424
1204.99	408
1206.39	378
1207.8	352
1209.2	308
1210.61	294
1212.01	262
1213.42	246
1214.82	234
1216.23	224
1217.63	228
1219.03	194
1220.44	196
1221.84	212
1223.24	200
1224.64	204
1226.05	192
1227.45	182
1228.85	186
1230.25	188
1231.65	186
1233.05	180
1234.45	162
1235.85	170
1237.25	180
1238.64	180
1240.04	164
1241.44	164
1242.84	180
1244.23	174
1245.63	168
1247.03	168
1248.42	172
1249.82	164
1251.21	170
1252.61	168
1254	172
1255.4	164
1256.79	180
1258.19	156
1259.58	162
1260.97	164
1262.36	172
1263.76	178
1265.15	170
1266.54	172
1267.93	158
1269.32	158
1270.71	176
1272.1	166
1273.49	180
1274.88	178
1276.27	166
1277.66	180
1279.05	176
1280.43	174
1281.82	184
1283.21	180
1284.6	172
1285.98	188
1287.37	194
1288.75	180
1290.14	192
1291.53	198
1292.91	198
1294.29	184
1295.68	202
1297.06	190
1298.45	202
1299.83	194
1301.21	218
1302.59	222
1303.98	212
1305.36	212
1306.74	208
1308.12	216
1309.5	238
1310.88	228
1312.26	234
1313.64	244
1315.02	248
1316.4	248
1317.78	256
1319.16	254
1320.53	284
1321.91	268
1323.29	280
1324.67	292
1326.04	282
1327.42	292
1328.79	284
1330.17	310
1331.54	306
1332.92	302
1334.29	288
1335.67	298
1337.04	288
1338.42	296
1339.79	278
1341.16	272
1342.53	280
1343.91	266
1345.28	256
1346.65	270
1348.02	282
1349.39	266
1350.76	264
1352.13	262
1353.5	274
1354.87	282
1356.24	276
1357.61	264
1358.98	276
1360.34	280
1361.71	276
1363.08	268
1364.45	292
1365.81	284
1367.18	264
1368.54	266
1369.91	288
1371.28	270
1372.64	274
1374.01	298
1375.37	292
1376.73	278
1378.1	270
1379.46	252
1380.82	252
1382.19	270
1383.55	252
1384.91	268
1386.27	248
1387.63	230
1388.99	258
1390.35	230
1391.71	234
1393.07	240
1394.43	246
1395.79	238
1397.15	246
1398.51	240
1399.87	258
1401.23	224
1402.58	242
1403.94	242
1405.3	244
1406.65	226
1408.01	230
1409.37	240
1410.72	244
1412.08	226
1413.43	220
1414.79	216
1416.14	212
1417.49	212
1418.85	228
1420.2	224
1421.55	232
1422.91	212
1424.26	210
1425.61	234
1426.96	214
1428.31	230
1429.66	228
1431.01	230
1432.36	228
1433.71	236
1435.06	242
1436.41	262
1437.76	256
1439.11	270
1440.46	288
1441.81	296
1443.15	318
1444.5	308
1445.85	330
1447.19	312
1448.54	330
1449.89	328
1451.23	318
1452.58	314
1453.92	312
1455.27	288
1456.61	280
1457.95	256
1459.3	236
1460.64	210
1461.98	214
1463.33	216
1464.67	216
1466.01	202
1467.35	200
1468.69	190
1470.03	200
1471.37	216
1472.71	178
1474.05	190
1475.39	180
1476.73	194
1478.07	184
1479.41	172
1480.75	190
1482.09	182
1483.42	168
1484.76	194
1486.1	182
1487.43	178
1488.77	178
1490.11	186
1491.44	194
1492.78	192
1494.11	188
1495.45	196
1496.78	182
1498.12	180
1499.45	174
1500.78	174
1502.11	178
1503.45	178
1504.78	182
1506.11	164
1507.44	180
1508.77	174
1510.11	160
1511.44	172
1512.77	178
1514.1	166
1515.43	170
1516.76	158
1518.08	156
1519.41	176
1520.74	160
1522.07	166
1523.4	168
1524.72	172
1526.05	162
1527.38	164
1528.7	162
1530.03	170
1531.36	162
1532.68	164
1534.01	160
1535.33	160
1536.66	158
1537.98	160
1539.3	156
1540.63	158
1541.95	162
1543.27	168
1544.6	162
1545.92	158
1547.24	150
1548.56	154
1549.88	166
1551.2	170
1552.52	180
1553.84	158
1555.17	152
1556.48	158
1557.8	170
1559.12	152
1560.44	158
1561.76	162
1563.08	158
1564.4	164
1565.71	162
1567.03	166
1568.35	166
1569.66	178
1570.98	188
1572.29	186
1573.61	188
1574.93	210
1576.24	218
1577.55	246
1578.87	282
1580.18	320
1581.5	360
1582.81	412
1584.12	396
1585.43	346
1586.75	294
1588.06	262
1589.37	250
1590.68	246
1591.99	274
1593.3	268
1594.61	300
1595.92	348
1597.23	420
1598.54	500
1599.85	618
1601.16	682
1602.47	698
1603.78	656
1605.08	562
1606.39	464
1607.7	378
1609	336
1610.31	272
1611.62	264
1612.92	212
1614.23	212
1615.53	208
1616.84	192
1618.14	186
1619.45	184
1620.75	166
1622.06	150
1623.36	168
1624.66	158
1625.96	162
1627.27	166
1628.57	150
1629.87	166
1631.17	154
1632.47	152
1633.77	150
1635.07	148
1636.37	144
1637.67	156
1638.97	154
1640.27	148
1641.57	148
1642.87	156
1644.17	144
1645.47	146
1646.76	160
1648.06	154
1649.36	140
1650.66	162
1651.95	144
1653.25	148
1654.54	142
1655.84	136
1657.13	144
1658.43	136
1659.72	124
1661.02	132
1662.31	120
1663.6	136
1664.9	138
1666.19	128
1667.48	120
1668.78	132
1670.07	122
1671.36	134
1672.65	134
1673.94	142
1675.23	128
1676.52	138
1677.81	128
1679.1	126
1680.39	130
1681.68	126
1682.97	134
1684.26	124
1685.55	120
1686.83	122
1688.12	124
1689.41	126
1690.7	124
1691.98	130
1693.27	124
1694.55	118
1695.84	118
1697.13	126
1698.41	116
1699.69	122
1700.98	114
1702.26	120