File: Mixture_Classification/Jesse_Dataset_v2/Pure Raman/Polystyrene/785nm/ps-ppo-6jan25-1,0000-map3_Y01_X00.txt
204.377	836
206.045	832
207.713	858
209.38	858
211.048	886
212.715	886
214.381	898
216.047	908
217.712	872
219.377	892
221.042	916
222.706	928
224.369	886
226.032	838
227.695	816
229.357	774
231.019	712
232.68	652
234.341	622
236.001	596
237.661	562
239.321	506
240.98	474
242.639	396
244.297	382
245.955	374
247.612	328
249.268	306
250.924	316
252.58	288
254.236	274
255.891	286
257.546	284
259.2	268
260.854	264
262.507	258
264.16	282
265.812	250
267.463	254
269.115	254
270.766	262
272.417	256
274.067	242
275.717	244
277.365	232
279.014	218
280.663	212
282.311	212
283.958	218
285.605	212
287.252	204
288.898	200
290.543	186
292.188	188
293.833	182
295.477	184
297.121	184
298.765	172
300.407	184
302.05	174
303.693	160
305.334	170
306.975	168
308.615	160
310.256	174
311.896	170
313.535	170
315.175	170
316.813	182
318.451	178
320.089	180
321.726	168
323.362	174
324.999	162
326.635	168
328.271	174
329.905	162
331.54	178
333.174	174
334.807	176
336.441	166
338.074	176
339.707	174
341.338	166
342.969	160
344.601	158
346.231	156
347.861	156
349.491	152
351.12	162
352.749	150
354.378	150
356.006	148
357.633	146
359.261	156
360.887	146
362.513	158
364.139	158
365.764	144
367.39	156
369.014	152
370.638	166
372.261	162
373.884	168
375.508	156
377.13	158
378.752	162
380.373	162
381.994	176
383.615	190
385.235	180
386.854	182
388.473	188
390.092	196
391.711	198
393.328	182
394.947	188
396.564	202
398.181	200
399.797	200
401.412	230
403.027	222
404.642	234
406.257	252
407.871	224
409.484	228
411.098	222
412.711	200
414.323	190
415.935	186
417.547	174
419.158	188
420.768	170
422.378	170
423.988	160
425.597	168
427.206	160
428.814	156
430.422	144
432.03	156
433.637	142
435.243	134
436.85	134
438.456	140
440.062	142
441.666	138
443.271	134
444.876	134
446.479	132
448.082	134
449.685	124
451.287	120
452.89	130
454.492	122
456.092	122
457.693	114
459.293	114
460.893	116
462.492	114
464.092	108
465.691	100
467.288	104
468.887	116
470.483	120
472.081	114
473.677	118
475.273	116
476.869	108
478.463	104
480.059	102
481.653	100
483.247	98
484.84	90
486.433	94
488.026	108
489.618	104
491.21	112
492.801	100
494.392	104
495.983	106
497.573	112
499.162	118
500.752	108
502.341	110
503.929	116
505.517	122
507.105	116
508.692	122
510.279	110
511.865	106
513.45	112
515.037	122
516.621	116
518.206	124
519.79	116
521.374	110
522.957	114
524.54	120
526.123	122
527.705	126
529.287	136
530.868	134
532.448	134
534.029	140
535.609	136
537.188	150
538.768	154
540.346	154
541.925	148
543.502	148
545.08	142
546.657	142
548.234	142
549.81	140
551.386	138
552.961	140
554.536	142
556.11	146
557.684	142
559.258	118
560.832	136
562.405	136
563.977	132
565.55	146
567.12	148
568.692	130
570.263	140
571.833	130
573.403	150
574.973	136
576.542	138
578.111	134
579.679	130
581.247	116
582.815	110
584.382	110
585.948	108
587.514	102
589.081	106
590.645	106
592.211	106
593.775	112
595.339	112
596.904	118
598.466	120
600.03	116
601.592	120
603.154	134
604.715	142
606.277	134
607.838	148
609.398	134
610.958	144
612.518	162
614.077	186
615.636	234
617.194	328
618.753	492
620.31	718
621.867	684
623.424	448
624.98	284
626.537	212
628.092	172
629.647	150
631.202	144
632.756	120
634.31	114
635.864	110
637.417	108
638.969	98
640.521	98
642.074	100
643.625	84
645.176	88
646.726	90
648.276	78
649.827	90
651.376	78
652.925	82
654.473	88
656.021	86
657.569	72
659.117	78
660.664	80
662.21	74
663.757	80
665.302	82
666.847	78
668.392	74
669.937	82
671.481	80
673.025	76
674.568	68
676.111	76
677.653	84
679.195	76
680.737	68
682.279	76
683.82	82
685.36	84
686.9	78
688.44	78
689.979	78
691.517	86
693.056	90
694.594	88
696.132	86
697.669	90
699.206	92
700.742	102
702.278	100
703.814	100
705.35	100
706.884	88
708.419	90
709.953	102
711.487	98
713.019	90
714.552	100
716.085	98
717.617	96
719.148	108
720.68	130
722.21	140
723.741	150
725.271	138
726.8	150
728.33	138
729.858	120
731.387	126
732.915	124
734.443	132
735.97	158
737.497	162
739.023	172
740.549	174
742.075	188
743.6	190
745.125	196
746.65	188
748.173	196
749.697	186
751.22	208
752.743	202
754.266	222
755.788	226
757.309	226
758.831	238
760.351	234
761.871	232
763.392	238
764.912	228
766.431	204
767.95	210
769.468	218
770.986	202
772.504	212
774.022	192
775.538	200
777.055	182
778.571	204
780.086	214
781.602	216
783.117	252
784.632	248
786.146	278
787.659	296
789.173	288
790.685	324
792.198	324
793.71	340
795.222	340
796.733	336
798.244	334
799.755	310
801.265	278
802.775	254
804.284	236
805.793	200
807.302	206
808.81	190
810.318	176
811.826	174
813.333	164
814.84	152
816.346	136
817.851	138
819.357	126
820.862	114
822.367	118
823.871	110
825.376	118
826.878	114
828.382	110
829.885	116
831.387	114
832.889	136
834.391	116
835.892	138
837.392	152
838.893	162
840.393	154
841.893	160
843.392	174
844.891	160
846.389	156
847.888	146
849.386	144
850.882	128
852.38	130
853.876	124
855.372	130
856.868	122
858.363	122
859.858	108
861.353	126
862.847	128
864.341	118
865.834	128
867.328	118
868.82	130
870.313	112
871.805	126
873.296	126
874.787	122
876.278	114
877.769	116
879.258	116
880.748	124
882.237	108
883.726	104
885.214	108
886.702	114
888.19	122
889.677	108
891.164	120
892.651	118
894.137	126
895.623	114
897.108	116
898.593	126
900.077	128
901.562	138
903.046	132
904.529	146
906.012	150
907.495	150
908.977	146
910.459	140
911.941	130
913.422	118
914.903	122
916.383	112
917.863	114
919.343	104
920.822	92
922.301	106
923.779	90
925.257	98
926.735	96
928.213	108
929.69	100
931.166	94
932.643	104
934.119	102
935.594	102
937.069	96
938.543	100
940.018	104
941.492	106
942.966	98
944.439	102
945.911	104
947.384	98
948.856	118
950.328	106
951.799	102
953.27	104
954.741	110
956.21	112
957.68	114
959.15	108
960.619	118
962.088	118
963.556	122
965.023	130
966.491	132
967.958	130
969.425	124
970.891	142
972.357	128
973.824	134
975.288	148
976.754	150
978.218	168
979.682	180
981.146	206
982.609	224
984.072	240
985.534	266
986.997	314
988.459	394
989.92	554
991.382	750
992.842	800
994.302	744
995.763	850
997.222	1184
998.681	1890
1000.14	2854
1001.6	3264
1003.06	2892
1004.52	1970
1005.97	1136
1007.43	688
1008.89	454
1010.34	302
1011.8	256
1013.25	206
1014.71	194
1016.16	180
1017.62	196
1019.07	196
1020.53	218
1021.98	244
1023.43	298
1024.89	396
1026.34	486
1027.79	648
1029.24	746
1030.69	862
1032.14	894
1033.59	822
1035.04	712
1036.49	538
1037.94	416
1039.39	326
1040.84	260
1042.29	234
1043.73	180
1045.18	192
1046.63	164
1048.08	164
1049.52	160
1050.97	164
1052.41	162
1053.86	150
1055.3	156
1056.75	156
1058.19	152
1059.64	154
1061.08	164
1062.52	166
1063.96	154
1065.41	160
1066.85	168
1068.29	174
1069.73	164
1071.17	180
1072.61	180
1074.05	158
1075.49	174
1076.93	174
1078.37	166
1079.81	176
1081.25	170
1082.68	162
1084.12	170
1085.56	160
1087	150
1088.43	170
1089.87	170
1091.3	160
1092.74	172
1094.17	168
1095.61	172
1097.04	172
1098.48	174
1099.91	178
1101.34	168
1102.78	156
1104.21	164
1105.64	150
1107.07	146
1108.5	142
1109.93	132
1111.36	138
1112.8	122
1114.22	128
1115.65	128
1117.08	124
1118.51	118
1119.94	112
1121.37	114
1122.8	118
1124.22	100
1125.65	110
1127.08	104
1128.5	108
1129.93	120
1131.35	104
1132.78	108
1134.2	116
1135.63	106
1137.05	114
1138.48	118
1139.9	124
1141.32	124
1142.75	140
1144.17	144
1145.59	156
1147.01	160
1148.43	198
1149.85	222
1151.27	268
1152.69	348
1154.11	404
1155.53	412
1156.95	386
1158.37	312
1159.79	304
1161.21	262
1162.62	228
1164.04	222
1165.46	206
1166.87	206
1168.29	192
1169.71	222
1171.12	226
1172.54	230
1173.95	254
1175.37	296
1176.78	336
1178.19	436
1179.61	474
1181.02	512
1182.43	496
1183.84	494
1185.26	464
1186.67	434
1188.08	430
1189.49	456
1190.9	460
1192.31	448
1193.72	498
1195.13	486
1196.54	506
1197.95	506
1199.36	498
1200.76	476
1202.17	478
1203.58	438
1204.99	424
1206.39	396
1207.8	358
1209.2	330
1210.61	294
1212.01	248
1213.42	264
1214.82	238
1216.23	226
1217.63	204
1219.03	194
1220.44	176
1221.84	196
1223.24	208
1224.64	202
1226.05	190
1227.45	194
1228.85	180
1230.25	178
1231.65	176
1233.05	168
1234.45	166
1235.85	148
1237.25	162
1238.64	170
1240.04	164
1241.44	176
1242.84	178
1244.23	152
1245.63	158
1247.03	172
1248.42	168
1249.82	170
1251.21	170
1252.61	160
1254	178
1255.4	156
1256.79	154
1258.19	154
1259.58	162
1260.97	178
1262.36	156
1263.76	170
1265.15	166
1266.54	172
1267.93	164
1269.32	166
1270.71	168
1272.1	176
1273.49	158
1274.88	162
1276.27	160
1277.66	146
1279.05	152
1280.43	162
1281.82	166
1283.21	176
1284.6	174
1285.98	184
1287.37	178
1288.75	168
1290.14	178
1291.53	182
1292.91	200
1294.29	188
1295.68	202
1297.06	208
1298.45	196
1299.83	212
1301.21	200
1302.59	202
1303.98	220
1305.36	224
1306.74	230
1308.12	210
1309.5	224
1310.88	220
1312.26	226
1313.64	240
1315.02	236
1316.4	252
1317.78	254
1319.16	268
1320.53	262
1321.91	264
1323.29	288
1324.67	294
1326.04	274
1327.42	290
1328.79	284
1330.17	284
1331.54	282
1332.92	286
1334.29	274
1335.67	272
1337.04	282
1338.42	268
1339.79	264
1341.16	268
1342.53	270
1343.91	268
1345.28	250
1346.65	268
1348.02	264
1349.39	256
1350.76	264
1352.13	248
1353.5	254
1354.87	252
1356.24	266
1357.61	266
1358.98	266
1360.34	268
1361.71	268
1363.08	268
1364.45	252
1365.81	262
1367.18	270
1368.54	272
1369.91	274
1371.28	268
1372.64	260
1374.01	274
1375.37	264
1376.73	258
1378.1	270
1379.46	266
1380.82	248
1382.19	252
1383.55	244
1384.91	244
1386.27	232
1387.63	236
1388.99	230
1390.35	236
1391.71	214
1393.07	232
1394.43	216
1395.79	226
1397.15	230
1398.51	218
1399.87	216
1401.23	222
1402.58	224
1403.94	230
1405.3	230
1406.65	212
1408.01	228
1409.37	214
1410.72	212
1412.08	210
1413.43	200
1414.79	198
1416.14	196
1417.49	218
1418.85	220
1420.2	212
1421.55	208
1422.91	204
1424.26	206
1425.61	228
1426.96	216
1428.31	210
1429.66	214
1431.01	220
1432.36	216
1433.71	224
1435.06	232
1436.41	246
1437.76	252
1439.11	272
1440.46	280
1441.81	302
1443.15	290
1444.5	296
1445.85	324
1447.19	330
1448.54	320
1449.89	332
1451.23	312
1452.58	312
1453.92	306
1455.27	282
1456.61	250
1457.95	242
1459.3	212
1460.64	210
1461.98	208
1463.33	194
1464.67	186
1466.01	184
1467.35	182
1468.69	192
1470.03	178
1471.37	176
1472.71	164
1474.05	168
1475.39	180
1476.73	186
1478.07	178
1479.41	190
1480.75	162
1482.09	178
1483.42	176
1484.76	176
1486.1	172
1487.43	156
1488.77	166
1490.11	170
1491.44	190
1492.78	168
1494.11	172
1495.45	184
1496.78	176
1498.12	166
1499.45	162
1500.78	146
1502.11	160
1503.45	160
1504.78	170
1506.11	162
1507.44	154
1508.77	166
1510.11	164
1511.44	154
1512.77	162
1514.1	164
1515.43	158
1516.76	166
1518.08	158
1519.41	166
1520.74	164
1522.07	146
1523.4	164
1524.72	168
1526.05	148
1527.38	154
1528.7	166
1530.03	166
1531.36	166
1532.68	154
1534.01	154
1535.33	152
1536.66	156
1537.98	146
1539.3	160
1540.63	148
1541.95	148
1543.27	160
1544.6	164
1545.92	148
1547.24	152
1548.56	152
1549.88	152
1551.2	154
1552.52	152
1553.84	162
1555.17	144
1556.48	154
1557.8	146
1559.12	156
1560.44	162
1561.76	156
1563.08	152
1564.4	160
1565.71	166
1567.03	158
1568.35	174
1569.66	180
1570.98	156
1572.29	172
1573.61	198
1574.93	196
1576.24	220
1577.55	234
1578.87	264
1580.18	316
1581.5	376
1582.81	408
1584.12	392
1585.43	334
1586.75	298
1588.06	262
1589.37	238
1590.68	236
1591.99	250
1593.3	266
1594.61	300
1595.92	350
1597.23	426
1598.54	504
1599.85	590
1601.16	674
1602.47	688
1603.78	652
1605.08	566
1606.39	464
1607.7	400
1609	320
1610.31	278
1611.62	248
1612.92	226
1614.23	206
1615.53	202
1616.84	178
1618.14	166
1619.45	176
1620.75	168
1622.06	164
1623.36	172
1624.66	162
1625.96	158
1627.27	148
1628.57	160
1629.87	158
1631.17	136
1632.47	136
1633.77	136
1635.07	150
1636.37	146
1637.67	142
1638.97	146
1640.27	140
1641.57	144
1642.87	154
1644.17	138
1645.47	150
1646.76	142
1648.06	148
1649.36	140
1650.66	152
1651.95	134
1653.25	134
1654.54	142
1655.84	124
1657.13	126
1658.43	130
1659.72	128
1661.02	128
1662.31	138
1663.6	118
1664.9	134
1666.19	122
1667.48	122
1668.78	126
1670.07	120
1671.36	120
1672.65	122
1673.94	124
1675.23	122
1676.52	132
1677.81	124
1679.1	120
1680.39	120
1681.68	122
1682.97	120
1684.26	124
1685.55	122
1686.83	118
1688.12	116
1689.41	120
1690.7	122
1691.98	108
1693.27	132
1694.55	120
1695.84	114
1697.13	118
1698.41	114
1699.69	122
1700.98	118
1702.26	112