File: Mixture_Classification/Jesse_Dataset_v2/Pure Raman/Polystyrene/785nm/ps-ppo-6jan25-1,0000-map3_Y03_X02.txt
204.377	834
206.045	830
207.713	844
209.38	868
211.048	846
212.715	910
214.381	880
216.047	900
217.712	916
219.377	916
221.042	876
222.706	876
224.369	868
226.032	850
227.695	798
229.357	786
231.019	702
232.68	702
234.341	626
236.001	584
237.661	548
239.321	482
240.98	452
242.639	414
244.297	370
245.955	350
247.612	314
249.268	312
250.924	304
252.58	304
254.236	296
255.891	286
257.546	272
259.2	260
260.854	258
262.507	260
264.16	266
265.812	256
267.463	254
269.115	238
270.766	248
272.417	234
274.067	236
275.717	228
277.365	224
279.014	220
280.663	202
282.311	224
283.958	218
285.605	188
287.252	188
288.898	196
290.543	194
292.188	182
293.833	168
295.477	174
297.121	166
298.765	160
300.407	170
302.05	164
303.693	152
305.334	162
306.975	162
308.615	170
310.256	170
311.896	174
313.535	174
315.175	172
316.813	160
318.451	170
320.089	168
321.726	172
323.362	168
324.999	162
326.635	166
328.271	164
329.905	158
331.54	162
333.174	162
334.807	168
336.441	168
338.074	170
339.707	162
341.338	154
342.969	144
344.601	162
346.231	152
347.861	154
349.491	154
351.12	132
352.749	154
354.378	144
356.006	154
357.633	148
359.261	144
360.887	150
362.513	132
364.139	142
365.764	152
367.39	152
369.014	136
370.638	154
372.261	162
373.884	154
375.508	158
377.13	156
378.752	158
380.373	166
381.994	156
383.615	172
385.235	176
386.854	184
388.473	174
390.092	176
391.711	166
393.328	190
394.947	188
396.564	194
398.181	204
399.797	190
401.412	214
403.027	228
404.642	222
406.257	232
407.871	240
409.484	206
411.098	196
412.711	194
414.323	182
415.935	192
417.547	172
419.158	168
420.768	158
422.378	154
423.988	154
425.597	156
427.206	150
428.814	144
430.422	148
432.03	126
433.637	130
435.243	142
436.85	132
438.456	138
440.062	134
441.666	128
443.271	118
444.876	126
446.479	126
448.082	124
449.685	124
451.287	122
452.89	112
454.492	114
456.092	110
457.693	118
459.293	104
460.893	108
462.492	102
464.092	100
465.691	104
467.288	100
468.887	92
470.483	110
472.081	108
473.677	108
475.273	104
476.869	106
478.463	98
480.059	90
481.653	94
483.247	98
484.84	90
486.433	102
488.026	92
489.618	98
491.21	100
492.801	96
494.392	96
495.983	98
497.573	96
499.162	104
500.752	108
502.341	112
503.929	110
505.517	100
507.105	104
508.692	102
510.279	92
511.865	106
513.45	104
515.037	104
516.621	106
518.206	102
519.79	102
521.374	96
522.957	106
524.54	122
526.123	114
527.705	114
529.287	130
530.868	118
532.448	124
534.029	128
535.609	140
537.188	140
538.768	142
540.346	140
541.925	138
543.502	152
545.08	132
546.657	134
548.234	140
549.81	128
551.386	134
552.961	144
554.536	126
556.11	136
557.684	132
559.258	130
560.832	126
562.405	126
563.977	128
565.55	136
567.12	130
568.692	124
570.263	142
571.833	124
573.403	126
574.973	142
576.542	134
578.111	124
579.679	120
581.247	116
582.815	116
584.382	114
585.948	118
587.514	112
589.081	110
590.645	102
592.211	108
593.775	104
595.339	108
596.904	116
598.466	114
600.03	110
601.592	118
603.154	106
604.715	134
606.277	140
607.838	136
609.398	142
610.958	150
612.518	150
614.077	180
615.636	232
617.194	298
618.753	496
620.31	704
621.867	664
623.424	480
624.98	272
626.537	198
628.092	160
629.647	148
631.202	120
632.756	112
634.31	110
635.864	108
637.417	102
638.969	92
640.521	86
642.074	94
643.625	82
645.176	76
646.726	82
648.276	82
649.827	78
651.376	70
652.925	74
654.473	74
656.021	74
657.569	84
659.117	70
660.664	82
662.21	74
663.757	70
665.302	68
666.847	76
668.392	76
669.937	76
671.481	74
673.025	70
674.568	74
676.111	74
677.653	72
679.195	80
680.737	70
682.279	74
683.82	68
685.36	66
686.9	78
688.44	72
689.979	74
691.517	82
693.056	74
694.594	76
696.132	82
697.669	78
699.206	94
700.742	96
702.278	100
703.814	96
705.35	98
706.884	94
708.419	92
709.953	94
711.487	92
713.019	86
714.552	92
716.085	92
717.617	98
719.148	108
720.68	114
722.21	118
723.741	146
725.271	152
726.8	124
728.33	128
729.858	136
731.387	124
732.915	118
734.443	136
735.97	144
737.497	160
739.023	172
740.549	184
742.075	182
743.6	180
745.125	182
746.65	194
748.173	188
749.697	186
751.22	194
752.743	210
754.266	212
755.788	198
757.309	230
758.831	224
760.351	234
761.871	228
763.392	230
764.912	206
766.431	210
767.95	210
769.468	212
770.986	202
772.504	196
774.022	188
775.538	186
777.055	194
778.571	208
780.086	202
781.602	226
783.117	228
784.632	264
786.146	276
787.659	276
789.173	312
790.685	304
792.198	328
793.71	332
795.222	322
796.733	334
798.244	324
799.755	306
801.265	282
802.775	256
804.284	220
805.793	206
807.302	202
808.81	180
810.318	170
811.826	172
813.333	162
814.84	148
816.346	150
817.851	130
819.357	118
820.862	132
822.367	120
823.871	104
825.376	118
826.878	106
828.382	110
829.885	116
831.387	114
832.889	124
834.391	128
835.892	134
837.392	148
838.893	148
840.393	154
841.893	148
843.392	156
844.891	160
846.389	144
847.888	142
849.386	132
850.882	134
852.38	134
853.876	120
855.372	116
856.868	126
858.363	118
859.858	124
861.353	126
862.847	120
864.341	122
865.834	116
867.328	126
868.82	122
870.313	122
871.805	124
873.296	118
874.787	128
876.278	130
877.769	114
879.258	122
880.748	108
882.237	106
883.726	116
885.214	114
886.702	110
888.19	110
889.677	108
891.164	106
892.651	114
894.137	116
895.623	108
897.108	126
898.593	120
900.077	120
901.562	142
903.046	140
904.529	146
906.012	148
907.495	140
908.977	142
910.459	136
911.941	140
913.422	104
914.903	106
916.383	104
917.863	108
919.343	88
920.822	104
922.301	90
923.779	92
925.257	98
926.735	94
928.213	94
929.69	88
931.166	94
932.643	106
934.119	92
935.594	88
937.069	96
938.543	112
940.018	92
941.492	96
942.966	98
944.439	96
945.911	96
947.384	102
948.856	88
950.328	94
951.799	98
953.27	98
954.741	98
956.21	102
957.68	104
959.15	102
960.619	110
962.088	120
963.556	122
965.023	132
966.491	120
967.958	118
969.425	128
970.891	132
972.357	116
973.824	132
975.288	144
976.754	148
978.218	166
979.682	176
981.146	190
982.609	212
984.072	238
985.534	270
986.997	332
988.459	424
989.92	580
991.382	738
992.842	782
994.302	758
995.763	842
997.222	1242
998.681	1958
1000.14	2894
1001.6	3316
1003.06	2862
1004.52	1992
1005.97	1178
1007.43	674
1008.89	442
1010.34	336
1011.8	228
1013.25	202
1014.71	188
1016.16	166
1017.62	186
1019.07	204
1020.53	214
1021.98	258
1023.43	306
1024.89	378
1026.34	466
1027.79	626
1029.24	742
1030.69	864
1032.14	896
1033.59	846
1035.04	676
1036.49	530
1037.94	410
1039.39	316
1040.84	254
1042.29	240
1043.73	216
1045.18	190
1046.63	174
1048.08	168
1049.52	152
1050.97	152
1052.41	152
1053.86	152
1055.3	148
1056.75	156
1058.19	150
1059.64	156
1061.08	152
1062.52	152
1063.96	154
1065.41	168
1066.85	160
1068.29	174
1069.73	164
1071.17	168
1072.61	176
1074.05	164
1075.49	160
1076.93	176
1078.37	164
1079.81	164
1081.25	172
1082.68	172
1084.12	166
1085.56	164
1087	162
1088.43	172
1089.87	154
1091.3	144
1092.74	180
1094.17	156
1095.61	176
1097.04	174
1098.48	172
1099.91	156
1101.34	168
1102.78	160
1104.21	144
1105.64	156
1107.07	136
1108.5	138
1109.93	138
1111.36	132
1112.8	128
1114.22	124
1115.65	118
1117.08	118
1118.51	116
1119.94	110
1121.37	106
1122.8	110
1124.22	112
1125.65	106
1127.08	102
1128.5	106
1129.93	110
1131.35	112
1132.78	106
1134.2	106
1135.63	116
1137.05	110
1138.48	122
1139.9	116
1141.32	142
1142.75	138
1144.17	158
1145.59	154
1147.01	168
1148.43	202
1149.85	218
1151.27	272
1152.69	354
1154.11	398
1155.53	416
1156.95	372
1158.37	340
1159.79	286
1161.21	248
1162.62	222
1164.04	224
1165.46	206
1166.87	210
1168.29	212
1169.71	220
1171.12	226
1172.54	232
1173.95	260
1175.37	304
1176.78	356
1178.19	364
1179.61	490
1181.02	518
1182.43	514
1183.84	488
1185.26	480
1186.67	440
1188.08	428
1189.49	438
1190.9	466
1192.31	476
1193.72	484
1195.13	506
1196.54	516
1197.95	474
1199.36	488
1200.76	480
1202.17	470
1203.58	432
1204.99	402
1206.39	386
1207.8	350
1209.2	308
1210.61	290
1212.01	258
1213.42	258
1214.82	230
1216.23	214
1217.63	206
1219.03	188
1220.44	208
1221.84	188
1223.24	184
1224.64	198
1226.05	200
1227.45	204
1228.85	182
1230.25	184
1231.65	178
1233.05	172
1234.45	168
1235.85	172
1237.25	174
1238.64	176
1240.04	166
1241.44	170
1242.84	164
1244.23	160
1245.63	168
1247.03	156
1248.42	170
1249.82	160
1251.21	176
1252.61	160
1254	174
1255.4	170
1256.79	168
1258.19	160
1259.58	162
1260.97	168
1262.36	170
1263.76	178
1265.15	158
1266.54	172
1267.93	182
1269.32	146
1270.71	174
1272.1	172
1273.49	164
1274.88	166
1276.27	178
1277.66	166
1279.05	170
1280.43	180
1281.82	170
1283.21	176
1284.6	180
1285.98	172
1287.37	176
1288.75	174
1290.14	178
1291.53	184
1292.91	202
1294.29	198
1295.68	200
1297.06	188
1298.45	204
1299.83	200
1301.21	216
1302.59	214
1303.98	218
1305.36	224
1306.74	222
1308.12	224
1309.5	224
1310.88	224
1312.26	218
1313.64	236
1315.02	248
1316.4	248
1317.78	244
1319.16	258
1320.53	270
1321.91	266
1323.29	284
1324.67	286
1326.04	266
1327.42	282
1328.79	312
1330.17	292
1331.54	292
1332.92	282
1334.29	298
1335.67	256
1337.04	294
1338.42	264
1339.79	266
1341.16	268
1342.53	284
1343.91	256
1345.28	250
1346.65	240
1348.02	242
1349.39	264
1350.76	254
1352.13	264
1353.5	258
1354.87	246
1356.24	252
1357.61	248
1358.98	246
1360.34	274
1361.71	260
1363.08	272
1364.45	270
1365.81	270
1367.18	276
1368.54	268
1369.91	266
1371.28	266
1372.64	272
1374.01	262
1375.37	270
1376.73	266
1378.1	264
1379.46	258
1380.82	256
1382.19	264
1383.55	248
1384.91	238
1386.27	244
1387.63	236
1388.99	240
1390.35	240
1391.71	236
1393.07	234
1394.43	224
1395.79	238
1397.15	218
1398.51	226
1399.87	220
1401.23	236
1402.58	230
1403.94	222
1405.3	210
1406.65	218
1408.01	232
1409.37	210
1410.72	222
1412.08	226
1413.43	226
1414.79	212
1416.14	220
1417.49	194
1418.85	214
1420.2	204
1421.55	208
1422.91	194
1424.26	204
1425.61	210
1426.96	202
1428.31	222
1429.66	210
1431.01	208
1432.36	216
1433.71	232
1435.06	232
1436.41	250
1437.76	278
1439.11	256
1440.46	272
1441.81	292
1443.15	306
1444.5	304
1445.85	320
1447.19	324
1448.54	322
1449.89	302
1451.23	332
1452.58	320
1453.92	322
1455.27	278
1456.61	266
1457.95	248
1459.3	216
1460.64	218
1461.98	196
1463.33	202
1464.67	188
1466.01	210
1467.35	174
1468.69	192
1470.03	180
1471.37	182
1472.71	174
1474.05	174
1475.39	184
1476.73	158
1478.07	164
1479.41	170
1480.75	182
1482.09	180
1483.42	172
1484.76	182
1486.1	180
1487.43	176
1488.77	176
1490.11	172
1491.44	174
1492.78	188
1494.11	182
1495.45	170
1496.78	170
1498.12	166
1499.45	162
1500.78	150
1502.11	164
1503.45	166
1504.78	158
1506.11	164
1507.44	160
1508.77	154
1510.11	160
1511.44	152
1512.77	166
1514.1	144
1515.43	158
1516.76	164
1518.08	158
1519.41	158
1520.74	154
1522.07	172
1523.4	166
1524.72	164
1526.05	152
1527.38	156
1528.7	162
1530.03	150
1531.36	168
1532.68	162
1534.01	160
1535.33	162
1536.66	154
1537.98	148
1539.3	156
1540.63	156
1541.95	152
1543.27	158
1544.6	152
1545.92	158
1547.24	154
1548.56	154
1549.88	148
1551.2	156
1552.52	146
1553.84	174
1555.17	148
1556.48	162
1557.8	160
1559.12	162
1560.44	166
1561.76	162
1563.08	164
1564.4	160
1565.71	146
1567.03	172
1568.35	170
1569.66	166
1570.98	186
1572.29	184
1573.61	196
1574.93	198
1576.24	218
1577.55	214
1578.87	260
1580.18	320
1581.5	376
1582.81	410
1584.12	398
1585.43	356
1586.75	288
1588.06	272
1589.37	248
1590.68	236
1591.99	252
1593.3	272
1594.61	300
1595.92	356
1597.23	404
1598.54	516
1599.85	618
1601.16	684
1602.47	688
1603.78	646
1605.08	544
1606.39	462
1607.7	384
1609	310
1610.31	248
1611.62	250
1612.92	226
1614.23	200
1615.53	188
1616.84	190
1618.14	184
1619.45	174
1620.75	168
1622.06	162
1623.36	156
1624.66	176
1625.96	158
1627.27	144
1628.57	160
1629.87	152
1631.17	148
1632.47	148
1633.77	138
1635.07	150
1636.37	154
1637.67	146
1638.97	146
1640.27	148
1641.57	140
1642.87	152
1644.17	150
1645.47	152
1646.76	152
1648.06	150
1649.36	142
1650.66	136
1651.95	134
1653.25	146
1654.54	122
1655.84	124
1657.13	130
1658.43	136
1659.72	126
1661.02	124
1662.31	134
1663.6	124
1664.9	128
1666.19	130
1667.48	120
1668.78	120
1670.07	130
1671.36	126
1672.65	122
1673.94	122
1675.23	128
1676.52	128
1677.81	130
1679.1	122
1680.39	122
1681.68	114
1682.97	124
1684.26	120
1685.55	124
1686.83	124
1688.12	124
1689.41	126
1690.7	122
1691.98	122
1693.27	122
1694.55	126
1695.84	112
1697.13	120
1698.41	112
1699.69	120
1700.98	116
1702.26	114