File: Mixture_Classification/Jesse_Dataset_v2/Pure Raman/Polystyrene/785nm/ps-ppo-6jan25-1,0000-map3_Y07_X03.txt
204.377	856
206.045	888
207.713	888
209.38	880
211.048	892
212.715	912
214.381	918
216.047	926
217.712	938
219.377	952
221.042	930
222.706	942
224.369	900
226.032	860
227.695	810
229.357	778
231.019	752
232.68	696
234.341	638
236.001	596
237.661	570
239.321	520
240.98	456
242.639	420
244.297	390
245.955	380
247.612	358
249.268	340
250.924	330
252.58	302
254.236	314
255.891	298
257.546	300
259.2	296
260.854	288
262.507	276
264.16	284
265.812	266
267.463	272
269.115	272
270.766	268
272.417	288
274.067	276
275.717	256
277.365	258
279.014	246
280.663	238
282.311	248
283.958	228
285.605	238
287.252	230
288.898	234
290.543	204
292.188	200
293.833	210
295.477	206
297.121	188
298.765	206
300.407	184
302.05	186
303.693	176
305.334	178
306.975	186
308.615	188
310.256	178
311.896	188
313.535	198
315.175	180
316.813	190
318.451	176
320.089	196
321.726	190
323.362	190
324.999	194
326.635	190
328.271	200
329.905	194
331.54	196
333.174	206
334.807	178
336.441	196
338.074	192
339.707	198
341.338	182
342.969	188
344.601	180
346.231	176
347.861	170
349.491	178
351.12	168
352.749	174
354.378	176
356.006	172
357.633	176
359.261	174
360.887	162
362.513	176
364.139	176
365.764	174
367.39	174
369.014	158
370.638	182
372.261	188
373.884	188
375.508	182
377.13	192
378.752	182
380.373	198
381.994	186
383.615	192
385.235	204
386.854	218
388.473	210
390.092	196
391.711	218
393.328	220
394.947	224
396.564	234
398.181	226
399.797	226
401.412	224
403.027	252
404.642	270
406.257	268
407.871	264
409.484	248
411.098	226
412.711	232
414.323	214
415.935	202
417.547	212
419.158	208
420.768	202
422.378	192
423.988	188
425.597	184
427.206	182
428.814	180
430.422	178
432.03	160
433.637	166
435.243	168
436.85	164
438.456	160
440.062	164
441.666	172
443.271	158
444.876	162
446.479	160
448.082	152
449.685	144
451.287	144
452.89	140
454.492	138
456.092	132
457.693	142
459.293	136
460.893	132
462.492	132
464.092	134
465.691	144
467.288	142
468.887	144
470.483	136
472.081	140
473.677	128
475.273	136
476.869	136
478.463	134
480.059	134
481.653	118
483.247	128
484.84	122
486.433	132
488.026	136
489.618	140
491.21	130
492.801	130
494.392	124
495.983	136
497.573	136
499.162	134
500.752	134
502.341	144
503.929	148
505.517	128
507.105	136
508.692	134
510.279	138
511.865	142
513.45	142
515.037	140
516.621	128
518.206	138
519.79	138
521.374	150
522.957	150
524.54	140
526.123	148
527.705	146
529.287	154
530.868	150
532.448	158
534.029	168
535.609	172
537.188	178
538.768	188
540.346	180
541.925	168
543.502	180
545.08	166
546.657	164
548.234	160
549.81	174
551.386	164
552.961	160
554.536	168
556.11	162
557.684	164
559.258	156
560.832	170
562.405	166
563.977	154
565.55	166
567.12	156
568.692	158
570.263	148
571.833	168
573.403	162
574.973	162
576.542	152
578.111	154
579.679	150
581.247	142
582.815	134
584.382	150
585.948	132
587.514	136
589.081	144
590.645	132
592.211	128
593.775	134
595.339	126
596.904	142
598.466	138
600.03	138
601.592	142
603.154	152
604.715	158
606.277	174
607.838	184
609.398	168
610.958	160
612.518	184
614.077	216
615.636	254
617.194	372
618.753	560
620.31	740
621.867	728
623.424	484
624.98	300
626.537	216
628.092	186
629.647	174
631.202	148
632.756	142
634.31	142
635.864	130
637.417	128
638.969	118
640.521	120
642.074	118
643.625	112
645.176	118
646.726	116
648.276	110
649.827	98
651.376	104
652.925	104
654.473	102
656.021	104
657.569	98
659.117	102
660.664	106
662.21	110
663.757	102
665.302	102
666.847	106
668.392	104
669.937	98
671.481	104
673.025	104
674.568	102
676.111	106
677.653	100
679.195	98
680.737	108
682.279	108
683.82	92
685.36	96
686.9	98
688.44	100
689.979	102
691.517	102
693.056	92
694.594	98
696.132	104
697.669	104
699.206	116
700.742	118
702.278	116
703.814	122
705.35	120
706.884	120
708.419	112
709.953	120
711.487	114
713.019	132
714.552	122
716.085	120
717.617	120
719.148	122
720.68	130
722.21	142
723.741	176
725.271	178
726.8	156
728.33	152
729.858	152
731.387	134
732.915	150
734.443	154
735.97	154
737.497	176
739.023	194
740.549	192
742.075	212
743.6	212
745.125	204
746.65	214
748.173	212
749.697	202
751.22	224
752.743	218
754.266	230
755.788	252
757.309	248
758.831	240
760.351	256
761.871	256
763.392	240
764.912	254
766.431	240
767.95	216
769.468	212
770.986	210
772.504	210
774.022	214
775.538	218
777.055	216
778.571	226
780.086	240
781.602	230
783.117	252
784.632	268
786.146	294
787.659	324
789.173	324
790.685	342
792.198	354
793.71	362
795.222	362
796.733	370
798.244	332
799.755	316
801.265	302
802.775	266
804.284	236
805.793	222
807.302	206
808.81	198
810.318	182
811.826	190
813.333	176
814.84	172
816.346	172
817.851	156
819.357	136
820.862	128
822.367	124
823.871	132
825.376	126
826.878	130
828.382	118
829.885	128
831.387	128
832.889	136
834.391	134
835.892	146
837.392	148
838.893	166
840.393	158
841.893	178
843.392	172
844.891	178
846.389	158
847.888	156
849.386	154
850.882	142
852.38	138
853.876	142
855.372	128
856.868	142
858.363	134
859.858	122
861.353	132
862.847	132
864.341	142
865.834	144
867.328	136
868.82	138
870.313	130
871.805	132
873.296	140
874.787	132
876.278	130
877.769	136
879.258	124
880.748	126
882.237	128
883.726	126
885.214	126
886.702	122
888.19	116
889.677	106
891.164	126
892.651	132
894.137	128
895.623	140
897.108	124
898.593	148
900.077	144
901.562	156
903.046	160
904.529	150
906.012	150
907.495	156
908.977	146
910.459	150
911.941	138
913.422	136
914.903	128
916.383	122
917.863	118
919.343	114
920.822	112
922.301	108
923.779	94
925.257	104
926.735	112
928.213	98
929.69	100
931.166	90
932.643	106
934.119	108
935.594	108
937.069	116
938.543	106
940.018	128
941.492	110
942.966	114
944.439	110
945.911	122
947.384	116
948.856	110
950.328	110
951.799	112
953.27	104
954.741	114
956.21	116
957.68	116
959.15	120
960.619	126
962.088	130
963.556	130
965.023	140
966.491	142
967.958	134
969.425	136
970.891	140
972.357	138
973.824	142
975.288	144
976.754	172
978.218	182
979.682	192
981.146	218
982.609	226
984.072	256
985.534	274
986.997	326
988.459	424
989.92	594
991.382	786
992.842	840
994.302	804
995.763	882
997.222	1224
998.681	1964
1000.14	2918
1001.6	3366
1003.06	2924
1004.52	1990
1005.97	1198
1007.43	712
1008.89	454
1010.34	326
1011.8	258
1013.25	224
1014.71	192
1016.16	196
1017.62	194
1019.07	210
1020.53	216
1021.98	264
1023.43	326
1024.89	396
1026.34	508
1027.79	642
1029.24	776
1030.69	892
1032.14	900
1033.59	798
1035.04	688
1036.49	526
1037.94	412
1039.39	318
1040.84	266
1042.29	240
1043.73	226
1045.18	194
1046.63	186
1048.08	174
1049.52	164
1050.97	166
1052.41	162
1053.86	164
1055.3	156
1056.75	166
1058.19	160
1059.64	160
1061.08	164
1062.52	170
1063.96	168
1065.41	172
1066.85	184
1068.29	162
1069.73	174
1071.17	186
1072.61	182
1074.05	176
1075.49	174
1076.93	170
1078.37	172
1079.81	170
1081.25	186
1082.68	158
1084.12	160
1085.56	178
1087	168
1088.43	168
1089.87	174
1091.3	174
1092.74	166
1094.17	166
1095.61	162
1097.04	168
1098.48	164
1099.91	180
1101.34	166
1102.78	178
1104.21	166
1105.64	150
1107.07	142
1108.5	140
1109.93	142
1111.36	136
1112.8	134
1114.22	130
1115.65	132
1117.08	128
1118.51	128
1119.94	122
1121.37	108
1122.8	124
1124.22	106
1125.65	118
1127.08	104
1128.5	112
1129.93	114
1131.35	120
1132.78	112
1134.2	108
1135.63	120
1137.05	108
1138.48	122
1139.9	118
1141.32	144
1142.75	138
1144.17	138
1145.59	166
1147.01	176
1148.43	196
1149.85	226
1151.27	294
1152.69	348
1154.11	404
1155.53	396
1156.95	404
1158.37	336
1159.79	284
1161.21	246
1162.62	236
1164.04	208
1165.46	204
1166.87	198
1168.29	208
1169.71	210
1171.12	230
1172.54	242
1173.95	248
1175.37	308
1176.78	368
1178.19	412
1179.61	506
1181.02	532
1182.43	522
1183.84	488
1185.26	460
1186.67	440
1188.08	418
1189.49	444
1190.9	460
1192.31	474
1193.72	476
1195.13	510
1196.54	510
1197.95	488
1199.36	478
1200.76	484
1202.17	476
1203.58	444
1204.99	418
1206.39	380
1207.8	336
1209.2	324
1210.61	320
1212.01	268
1213.42	254
1214.82	236
1216.23	222
1217.63	214
1219.03	232
1220.44	218
1221.84	194
1223.24	206
1224.64	202
1226.05	190
1227.45	188
1228.85	188
1230.25	186
1231.65	174
1233.05	186
1234.45	174
1235.85	170
1237.25	162
1238.64	176
1240.04	170
1241.44	164
1242.84	166
1244.23	174
1245.63	158
1247.03	164
1248.42	174
1249.82	168
1251.21	168
1252.61	164
1254	164
1255.4	160
1256.79	170
1258.19	166
1259.58	162
1260.97	162
1262.36	168
1263.76	172
1265.15	182
1266.54	172
1267.93	176
1269.32	180
1270.71	174
1272.1	170
1273.49	178
1274.88	172
1276.27	170
1277.66	180
1279.05	172
1280.43	178
1281.82	178
1283.21	170
1284.6	174
1285.98	182
1287.37	182
1288.75	182
1290.14	174
1291.53	190
1292.91	194
1294.29	202
1295.68	210
1297.06	186
1298.45	210
1299.83	196
1301.21	234
1302.59	210
1303.98	212
1305.36	216
1306.74	234
1308.12	224
1309.5	238
1310.88	236
1312.26	228
1313.64	244
1315.02	228
1316.4	260
1317.78	252
1319.16	274
1320.53	270
1321.91	276
1323.29	280
1324.67	286
1326.04	300
1327.42	302
1328.79	300
1330.17	298
1331.54	288
1332.92	280
1334.29	286
1335.67	290
1337.04	280
1338.42	272
1339.79	276
1341.16	276
1342.53	274
1343.91	274
1345.28	266
1346.65	256
1348.02	272
1349.39	246
1350.76	258
1352.13	242
1353.5	262
1354.87	264
1356.24	264
1357.61	280
1358.98	278
1360.34	274
1361.71	280
1363.08	282
1364.45	268
1365.81	262
1367.18	284
1368.54	292
1369.91	282
1371.28	268
1372.64	272
1374.01	272
1375.37	268
1376.73	294
1378.1	290
1379.46	276
1380.82	256
1382.19	260
1383.55	270
1384.91	258
1386.27	246
1387.63	238
1388.99	246
1390.35	240
1391.71	236
1393.07	232
1394.43	236
1395.79	234
1397.15	234
1398.51	222
1399.87	228
1401.23	240
1402.58	236
1403.94	246
1405.3	236
1406.65	224
1408.01	234
1409.37	242
1410.72	230
1412.08	226
1413.43	224
1414.79	226
1416.14	230
1417.49	216
1418.85	204
1420.2	214
1421.55	208
1422.91	218
1424.26	214
1425.61	208
1426.96	218
1428.31	216
1429.66	216
1431.01	226
1432.36	228
1433.71	236
1435.06	240
1436.41	264
1437.76	272
1439.11	264
1440.46	280
1441.81	292
1443.15	306
1444.5	310
1445.85	328
1447.19	346
1448.54	330
1449.89	332
1451.23	326
1452.58	314
1453.92	318
1455.27	308
1456.61	266
1457.95	250
1459.3	232
1460.64	226
1461.98	222
1463.33	212
1464.67	194
1466.01	190
1467.35	194
1468.69	192
1470.03	192
1471.37	190
1472.71	184
1474.05	190
1475.39	194
1476.73	168
1478.07	180
1479.41	190
1480.75	168
1482.09	186
1483.42	180
1484.76	168
1486.1	188
1487.43	166
1488.77	170
1490.11	178
1491.44	186
1492.78	182
1494.11	200
1495.45	182
1496.78	178
1498.12	164
1499.45	166
1500.78	158
1502.11	168
1503.45	168
1504.78	170
1506.11	162
1507.44	170
1508.77	172
1510.11	166
1511.44	166
1512.77	160
1514.1	164
1515.43	170
1516.76	174
1518.08	170
1519.41	174
1520.74	160
1522.07	160
1523.4	168
1524.72	158
1526.05	160
1527.38	174
1528.7	166
1530.03	158
1531.36	152
1532.68	164
1534.01	162
1535.33	162
1536.66	162
1537.98	154
1539.3	166
1540.63	174
1541.95	154
1543.27	152
1544.6	156
1545.92	156
1547.24	162
1548.56	146
1549.88	162
1551.2	172
1552.52	156
1553.84	164
1555.17	156
1556.48	174
1557.8	160
1559.12	172
1560.44	172
1561.76	164
1563.08	162
1564.4	158
1565.71	164
1567.03	174
1568.35	178
1569.66	172
1570.98	184
1572.29	192
1573.61	204
1574.93	208
1576.24	226
1577.55	242
1578.87	284
1580.18	318
1581.5	380
1582.81	418
1584.12	394
1585.43	356
1586.75	308
1588.06	250
1589.37	258
1590.68	250
1591.99	260
1593.3	288
1594.61	300
1595.92	362
1597.23	428
1598.54	532
1599.85	620
1601.16	694
1602.47	708
1603.78	658
1605.08	538
1606.39	434
1607.7	406
1609	328
1610.31	278
1611.62	230
1612.92	230
1614.23	210
1615.53	218
1616.84	178
1618.14	186
1619.45	176
1620.75	172
1622.06	170
1623.36	172
1624.66	166
1625.96	160
1627.27	154
1628.57	164
1629.87	150
1631.17	152
1632.47	156
1633.77	144
1635.07	140
1636.37	154
1637.67	154
1638.97	152
1640.27	150
1641.57	154
1642.87	142
1644.17	150
1645.47	152
1646.76	156
1648.06	150
1649.36	164
1650.66	156
1651.95	150
1653.25	144
1654.54	140
1655.84	136
1657.13	144
1658.43	134
1659.72	138
1661.02	134
1662.31	138
1663.6	142
1664.9	136
1666.19	126
1667.48	130
1668.78	120
1670.07	136
1671.36	120
1672.65	124
1673.94	124
1675.23	126
1676.52	136
1677.81	138
1679.1	132
1680.39	130
1681.68	136
1682.97	138
1684.26	128
1685.55	130
1686.83	128
1688.12	120
1689.41	124
1690.7	120
1691.98	130
1693.27	112
1694.55	130
1695.84	116
1697.13	120
1698.41	132
1699.69	110
1700.98	130
1702.26	122