File: Mixture_Classification/Jesse_Dataset_v2/Pure Raman/Polystyrene/785nm/ps-ppo-6jan25-1,0000-map3_Y03_X08.txt
204.377	830
206.045	850
207.713	862
209.38	898
211.048	896
212.715	884
214.381	924
216.047	910
217.712	914
219.377	894
221.042	912
222.706	902
224.369	864
226.032	808
227.695	804
229.357	782
231.019	702
232.68	660
234.341	648
236.001	598
237.661	548
239.321	474
240.98	452
242.639	428
244.297	368
245.955	344
247.612	322
249.268	324
250.924	292
252.58	300
254.236	286
255.891	266
257.546	276
259.2	258
260.854	270
262.507	256
264.16	254
265.812	248
267.463	258
269.115	256
270.766	260
272.417	242
274.067	236
275.717	236
277.365	220
279.014	246
280.663	216
282.311	202
283.958	212
285.605	202
287.252	202
288.898	182
290.543	192
292.188	176
293.833	174
295.477	164
297.121	170
298.765	160
300.407	156
302.05	166
303.693	168
305.334	170
306.975	172
308.615	172
310.256	152
311.896	178
313.535	176
315.175	150
316.813	166
318.451	176
320.089	176
321.726	176
323.362	172
324.999	176
326.635	168
328.271	166
329.905	166
331.54	158
333.174	176
334.807	172
336.441	170
338.074	160
339.707	166
341.338	156
342.969	164
344.601	154
346.231	150
347.861	158
349.491	146
351.12	160
352.749	152
354.378	146
356.006	148
357.633	146
359.261	152
360.887	138
362.513	152
364.139	140
365.764	148
367.39	142
369.014	148
370.638	152
372.261	146
373.884	144
375.508	152
377.13	170
378.752	168
380.373	164
381.994	162
383.615	174
385.235	170
386.854	180
388.473	196
390.092	180
391.711	186
393.328	184
394.947	194
396.564	172
398.181	198
399.797	202
401.412	206
403.027	226
404.642	240
406.257	232
407.871	222
409.484	226
411.098	222
412.711	206
414.323	182
415.935	192
417.547	190
419.158	178
420.768	160
422.378	174
423.988	156
425.597	154
427.206	146
428.814	142
430.422	150
432.03	154
433.637	134
435.243	136
436.85	140
438.456	134
440.062	134
441.666	126
443.271	136
444.876	128
446.479	122
448.082	128
449.685	122
451.287	116
452.89	114
454.492	108
456.092	108
457.693	92
459.293	114
460.893	108
462.492	112
464.092	108
465.691	98
467.288	112
468.887	104
470.483	100
472.081	106
473.677	106
475.273	96
476.869	92
478.463	96
480.059	104
481.653	96
483.247	100
484.84	94
486.433	88
488.026	92
489.618	100
491.21	102
492.801	108
494.392	90
495.983	106
497.573	96
499.162	98
500.752	102
502.341	116
503.929	104
505.517	100
507.105	100
508.692	112
510.279	112
511.865	106
513.45	106
515.037	108
516.621	102
518.206	102
519.79	96
521.374	110
522.957	100
524.54	114
526.123	108
527.705	116
529.287	122
530.868	132
532.448	134
534.029	134
535.609	138
537.188	150
538.768	136
540.346	136
541.925	148
543.502	152
545.08	140
546.657	144
548.234	142
549.81	130
551.386	136
552.961	144
554.536	134
556.11	140
557.684	136
559.258	124
560.832	130
562.405	130
563.977	128
565.55	128
567.12	126
568.692	134
570.263	126
571.833	136
573.403	140
574.973	142
576.542	128
578.111	134
579.679	116
581.247	112
582.815	106
584.382	110
585.948	108
587.514	108
589.081	112
590.645	106
592.211	112
593.775	110
595.339	110
596.904	110
598.466	110
600.03	116
601.592	122
603.154	128
604.715	144
606.277	146
607.838	160
609.398	154
610.958	152
612.518	148
614.077	186
615.636	224
617.194	314
618.753	512
620.31	692
621.867	690
623.424	464
624.98	282
626.537	190
628.092	156
629.647	146
631.202	144
632.756	120
634.31	112
635.864	106
637.417	96
638.969	88
640.521	90
642.074	84
643.625	88
645.176	84
646.726	82
648.276	80
649.827	82
651.376	78
652.925	72
654.473	74
656.021	88
657.569	72
659.117	82
660.664	80
662.21	70
663.757	78
665.302	72
666.847	68
668.392	82
669.937	82
671.481	78
673.025	80
674.568	84
676.111	78
677.653	78
679.195	78
680.737	76
682.279	68
683.82	78
685.36	76
686.9	72
688.44	80
689.979	66
691.517	82
693.056	78
694.594	78
696.132	78
697.669	88
699.206	88
700.742	92
702.278	92
703.814	90
705.35	98
706.884	100
708.419	100
709.953	92
711.487	98
713.019	88
714.552	100
716.085	86
717.617	100
719.148	102
720.68	120
722.21	138
723.741	156
725.271	150
726.8	138
728.33	138
729.858	126
731.387	120
732.915	120
734.443	136
735.97	148
737.497	154
739.023	166
740.549	192
742.075	160
743.6	188
745.125	196
746.65	186
748.173	190
749.697	180
751.22	210
752.743	210
754.266	218
755.788	240
757.309	226
758.831	236
760.351	238
761.871	226
763.392	224
764.912	220
766.431	218
767.95	220
769.468	192
770.986	198
772.504	202
774.022	184
775.538	192
777.055	212
778.571	202
780.086	202
781.602	218
783.117	252
784.632	260
786.146	284
787.659	312
789.173	310
790.685	312
792.198	328
793.71	332
795.222	346
796.733	340
798.244	324
799.755	300
801.265	292
802.775	254
804.284	234
805.793	210
807.302	200
808.81	184
810.318	182
811.826	166
813.333	164
814.84	144
816.346	144
817.851	136
819.357	130
820.862	122
822.367	116
823.871	116
825.376	126
826.878	106
828.382	98
829.885	110
831.387	114
832.889	122
834.391	138
835.892	136
837.392	148
838.893	158
840.393	154
841.893	154
843.392	152
844.891	144
846.389	146
847.888	146
849.386	130
850.882	138
852.38	136
853.876	126
855.372	126
856.868	116
858.363	124
859.858	126
861.353	118
862.847	124
864.341	124
865.834	116
867.328	134
868.82	128
870.313	118
871.805	130
873.296	126
874.787	114
876.278	116
877.769	120
879.258	112
880.748	120
882.237	118
883.726	110
885.214	112
886.702	118
888.19	114
889.677	108
891.164	120
892.651	118
894.137	110
895.623	104
897.108	122
898.593	122
900.077	130
901.562	136
903.046	154
904.529	150
906.012	140
907.495	152
908.977	146
910.459	136
911.941	140
913.422	120
914.903	126
916.383	110
917.863	116
919.343	96
920.822	98
922.301	106
923.779	96
925.257	98
926.735	94
928.213	104
929.69	100
931.166	98
932.643	86
934.119	92
935.594	100
937.069	96
938.543	98
940.018	102
941.492	98
942.966	102
944.439	110
945.911	108
947.384	106
948.856	94
950.328	114
951.799	104
953.27	94
954.741	108
956.21	106
957.68	112
959.15	120
960.619	112
962.088	126
963.556	130
965.023	132
966.491	112
967.958	124
969.425	140
970.891	124
972.357	132
973.824	134
975.288	138
976.754	148
978.218	170
979.682	186
981.146	206
982.609	216
984.072	266
985.534	280
986.997	328
988.459	432
989.92	604
991.382	802
992.842	826
994.302	796
995.763	874
997.222	1226
998.681	1970
1000.14	2930
1001.6	3322
1003.06	2896
1004.52	1922
1005.97	1186
1007.43	728
1008.89	450
1010.34	320
1011.8	242
1013.25	204
1014.71	194
1016.16	194
1017.62	184
1019.07	204
1020.53	212
1021.98	258
1023.43	324
1024.89	372
1026.34	486
1027.79	656
1029.24	758
1030.69	852
1032.14	926
1033.59	844
1035.04	686
1036.49	530
1037.94	408
1039.39	310
1040.84	274
1042.29	240
1043.73	212
1045.18	194
1046.63	178
1048.08	168
1049.52	162
1050.97	160
1052.41	160
1053.86	148
1055.3	152
1056.75	148
1058.19	160
1059.64	156
1061.08	152
1062.52	176
1063.96	176
1065.41	172
1066.85	170
1068.29	172
1069.73	192
1071.17	170
1072.61	192
1074.05	178
1075.49	184
1076.93	174
1078.37	160
1079.81	160
1081.25	162
1082.68	178
1084.12	176
1085.56	168
1087	160
1088.43	158
1089.87	174
1091.3	156
1092.74	164
1094.17	176
1095.61	180
1097.04	168
1098.48	180
1099.91	174
1101.34	164
1102.78	170
1104.21	154
1105.64	148
1107.07	152
1108.5	140
1109.93	134
1111.36	134
1112.8	136
1114.22	126
1115.65	138
1117.08	128
1118.51	120
1119.94	118
1121.37	112
1122.8	114
1124.22	122
1125.65	122
1127.08	114
1128.5	102
1129.93	112
1131.35	112
1132.78	108
1134.2	108
1135.63	108
1137.05	130
1138.48	124
1139.9	128
1141.32	138
1142.75	144
1144.17	150
1145.59	156
1147.01	174
1148.43	204
1149.85	232
1151.27	290
1152.69	380
1154.11	418
1155.53	422
1156.95	388
1158.37	356
1159.79	286
1161.21	246
1162.62	228
1164.04	210
1165.46	212
1166.87	196
1168.29	216
1169.71	220
1171.12	214
1172.54	240
1173.95	268
1175.37	302
1176.78	354
1178.19	430
1179.61	496
1181.02	530
1182.43	506
1183.84	502
1185.26	480
1186.67	442
1188.08	436
1189.49	450
1190.9	466
1192.31	476
1193.72	522
1195.13	522
1196.54	516
1197.95	496
1199.36	488
1200.76	502
1202.17	452
1203.58	448
1204.99	408
1206.39	382
1207.8	336
1209.2	324
1210.61	296
1212.01	270
1213.42	262
1214.82	240
1216.23	238
1217.63	210
1219.03	212
1220.44	212
1221.84	198
1223.24	210
1224.64	208
1226.05	198
1227.45	196
1228.85	196
1230.25	188
1231.65	188
1233.05	174
1234.45	174
1235.85	176
1237.25	184
1238.64	176
1240.04	174
1241.44	182
1242.84	184
1244.23	180
1245.63	178
1247.03	166
1248.42	172
1249.82	170
1251.21	168
1252.61	166
1254	160
1255.4	174
1256.79	172
1258.19	182
1259.58	172
1260.97	158
1262.36	172
1263.76	176
1265.15	176
1266.54	174
1267.93	178
1269.32	166
1270.71	178
1272.1	176
1273.49	184
1274.88	180
1276.27	172
1277.66	176
1279.05	174
1280.43	188
1281.82	182
1283.21	170
1284.6	188
1285.98	188
1287.37	174
1288.75	184
1290.14	184
1291.53	184
1292.91	192
1294.29	202
1295.68	188
1297.06	208
1298.45	206
1299.83	210
1301.21	210
1302.59	206
1303.98	228
1305.36	228
1306.74	232
1308.12	224
1309.5	240
1310.88	236
1312.26	226
1313.64	250
1315.02	244
1316.4	250
1317.78	268
1319.16	262
1320.53	274
1321.91	276
1323.29	290
1324.67	286
1326.04	282
1327.42	292
1328.79	296
1330.17	308
1331.54	324
1332.92	306
1334.29	300
1335.67	298
1337.04	292
1338.42	298
1339.79	288
1341.16	272
1342.53	272
1343.91	270
1345.28	260
1346.65	260
1348.02	256
1349.39	272
1350.76	266
1352.13	272
1353.5	276
1354.87	274
1356.24	274
1357.61	276
1358.98	266
1360.34	272
1361.71	278
1363.08	278
1364.45	280
1365.81	272
1367.18	280
1368.54	296
1369.91	288
1371.28	280
1372.64	286
1374.01	284
1375.37	274
1376.73	286
1378.1	270
1379.46	282
1380.82	264
1382.19	278
1383.55	252
1384.91	240
1386.27	248
1387.63	250
1388.99	244
1390.35	238
1391.71	234
1393.07	246
1394.43	242
1395.79	228
1397.15	240
1398.51	250
1399.87	242
1401.23	238
1402.58	228
1403.94	238
1405.3	228
1406.65	238
1408.01	224
1409.37	226
1410.72	232
1412.08	230
1413.43	216
1414.79	222
1416.14	216
1417.49	234
1418.85	232
1420.2	216
1421.55	230
1422.91	198
1424.26	208
1425.61	210
1426.96	224
1428.31	224
1429.66	222
1431.01	222
1432.36	238
1433.71	226
1435.06	264
1436.41	256
1437.76	258
1439.11	294
1440.46	282
1441.81	302
1443.15	308
1444.5	300
1445.85	340
1447.19	348
1448.54	340
1449.89	348
1451.23	342
1452.58	334
1453.92	316
1455.27	300
1456.61	264
1457.95	256
1459.3	248
1460.64	232
1461.98	220
1463.33	228
1464.67	206
1466.01	188
1467.35	196
1468.69	202
1470.03	188
1471.37	202
1472.71	202
1474.05	188
1475.39	184
1476.73	178
1478.07	182
1479.41	184
1480.75	190
1482.09	198
1483.42	190
1484.76	186
1486.1	186
1487.43	178
1488.77	184
1490.11	178
1491.44	184
1492.78	196
1494.11	182
1495.45	192
1496.78	170
1498.12	186
1499.45	186
1500.78	170
1502.11	176
1503.45	168
1504.78	162
1506.11	176
1507.44	170
1508.77	182
1510.11	168
1511.44	166
1512.77	170
1514.1	176
1515.43	168
1516.76	174
1518.08	182
1519.41	164
1520.74	174
1522.07	162
1523.4	152
1524.72	158
1526.05	154
1527.38	164
1528.7	180
1530.03	174
1531.36	164
1532.68	168
1534.01	160
1535.33	170
1536.66	162
1537.98	176
1539.3	168
1540.63	152
1541.95	168
1543.27	162
1544.6	172
1545.92	164
1547.24	156
1548.56	176
1549.88	158
1551.2	162
1552.52	168
1553.84	170
1555.17	164
1556.48	154
1557.8	156
1559.12	172
1560.44	170
1561.76	166
1563.08	176
1564.4	172
1565.71	180
1567.03	182
1568.35	182
1569.66	168
1570.98	186
1572.29	186
1573.61	200
1574.93	206
1576.24	220
1577.55	240
1578.87	272
1580.18	316
1581.5	392
1582.81	426
1584.12	392
1585.43	364
1586.75	312
1588.06	268
1589.37	254
1590.68	264
1591.99	256
1593.3	290
1594.61	332
1595.92	362
1597.23	422
1598.54	542
1599.85	628
1601.16	680
1602.47	706
1603.78	648
1605.08	566
1606.39	474
1607.7	362
1609	320
1610.31	258
1611.62	248
1612.92	222
1614.23	202
1615.53	204
1616.84	184
1618.14	186
1619.45	186
1620.75	180
1622.06	178
1623.36	154
1624.66	180
1625.96	162
1627.27	162
1628.57	150
1629.87	154
1631.17	150
1632.47	154
1633.77	156
1635.07	164
1636.37	158
1637.67	150
1638.97	154
1640.27	156
1641.57	156
1642.87	154
1644.17	164
1645.47	162
1646.76	140
1648.06	154
1649.36	154
1650.66	154
1651.95	140
1653.25	134
1654.54	148
1655.84	142
1657.13	138
1658.43	130
1659.72	136
1661.02	136
1662.31	138
1663.6	134
1664.9	134
1666.19	136
1667.48	130
1668.78	128
1670.07	130
1671.36	130
1672.65	122
1673.94	136
1675.23	126
1676.52	132
1677.81	132
1679.1	146
1680.39	126
1681.68	134
1682.97	130
1684.26	126
1685.55	130
1686.83	120
1688.12	128
1689.41	130
1690.7	120
1691.98	134
1693.27	126
1694.55	126
1695.84	126
1697.13	120
1698.41	118
1699.69	126
1700.98	128
1702.26	124