File: Mixture_Classification/Jesse_Dataset_v2/Pure Raman/Polystyrene/785nm/ps-ppo-6jan25-1,0000-map3_Y04_X08.txt
204.377	852
206.045	838
207.713	862
209.38	880
211.048	884
212.715	890
214.381	886
216.047	910
217.712	888
219.377	924
221.042	934
222.706	890
224.369	872
226.032	858
227.695	802
229.357	750
231.019	712
232.68	666
234.341	610
236.001	588
237.661	550
239.321	502
240.98	460
242.639	398
244.297	396
245.955	348
247.612	336
249.268	338
250.924	300
252.58	312
254.236	276
255.891	284
257.546	286
259.2	266
260.854	274
262.507	262
264.16	278
265.812	270
267.463	258
269.115	244
270.766	236
272.417	240
274.067	230
275.717	228
277.365	228
279.014	228
280.663	224
282.311	212
283.958	206
285.605	206
287.252	210
288.898	196
290.543	200
292.188	178
293.833	194
295.477	186
297.121	166
298.765	168
300.407	166
302.05	170
303.693	162
305.334	172
306.975	168
308.615	174
310.256	168
311.896	170
313.535	170
315.175	168
316.813	170
318.451	172
320.089	158
321.726	156
323.362	172
324.999	166
326.635	178
328.271	162
329.905	176
331.54	178
333.174	162
334.807	166
336.441	162
338.074	164
339.707	156
341.338	166
342.969	144
344.601	158
346.231	164
347.861	152
349.491	146
351.12	148
352.749	144
354.378	150
356.006	146
357.633	154
359.261	150
360.887	154
362.513	148
364.139	144
365.764	150
367.39	148
369.014	164
370.638	146
372.261	162
373.884	146
375.508	166
377.13	158
378.752	170
380.373	158
381.994	170
383.615	180
385.235	176
386.854	176
388.473	182
390.092	190
391.711	192
393.328	178
394.947	184
396.564	190
398.181	196
399.797	202
401.412	204
403.027	230
404.642	240
406.257	238
407.871	224
409.484	226
411.098	210
412.711	206
414.323	190
415.935	194
417.547	168
419.158	170
420.768	172
422.378	158
423.988	144
425.597	170
427.206	156
428.814	154
430.422	148
432.03	148
433.637	146
435.243	130
436.85	140
438.456	132
440.062	130
441.666	138
443.271	142
444.876	134
446.479	132
448.082	140
449.685	122
451.287	118
452.89	118
454.492	126
456.092	116
457.693	110
459.293	102
460.893	104
462.492	102
464.092	114
465.691	104
467.288	104
468.887	92
470.483	110
472.081	110
473.677	102
475.273	98
476.869	104
478.463	102
480.059	100
481.653	102
483.247	90
484.84	102
486.433	100
488.026	98
489.618	98
491.21	108
492.801	96
494.392	96
495.983	100
497.573	98
499.162	108
500.752	114
502.341	112
503.929	98
505.517	110
507.105	102
508.692	108
510.279	102
511.865	104
513.45	100
515.037	108
516.621	114
518.206	108
519.79	112
521.374	120
522.957	114
524.54	118
526.123	116
527.705	112
529.287	124
530.868	124
532.448	138
534.029	142
535.609	138
537.188	144
538.768	140
540.346	148
541.925	150
543.502	138
545.08	148
546.657	140
548.234	144
549.81	146
551.386	140
552.961	144
554.536	134
556.11	128
557.684	138
559.258	140
560.832	130
562.405	128
563.977	134
565.55	134
567.12	144
568.692	136
570.263	138
571.833	136
573.403	136
574.973	142
576.542	126
578.111	120
579.679	118
581.247	108
582.815	120
584.382	118
585.948	114
587.514	118
589.081	110
590.645	118
592.211	108
593.775	110
595.339	114
596.904	114
598.466	114
600.03	110
601.592	118
603.154	122
604.715	134
606.277	132
607.838	140
609.398	146
610.958	152
612.518	158
614.077	184
615.636	214
617.194	318
618.753	502
620.31	722
621.867	694
623.424	456
624.98	274
626.537	198
628.092	166
629.647	142
631.202	148
632.756	126
634.31	118
635.864	108
637.417	94
638.969	104
640.521	86
642.074	82
643.625	96
645.176	84
646.726	74
648.276	80
649.827	84
651.376	78
652.925	80
654.473	78
656.021	80
657.569	80
659.117	74
660.664	84
662.21	84
663.757	68
665.302	78
666.847	80
668.392	76
669.937	76
671.481	82
673.025	78
674.568	78
676.111	68
677.653	76
679.195	78
680.737	76
682.279	74
683.82	74
685.36	76
686.9	74
688.44	78
689.979	74
691.517	86
693.056	78
694.594	80
696.132	80
697.669	90
699.206	84
700.742	94
702.278	94
703.814	94
705.35	96
706.884	96
708.419	106
709.953	98
711.487	100
713.019	90
714.552	94
716.085	88
717.617	100
719.148	102
720.68	112
722.21	130
723.741	146
725.271	138
726.8	142
728.33	136
729.858	124
731.387	134
732.915	132
734.443	134
735.97	144
737.497	164
739.023	174
740.549	194
742.075	200
743.6	188
745.125	178
746.65	182
748.173	190
749.697	190
751.22	182
752.743	200
754.266	222
755.788	226
757.309	240
758.831	240
760.351	244
761.871	242
763.392	224
764.912	222
766.431	226
767.95	208
769.468	182
770.986	206
772.504	190
774.022	200
775.538	202
777.055	202
778.571	208
780.086	222
781.602	216
783.117	224
784.632	264
786.146	276
787.659	288
789.173	294
790.685	326
792.198	326
793.71	324
795.222	342
796.733	352
798.244	330
799.755	312
801.265	280
802.775	242
804.284	222
805.793	204
807.302	190
808.81	188
810.318	190
811.826	184
813.333	154
814.84	146
816.346	134
817.851	134
819.357	122
820.862	120
822.367	120
823.871	104
825.376	118
826.878	108
828.382	102
829.885	112
831.387	114
832.889	120
834.391	110
835.892	130
837.392	156
838.893	162
840.393	158
841.893	164
843.392	158
844.891	150
846.389	146
847.888	144
849.386	134
850.882	138
852.38	124
853.876	138
855.372	124
856.868	126
858.363	118
859.858	128
861.353	132
862.847	122
864.341	122
865.834	128
867.328	122
868.82	126
870.313	124
871.805	126
873.296	120
874.787	112
876.278	122
877.769	114
879.258	114
880.748	114
882.237	122
883.726	116
885.214	116
886.702	122
888.19	118
889.677	118
891.164	106
892.651	104
894.137	116
895.623	120
897.108	122
898.593	124
900.077	128
901.562	136
903.046	138
904.529	160
906.012	148
907.495	156
908.977	144
910.459	134
911.941	124
913.422	134
914.903	124
916.383	110
917.863	106
919.343	94
920.822	100
922.301	94
923.779	96
925.257	98
926.735	90
928.213	108
929.69	100
931.166	106
932.643	96
934.119	96
935.594	98
937.069	102
938.543	96
940.018	104
941.492	108
942.966	100
944.439	118
945.911	106
947.384	94
948.856	98
950.328	106
951.799	102
953.27	92
954.741	98
956.21	104
957.68	102
959.15	108
960.619	122
962.088	118
963.556	118
965.023	124
966.491	126
967.958	124
969.425	122
970.891	136
972.357	134
973.824	128
975.288	148
976.754	166
978.218	176
979.682	188
981.146	206
982.609	216
984.072	250
985.534	274
986.997	314
988.459	412
989.92	608
991.382	778
992.842	864
994.302	774
995.763	840
997.222	1196
998.681	1946
1000.14	2916
1001.6	3324
1003.06	2836
1004.52	1972
1005.97	1150
1007.43	676
1008.89	422
1010.34	314
1011.8	270
1013.25	214
1014.71	182
1016.16	184
1017.62	198
1019.07	204
1020.53	218
1021.98	246
1023.43	312
1024.89	378
1026.34	486
1027.79	638
1029.24	784
1030.69	876
1032.14	922
1033.59	812
1035.04	676
1036.49	504
1037.94	414
1039.39	326
1040.84	280
1042.29	236
1043.73	204
1045.18	186
1046.63	180
1048.08	164
1049.52	174
1050.97	146
1052.41	148
1053.86	162
1055.3	164
1056.75	156
1058.19	156
1059.64	168
1061.08	174
1062.52	172
1063.96	152
1065.41	156
1066.85	170
1068.29	178
1069.73	178
1071.17	166
1072.61	176
1074.05	180
1075.49	146
1076.93	166
1078.37	172
1079.81	170
1081.25	172
1082.68	156
1084.12	168
1085.56	176
1087	184
1088.43	166
1089.87	168
1091.3	156
1092.74	186
1094.17	170
1095.61	156
1097.04	170
1098.48	168
1099.91	162
1101.34	176
1102.78	162
1104.21	158
1105.64	156
1107.07	142
1108.5	134
1109.93	146
1111.36	144
1112.8	138
1114.22	134
1115.65	124
1117.08	122
1118.51	118
1119.94	106
1121.37	100
1122.8	108
1124.22	106
1125.65	106
1127.08	102
1128.5	114
1129.93	110
1131.35	112
1132.78	110
1134.2	96
1135.63	116
1137.05	108
1138.48	124
1139.9	124
1141.32	130
1142.75	140
1144.17	136
1145.59	162
1147.01	180
1148.43	188
1149.85	230
1151.27	298
1152.69	358
1154.11	402
1155.53	434
1156.95	382
1158.37	340
1159.79	288
1161.21	262
1162.62	224
1164.04	210
1165.46	190
1166.87	202
1168.29	194
1169.71	214
1171.12	226
1172.54	242
1173.95	282
1175.37	292
1176.78	362
1178.19	420
1179.61	486
1181.02	536
1182.43	534
1183.84	516
1185.26	466
1186.67	450
1188.08	418
1189.49	452
1190.9	462
1192.31	490
1193.72	512
1195.13	492
1196.54	522
1197.95	516
1199.36	532
1200.76	478
1202.17	494
1203.58	446
1204.99	408
1206.39	374
1207.8	338
1209.2	322
1210.61	284
1212.01	266
1213.42	258
1214.82	242
1216.23	234
1217.63	216
1219.03	208
1220.44	204
1221.84	196
1223.24	202
1224.64	222
1226.05	194
1227.45	190
1228.85	182
1230.25	196
1231.65	190
1233.05	176
1234.45	170
1235.85	178
1237.25	174
1238.64	156
1240.04	164
1241.44	172
1242.84	188
1244.23	176
1245.63	168
1247.03	182
1248.42	174
1249.82	164
1251.21	164
1252.61	164
1254	158
1255.4	164
1256.79	166
1258.19	160
1259.58	170
1260.97	178
1262.36	170
1263.76	184
1265.15	182
1266.54	184
1267.93	176
1269.32	160
1270.71	168
1272.1	178
1273.49	174
1274.88	156
1276.27	170
1277.66	174
1279.05	156
1280.43	168
1281.82	180
1283.21	180
1284.6	180
1285.98	182
1287.37	192
1288.75	188
1290.14	180
1291.53	226
1292.91	196
1294.29	198
1295.68	214
1297.06	214
1298.45	212
1299.83	200
1301.21	224
1302.59	214
1303.98	222
1305.36	224
1306.74	232
1308.12	222
1309.5	224
1310.88	238
1312.26	242
1313.64	218
1315.02	248
1316.4	258
1317.78	258
1319.16	264
1320.53	274
1321.91	268
1323.29	272
1324.67	276
1326.04	282
1327.42	298
1328.79	306
1330.17	314
1331.54	304
1332.92	304
1334.29	300
1335.67	286
1337.04	288
1338.42	284
1339.79	272
1341.16	282
1342.53	268
1343.91	280
1345.28	274
1346.65	276
1348.02	256
1349.39	276
1350.76	264
1352.13	258
1353.5	280
1354.87	274
1356.24	276
1357.61	290
1358.98	276
1360.34	274
1361.71	282
1363.08	282
1364.45	282
1365.81	290
1367.18	278
1368.54	286
1369.91	290
1371.28	270
1372.64	292
1374.01	300
1375.37	286
1376.73	260
1378.1	278
1379.46	268
1380.82	272
1382.19	276
1383.55	272
1384.91	266
1386.27	254
1387.63	254
1388.99	240
1390.35	242
1391.71	248
1393.07	246
1394.43	234
1395.79	238
1397.15	258
1398.51	248
1399.87	226
1401.23	242
1402.58	242
1403.94	244
1405.3	248
1406.65	246
1408.01	238
1409.37	228
1410.72	236
1412.08	206
1413.43	226
1414.79	236
1416.14	230
1417.49	234
1418.85	218
1420.2	214
1421.55	224
1422.91	222
1424.26	232
1425.61	212
1426.96	224
1428.31	230
1429.66	220
1431.01	230
1432.36	242
1433.71	250
1435.06	254
1436.41	266
1437.76	286
1439.11	280
1440.46	272
1441.81	300
1443.15	318
1444.5	322
1445.85	332
1447.19	346
1448.54	342
1449.89	328
1451.23	326
1452.58	322
1453.92	334
1455.27	296
1456.61	262
1457.95	262
1459.3	234
1460.64	210
1461.98	226
1463.33	218
1464.67	220
1466.01	200
1467.35	210
1468.69	192
1470.03	200
1471.37	186
1472.71	194
1474.05	200
1475.39	192
1476.73	186
1478.07	180
1479.41	198
1480.75	192
1482.09	194
1483.42	178
1484.76	174
1486.1	192
1487.43	184
1488.77	192
1490.11	182
1491.44	182
1492.78	188
1494.11	184
1495.45	198
1496.78	200
1498.12	192
1499.45	174
1500.78	168
1502.11	166
1503.45	164
1504.78	184
1506.11	164
1507.44	176
1508.77	178
1510.11	174
1511.44	172
1512.77	168
1514.1	160
1515.43	164
1516.76	162
1518.08	178
1519.41	166
1520.74	166
1522.07	170
1523.4	154
1524.72	170
1526.05	172
1527.38	164
1528.7	166
1530.03	168
1531.36	166
1532.68	154
1534.01	156
1535.33	172
1536.66	156
1537.98	166
1539.3	168
1540.63	164
1541.95	174
1543.27	164
1544.6	172
1545.92	158
1547.24	172
1548.56	166
1549.88	158
1551.2	154
1552.52	162
1553.84	170
1555.17	154
1556.48	154
1557.8	166
1559.12	168
1560.44	170
1561.76	172
1563.08	154
1564.4	170
1565.71	178
1567.03	180
1568.35	182
1569.66	180
1570.98	184
1572.29	190
1573.61	204
1574.93	204
1576.24	228
1577.55	222
1578.87	276
1580.18	324
1581.5	392
1582.81	406
1584.12	400
1585.43	358
1586.75	306
1588.06	278
1589.37	248
1590.68	258
1591.99	256
1593.3	286
1594.61	322
1595.92	352
1597.23	424
1598.54	526
1599.85	616
1601.16	710
1602.47	694
1603.78	650
1605.08	554
1606.39	478
1607.7	374
1609	318
1610.31	290
1611.62	256
1612.92	232
1614.23	218
1615.53	202
1616.84	184
1618.14	184
1619.45	176
1620.75	194
1622.06	174
1623.36	180
1624.66	168
1625.96	170
1627.27	154
1628.57	154
1629.87	164
1631.17	150
1632.47	144
1633.77	150
1635.07	146
1636.37	148
1637.67	152
1638.97	160
1640.27	152
1641.57	158
1642.87	156
1644.17	162
1645.47	166
1646.76	164
1648.06	150
1649.36	144
1650.66	158
1651.95	148
1653.25	144
1654.54	142
1655.84	142
1657.13	138
1658.43	132
1659.72	142
1661.02	130
1662.31	140
1663.6	136
1664.9	134
1666.19	140
1667.48	134
1668.78	126
1670.07	146
1671.36	136
1672.65	138
1673.94	142
1675.23	126
1676.52	136
1677.81	122
1679.1	130
1680.39	134
1681.68	134
1682.97	134
1684.26	120
1685.55	136
1686.83	128
1688.12	118
1689.41	130
1690.7	126
1691.98	128
1693.27	122
1694.55	128
1695.84	122
1697.13	124
1698.41	124
1699.69	124
1700.98	122
1702.26	120