File: Mixture_Classification/Jesse_Dataset_v2/Pure Raman/Polystyrene/785nm/ps-ppo-6jan25-1,0000-map3_Y06_X01.txt
204.377	824
206.045	842
207.713	830
209.38	854
211.048	872
212.715	888
214.381	902
216.047	908
217.712	906
219.377	912
221.042	872
222.706	894
224.369	878
226.032	844
227.695	810
229.357	790
231.019	728
232.68	680
234.341	628
236.001	588
237.661	560
239.321	502
240.98	440
242.639	396
244.297	384
245.955	348
247.612	332
249.268	334
250.924	298
252.58	294
254.236	292
255.891	286
257.546	280
259.2	256
260.854	252
262.507	262
264.16	258
265.812	258
267.463	248
269.115	262
270.766	240
272.417	230
274.067	238
275.717	228
277.365	226
279.014	236
280.663	226
282.311	202
283.958	212
285.605	192
287.252	184
288.898	190
290.543	182
292.188	188
293.833	184
295.477	182
297.121	170
298.765	176
300.407	172
302.05	160
303.693	162
305.334	158
306.975	172
308.615	162
310.256	174
311.896	156
313.535	190
315.175	168
316.813	176
318.451	160
320.089	168
321.726	174
323.362	166
324.999	152
326.635	164
328.271	162
329.905	162
331.54	168
333.174	164
334.807	166
336.441	166
338.074	164
339.707	158
341.338	154
342.969	160
344.601	154
346.231	152
347.861	154
349.491	142
351.12	144
352.749	146
354.378	134
356.006	142
357.633	144
359.261	138
360.887	146
362.513	140
364.139	152
365.764	152
367.39	146
369.014	148
370.638	148
372.261	142
373.884	156
375.508	168
377.13	160
378.752	170
380.373	170
381.994	158
383.615	180
385.235	176
386.854	180
388.473	180
390.092	184
391.711	186
393.328	188
394.947	190
396.564	186
398.181	198
399.797	194
401.412	230
403.027	234
404.642	226
406.257	236
407.871	224
409.484	216
411.098	218
412.711	202
414.323	202
415.935	168
417.547	182
419.158	174
420.768	164
422.378	160
423.988	166
425.597	160
427.206	146
428.814	142
430.422	142
432.03	144
433.637	144
435.243	148
436.85	146
438.456	136
440.062	136
441.666	130
443.271	130
444.876	126
446.479	132
448.082	124
449.685	124
451.287	110
452.89	106
454.492	102
456.092	112
457.693	104
459.293	106
460.893	104
462.492	100
464.092	102
465.691	98
467.288	114
468.887	108
470.483	114
472.081	100
473.677	92
475.273	98
476.869	96
478.463	104
480.059	104
481.653	94
483.247	102
484.84	96
486.433	90
488.026	98
489.618	94
491.21	92
492.801	92
494.392	100
495.983	90
497.573	106
499.162	104
500.752	106
502.341	108
503.929	104
505.517	106
507.105	108
508.692	110
510.279	96
511.865	108
513.45	112
515.037	100
516.621	114
518.206	108
519.79	110
521.374	110
522.957	110
524.54	112
526.123	112
527.705	122
529.287	126
530.868	124
532.448	132
534.029	128
535.609	140
537.188	138
538.768	140
540.346	138
541.925	156
543.502	146
545.08	134
546.657	140
548.234	138
549.81	142
551.386	140
552.961	138
554.536	130
556.11	140
557.684	132
559.258	138
560.832	128
562.405	128
563.977	126
565.55	146
567.12	122
568.692	136
570.263	146
571.833	130
573.403	134
574.973	140
576.542	120
578.111	126
579.679	110
581.247	106
582.815	112
584.382	110
585.948	116
587.514	106
589.081	104
590.645	110
592.211	106
593.775	108
595.339	116
596.904	100
598.466	110
600.03	112
601.592	114
603.154	116
604.715	128
606.277	150
607.838	150
609.398	140
610.958	144
612.518	160
614.077	176
615.636	218
617.194	322
618.753	534
620.31	706
621.867	710
623.424	444
624.98	288
626.537	198
628.092	162
629.647	146
631.202	142
632.756	120
634.31	112
635.864	112
637.417	100
638.969	92
640.521	86
642.074	88
643.625	86
645.176	92
646.726	80
648.276	84
649.827	76
651.376	74
652.925	70
654.473	74
656.021	80
657.569	74
659.117	76
660.664	72
662.21	80
663.757	76
665.302	72
666.847	74
668.392	76
669.937	76
671.481	80
673.025	70
674.568	78
676.111	78
677.653	78
679.195	74
680.737	68
682.279	76
683.82	72
685.36	78
686.9	78
688.44	78
689.979	80
691.517	84
693.056	80
694.594	76
696.132	84
697.669	88
699.206	90
700.742	96
702.278	94
703.814	100
705.35	102
706.884	96
708.419	100
709.953	92
711.487	104
713.019	96
714.552	90
716.085	102
717.617	102
719.148	96
720.68	118
722.21	140
723.741	146
725.271	142
726.8	142
728.33	130
729.858	124
731.387	124
732.915	122
734.443	132
735.97	146
737.497	164
739.023	178
740.549	170
742.075	178
743.6	182
745.125	186
746.65	190
748.173	184
749.697	202
751.22	210
752.743	196
754.266	214
755.788	226
757.309	228
758.831	228
760.351	240
761.871	234
763.392	222
764.912	230
766.431	216
767.95	206
769.468	188
770.986	198
772.504	196
774.022	196
775.538	200
777.055	192
778.571	212
780.086	198
781.602	216
783.117	252
784.632	252
786.146	286
787.659	290
789.173	306
790.685	314
792.198	346
793.71	342
795.222	322
796.733	340
798.244	334
799.755	324
801.265	286
802.775	242
804.284	224
805.793	206
807.302	188
808.81	196
810.318	174
811.826	170
813.333	166
814.84	160
816.346	146
817.851	132
819.357	132
820.862	116
822.367	112
823.871	116
825.376	118
826.878	118
828.382	100
829.885	106
831.387	118
832.889	118
834.391	132
835.892	128
837.392	144
838.893	154
840.393	138
841.893	158
843.392	160
844.891	144
846.389	136
847.888	146
849.386	132
850.882	134
852.38	128
853.876	126
855.372	128
856.868	134
858.363	120
859.858	134
861.353	126
862.847	130
864.341	116
865.834	128
867.328	132
868.82	108
870.313	108
871.805	124
873.296	130
874.787	120
876.278	110
877.769	118
879.258	112
880.748	116
882.237	104
883.726	118
885.214	116
886.702	112
888.19	104
889.677	112
891.164	100
892.651	116
894.137	108
895.623	120
897.108	118
898.593	130
900.077	136
901.562	130
903.046	146
904.529	154
906.012	148
907.495	144
908.977	136
910.459	144
911.941	126
913.422	118
914.903	118
916.383	114
917.863	102
919.343	100
920.822	102
922.301	102
923.779	102
925.257	88
926.735	104
928.213	92
929.69	100
931.166	94
932.643	94
934.119	98
935.594	108
937.069	88
938.543	100
940.018	100
941.492	92
942.966	104
944.439	102
945.911	96
947.384	100
948.856	106
950.328	96
951.799	102
953.27	104
954.741	94
956.21	100
957.68	110
959.15	110
960.619	110
962.088	126
963.556	130
965.023	124
966.491	124
967.958	124
969.425	116
970.891	132
972.357	136
973.824	122
975.288	140
976.754	150
978.218	156
979.682	190
981.146	202
982.609	218
984.072	248
985.534	274
986.997	324
988.459	402
989.92	584
991.382	732
992.842	776
994.302	750
995.763	844
997.222	1204
998.681	1968
1000.14	2892
1001.6	3352
1003.06	2860
1004.52	1980
1005.97	1166
1007.43	680
1008.89	434
1010.34	318
1011.8	246
1013.25	192
1014.71	184
1016.16	178
1017.62	172
1019.07	188
1020.53	218
1021.98	246
1023.43	304
1024.89	390
1026.34	500
1027.79	636
1029.24	772
1030.69	872
1032.14	862
1033.59	842
1035.04	676
1036.49	520
1037.94	390
1039.39	328
1040.84	266
1042.29	232
1043.73	208
1045.18	190
1046.63	172
1048.08	148
1049.52	166
1050.97	152
1052.41	146
1053.86	166
1055.3	150
1056.75	150
1058.19	154
1059.64	150
1061.08	166
1062.52	148
1063.96	174
1065.41	172
1066.85	168
1068.29	170
1069.73	170
1071.17	182
1072.61	174
1074.05	162
1075.49	172
1076.93	174
1078.37	170
1079.81	168
1081.25	160
1082.68	168
1084.12	164
1085.56	174
1087	174
1088.43	162
1089.87	166
1091.3	162
1092.74	166
1094.17	168
1095.61	164
1097.04	174
1098.48	170
1099.91	160
1101.34	180
1102.78	170
1104.21	158
1105.64	150
1107.07	142
1108.5	136
1109.93	140
1111.36	116
1112.8	128
1114.22	122
1115.65	118
1117.08	112
1118.51	116
1119.94	110
1121.37	108
1122.8	108
1124.22	104
1125.65	102
1127.08	108
1128.5	106
1129.93	110
1131.35	108
1132.78	100
1134.2	96
1135.63	114
1137.05	126
1138.48	124
1139.9	120
1141.32	126
1142.75	142
1144.17	152
1145.59	160
1147.01	160
1148.43	194
1149.85	226
1151.27	294
1152.69	346
1154.11	426
1155.53	416
1156.95	394
1158.37	336
1159.79	300
1161.21	256
1162.62	218
1164.04	194
1165.46	198
1166.87	202
1168.29	212
1169.71	224
1171.12	224
1172.54	240
1173.95	264
1175.37	302
1176.78	352
1178.19	416
1179.61	460
1181.02	508
1182.43	520
1183.84	526
1185.26	484
1186.67	434
1188.08	420
1189.49	454
1190.9	452
1192.31	472
1193.72	496
1195.13	480
1196.54	506
1197.95	488
1199.36	506
1200.76	478
1202.17	468
1203.58	446
1204.99	392
1206.39	374
1207.8	354
1209.2	326
1210.61	312
1212.01	278
1213.42	248
1214.82	236
1216.23	230
1217.63	220
1219.03	202
1220.44	208
1221.84	178
1223.24	208
1224.64	196
1226.05	198
1227.45	180
1228.85	186
1230.25	184
1231.65	184
1233.05	170
1234.45	176
1235.85	166
1237.25	160
1238.64	168
1240.04	164
1241.44	184
1242.84	170
1244.23	158
1245.63	154
1247.03	174
1248.42	164
1249.82	166
1251.21	162
1252.61	166
1254	146
1255.4	174
1256.79	172
1258.19	160
1259.58	156
1260.97	170
1262.36	168
1263.76	172
1265.15	170
1266.54	166
1267.93	178
1269.32	176
1270.71	166
1272.1	154
1273.49	172
1274.88	174
1276.27	176
1277.66	178
1279.05	174
1280.43	166
1281.82	172
1283.21	184
1284.6	166
1285.98	178
1287.37	186
1288.75	180
1290.14	182
1291.53	194
1292.91	196
1294.29	206
1295.68	178
1297.06	202
1298.45	202
1299.83	206
1301.21	202
1302.59	208
1303.98	208
1305.36	214
1306.74	236
1308.12	218
1309.5	222
1310.88	222
1312.26	230
1313.64	228
1315.02	238
1316.4	246
1317.78	256
1319.16	250
1320.53	264
1321.91	274
1323.29	286
1324.67	276
1326.04	290
1327.42	286
1328.79	290
1330.17	296
1331.54	290
1332.92	288
1334.29	292
1335.67	280
1337.04	286
1338.42	280
1339.79	286
1341.16	272
1342.53	266
1343.91	256
1345.28	252
1346.65	270
1348.02	270
1349.39	250
1350.76	244
1352.13	262
1353.5	262
1354.87	254
1356.24	258
1357.61	274
1358.98	254
1360.34	266
1361.71	254
1363.08	252
1364.45	268
1365.81	276
1367.18	284
1368.54	258
1369.91	266
1371.28	280
1372.64	258
1374.01	256
1375.37	274
1376.73	268
1378.1	260
1379.46	256
1380.82	242
1382.19	260
1383.55	256
1384.91	242
1386.27	240
1387.63	230
1388.99	228
1390.35	230
1391.71	242
1393.07	228
1394.43	218
1395.79	232
1397.15	234
1398.51	234
1399.87	228
1401.23	226
1402.58	224
1403.94	224
1405.3	230
1406.65	230
1408.01	222
1409.37	204
1410.72	214
1412.08	212
1413.43	216
1414.79	218
1416.14	202
1417.49	208
1418.85	226
1420.2	200
1421.55	220
1422.91	206
1424.26	218
1425.61	206
1426.96	218
1428.31	220
1429.66	220
1431.01	222
1432.36	238
1433.71	234
1435.06	224
1436.41	254
1437.76	260
1439.11	286
1440.46	282
1441.81	302
1443.15	294
1444.5	296
1445.85	318
1447.19	332
1448.54	310
1449.89	318
1451.23	320
1452.58	326
1453.92	296
1455.27	290
1456.61	272
1457.95	244
1459.3	244
1460.64	222
1461.98	218
1463.33	204
1464.67	202
1466.01	186
1467.35	184
1468.69	182
1470.03	186
1471.37	184
1472.71	184
1474.05	174
1475.39	170
1476.73	186
1478.07	172
1479.41	182
1480.75	178
1482.09	192
1483.42	160
1484.76	152
1486.1	184
1487.43	180
1488.77	188
1490.11	180
1491.44	178
1492.78	178
1494.11	184
1495.45	178
1496.78	174
1498.12	180
1499.45	184
1500.78	164
1502.11	162
1503.45	158
1504.78	146
1506.11	170
1507.44	166
1508.77	156
1510.11	160
1511.44	160
1512.77	158
1514.1	150
1515.43	156
1516.76	162
1518.08	164
1519.41	158
1520.74	160
1522.07	160
1523.4	152
1524.72	164
1526.05	148
1527.38	160
1528.7	162
1530.03	146
1531.36	140
1532.68	162
1534.01	170
1535.33	152
1536.66	162
1537.98	158
1539.3	170
1540.63	156
1541.95	166
1543.27	170
1544.6	158
1545.92	164
1547.24	158
1548.56	156
1549.88	148
1551.2	166
1552.52	150
1553.84	164
1555.17	160
1556.48	158
1557.8	162
1559.12	162
1560.44	154
1561.76	168
1563.08	166
1564.4	154
1565.71	164
1567.03	174
1568.35	164
1569.66	176
1570.98	180
1572.29	174
1573.61	194
1574.93	198
1576.24	210
1577.55	238
1578.87	256
1580.18	326
1581.5	406
1582.81	410
1584.12	386
1585.43	344
1586.75	300
1588.06	260
1589.37	240
1590.68	250
1591.99	256
1593.3	284
1594.61	306
1595.92	368
1597.23	438
1598.54	524
1599.85	636
1601.16	690
1602.47	680
1603.78	646
1605.08	560
1606.39	452
1607.7	370
1609	312
1610.31	266
1611.62	248
1612.92	234
1614.23	222
1615.53	190
1616.84	178
1618.14	184
1619.45	184
1620.75	160
1622.06	162
1623.36	166
1624.66	158
1625.96	154
1627.27	152
1628.57	132
1629.87	158
1631.17	146
1632.47	144
1633.77	148
1635.07	150
1636.37	142
1637.67	150
1638.97	138
1640.27	146
1641.57	146
1642.87	156
1644.17	146
1645.47	156
1646.76	144
1648.06	154
1649.36	144
1650.66	146
1651.95	146
1653.25	138
1654.54	132
1655.84	120
1657.13	136
1658.43	136
1659.72	124
1661.02	136
1662.31	126
1663.6	124
1664.9	128
1666.19	126
1667.48	122
1668.78	128
1670.07	124
1671.36	138
1672.65	126
1673.94	138
1675.23	132
1676.52	132
1677.81	132
1679.1	118
1680.39	128
1681.68	128
1682.97	124
1684.26	128
1685.55	116
1686.83	126
1688.12	120
1689.41	120
1690.7	130
1691.98	112
1693.27	132
1694.55	114
1695.84	118
1697.13	106
1698.41	118
1699.69	120
1700.98	118
1702.26	110