File: Mixture_Classification/Jesse_Dataset_v2/Pure Raman/Polystyrene/785nm/ps-ppo-6jan25-1,0000-map3_Y01_X02.txt
204.377	812
206.045	828
207.713	882
209.38	874
211.048	862
212.715	892
214.381	904
216.047	902
217.712	910
219.377	912
221.042	902
222.706	896
224.369	844
226.032	828
227.695	778
229.357	774
231.019	730
232.68	682
234.341	614
236.001	578
237.661	554
239.321	502
240.98	438
242.639	414
244.297	380
245.955	338
247.612	336
249.268	328
250.924	302
252.58	282
254.236	282
255.891	282
257.546	262
259.2	260
260.854	264
262.507	252
264.16	254
265.812	238
267.463	236
269.115	264
270.766	244
272.417	248
274.067	230
275.717	222
277.365	234
279.014	224
280.663	214
282.311	216
283.958	202
285.605	198
287.252	202
288.898	182
290.543	184
292.188	172
293.833	180
295.477	164
297.121	174
298.765	170
300.407	174
302.05	156
303.693	166
305.334	166
306.975	160
308.615	168
310.256	168
311.896	158
313.535	154
315.175	152
316.813	170
318.451	164
320.089	166
321.726	168
323.362	164
324.999	164
326.635	156
328.271	168
329.905	164
331.54	172
333.174	152
334.807	158
336.441	172
338.074	158
339.707	160
341.338	158
342.969	152
344.601	146
346.231	146
347.861	156
349.491	136
351.12	138
352.749	146
354.378	144
356.006	140
357.633	144
359.261	146
360.887	148
362.513	146
364.139	152
365.764	146
367.39	150
369.014	148
370.638	148
372.261	150
373.884	162
375.508	150
377.13	168
378.752	156
380.373	152
381.994	162
383.615	162
385.235	178
386.854	178
388.473	166
390.092	184
391.711	186
393.328	182
394.947	186
396.564	186
398.181	188
399.797	206
401.412	204
403.027	214
404.642	232
406.257	230
407.871	236
409.484	206
411.098	214
412.711	212
414.323	176
415.935	182
417.547	164
419.158	160
420.768	160
422.378	156
423.988	156
425.597	154
427.206	154
428.814	144
430.422	138
432.03	140
433.637	136
435.243	122
436.85	136
438.456	140
440.062	140
441.666	138
443.271	128
444.876	128
446.479	124
448.082	124
449.685	108
451.287	104
452.89	108
454.492	112
456.092	112
457.693	110
459.293	110
460.893	104
462.492	102
464.092	110
465.691	98
467.288	104
468.887	92
470.483	100
472.081	110
473.677	98
475.273	102
476.869	96
478.463	98
480.059	92
481.653	90
483.247	94
484.84	90
486.433	96
488.026	102
489.618	92
491.21	96
492.801	98
494.392	108
495.983	102
497.573	94
499.162	108
500.752	108
502.341	106
503.929	110
505.517	106
507.105	110
508.692	104
510.279	104
511.865	102
513.45	106
515.037	92
516.621	94
518.206	106
519.79	104
521.374	102
522.957	102
524.54	112
526.123	108
527.705	102
529.287	120
530.868	120
532.448	128
534.029	126
535.609	130
537.188	138
538.768	136
540.346	146
541.925	140
543.502	146
545.08	136
546.657	132
548.234	140
549.81	124
551.386	134
552.961	136
554.536	138
556.11	132
557.684	128
559.258	124
560.832	134
562.405	134
563.977	124
565.55	128
567.12	134
568.692	134
570.263	128
571.833	130
573.403	136
574.973	132
576.542	128
578.111	122
579.679	130
581.247	114
582.815	108
584.382	104
585.948	112
587.514	100
589.081	94
590.645	108
592.211	98
593.775	100
595.339	110
596.904	104
598.466	106
600.03	114
601.592	108
603.154	128
604.715	122
606.277	146
607.838	142
609.398	140
610.958	160
612.518	156
614.077	170
615.636	218
617.194	284
618.753	494
620.31	708
621.867	700
623.424	454
624.98	288
626.537	196
628.092	164
629.647	142
631.202	122
632.756	118
634.31	114
635.864	114
637.417	96
638.969	84
640.521	92
642.074	92
643.625	86
645.176	78
646.726	78
648.276	78
649.827	74
651.376	78
652.925	74
654.473	82
656.021	76
657.569	74
659.117	76
660.664	72
662.21	78
663.757	76
665.302	76
666.847	76
668.392	70
669.937	70
671.481	70
673.025	76
674.568	80
676.111	72
677.653	72
679.195	72
680.737	76
682.279	68
683.82	72
685.36	74
686.9	70
688.44	76
689.979	74
691.517	72
693.056	74
694.594	76
696.132	80
697.669	84
699.206	98
700.742	92
702.278	96
703.814	100
705.35	94
706.884	96
708.419	96
709.953	94
711.487	92
713.019	96
714.552	86
716.085	94
717.617	98
719.148	92
720.68	110
722.21	122
723.741	134
725.271	144
726.8	136
728.33	120
729.858	122
731.387	124
732.915	138
734.443	124
735.97	138
737.497	154
739.023	164
740.549	188
742.075	184
743.6	178
745.125	194
746.65	184
748.173	188
749.697	184
751.22	182
752.743	210
754.266	210
755.788	226
757.309	226
758.831	224
760.351	228
761.871	244
763.392	220
764.912	210
766.431	220
767.95	214
769.468	216
770.986	204
772.504	192
774.022	202
775.538	186
777.055	192
778.571	214
780.086	198
781.602	224
783.117	220
784.632	260
786.146	274
787.659	288
789.173	306
790.685	328
792.198	328
793.71	332
795.222	332
796.733	352
798.244	324
799.755	320
801.265	292
802.775	244
804.284	220
805.793	210
807.302	194
808.81	194
810.318	186
811.826	170
813.333	152
814.84	146
816.346	150
817.851	130
819.357	120
820.862	110
822.367	120
823.871	112
825.376	116
826.878	110
828.382	116
829.885	108
831.387	102
832.889	118
834.391	128
835.892	142
837.392	146
838.893	142
840.393	162
841.893	154
843.392	158
844.891	166
846.389	148
847.888	136
849.386	134
850.882	136
852.38	126
853.876	130
855.372	120
856.868	134
858.363	132
859.858	120
861.353	124
862.847	124
864.341	102
865.834	114
867.328	124
868.82	118
870.313	120
871.805	116
873.296	116
874.787	114
876.278	108
877.769	110
879.258	108
880.748	118
882.237	102
883.726	112
885.214	116
886.702	114
888.19	116
889.677	104
891.164	110
892.651	110
894.137	108
895.623	122
897.108	120
898.593	114
900.077	128
901.562	136
903.046	138
904.529	140
906.012	144
907.495	142
908.977	142
910.459	136
911.941	124
913.422	122
914.903	118
916.383	114
917.863	108
919.343	102
920.822	102
922.301	96
923.779	96
925.257	96
926.735	102
928.213	96
929.69	102
931.166	100
932.643	96
934.119	100
935.594	96
937.069	94
938.543	98
940.018	94
941.492	100
942.966	102
944.439	102
945.911	102
947.384	96
948.856	98
950.328	94
951.799	98
953.27	104
954.741	100
956.21	108
957.68	110
959.15	100
960.619	118
962.088	118
963.556	128
965.023	128
966.491	132
967.958	122
969.425	122
970.891	124
972.357	122
973.824	130
975.288	146
976.754	148
978.218	154
979.682	174
981.146	194
982.609	216
984.072	248
985.534	268
986.997	318
988.459	398
989.92	526
991.382	746
992.842	786
994.302	776
995.763	804
997.222	1176
998.681	1922
1000.14	2810
1001.6	3326
1003.06	2866
1004.52	1978
1005.97	1158
1007.43	710
1008.89	438
1010.34	306
1011.8	250
1013.25	208
1014.71	206
1016.16	178
1017.62	190
1019.07	208
1020.53	210
1021.98	250
1023.43	302
1024.89	358
1026.34	484
1027.79	632
1029.24	756
1030.69	864
1032.14	898
1033.59	818
1035.04	688
1036.49	520
1037.94	428
1039.39	326
1040.84	268
1042.29	228
1043.73	208
1045.18	194
1046.63	168
1048.08	172
1049.52	160
1050.97	154
1052.41	160
1053.86	146
1055.3	148
1056.75	144
1058.19	156
1059.64	144
1061.08	146
1062.52	172
1063.96	162
1065.41	162
1066.85	180
1068.29	162
1069.73	170
1071.17	186
1072.61	174
1074.05	172
1075.49	168
1076.93	156
1078.37	164
1079.81	160
1081.25	170
1082.68	166
1084.12	162
1085.56	166
1087	162
1088.43	150
1089.87	166
1091.3	168
1092.74	166
1094.17	166
1095.61	170
1097.04	164
1098.48	162
1099.91	160
1101.34	164
1102.78	172
1104.21	158
1105.64	148
1107.07	142
1108.5	126
1109.93	124
1111.36	126
1112.8	132
1114.22	128
1115.65	122
1117.08	128
1118.51	116
1119.94	116
1121.37	104
1122.8	110
1124.22	106
1125.65	98
1127.08	102
1128.5	102
1129.93	92
1131.35	104
1132.78	104
1134.2	118
1135.63	118
1137.05	118
1138.48	118
1139.9	128
1141.32	120
1142.75	136
1144.17	138
1145.59	152
1147.01	170
1148.43	182
1149.85	230
1151.27	278
1152.69	344
1154.11	390
1155.53	422
1156.95	362
1158.37	320
1159.79	274
1161.21	254
1162.62	234
1164.04	212
1165.46	200
1166.87	206
1168.29	210
1169.71	186
1171.12	224
1172.54	246
1173.95	260
1175.37	314
1176.78	340
1178.19	404
1179.61	490
1181.02	488
1182.43	526
1183.84	498
1185.26	456
1186.67	440
1188.08	428
1189.49	426
1190.9	472
1192.31	488
1193.72	500
1195.13	498
1196.54	486
1197.95	514
1199.36	482
1200.76	470
1202.17	462
1203.58	440
1204.99	410
1206.39	380
1207.8	348
1209.2	314
1210.61	300
1212.01	260
1213.42	246
1214.82	216
1216.23	218
1217.63	204
1219.03	224
1220.44	206
1221.84	200
1223.24	210
1224.64	190
1226.05	194
1227.45	188
1228.85	172
1230.25	180
1231.65	176
1233.05	170
1234.45	168
1235.85	162
1237.25	170
1238.64	162
1240.04	148
1241.44	148
1242.84	170
1244.23	156
1245.63	168
1247.03	172
1248.42	176
1249.82	158
1251.21	184
1252.61	176
1254	164
1255.4	156
1256.79	174
1258.19	150
1259.58	158
1260.97	160
1262.36	168
1263.76	172
1265.15	156
1266.54	156
1267.93	158
1269.32	156
1270.71	174
1272.1	164
1273.49	168
1274.88	160
1276.27	160
1277.66	160
1279.05	154
1280.43	172
1281.82	172
1283.21	172
1284.6	178
1285.98	170
1287.37	176
1288.75	168
1290.14	190
1291.53	198
1292.91	194
1294.29	190
1295.68	184
1297.06	196
1298.45	212
1299.83	202
1301.21	204
1302.59	222
1303.98	202
1305.36	218
1306.74	220
1308.12	228
1309.5	224
1310.88	232
1312.26	218
1313.64	216
1315.02	240
1316.4	248
1317.78	248
1319.16	254
1320.53	270
1321.91	282
1323.29	270
1324.67	268
1326.04	268
1327.42	272
1328.79	262
1330.17	300
1331.54	290
1332.92	288
1334.29	292
1335.67	276
1337.04	278
1338.42	270
1339.79	270
1341.16	270
1342.53	262
1343.91	242
1345.28	256
1346.65	240
1348.02	272
1349.39	258
1350.76	264
1352.13	254
1353.5	262
1354.87	252
1356.24	256
1357.61	260
1358.98	268
1360.34	250
1361.71	274
1363.08	266
1364.45	276
1365.81	270
1367.18	246
1368.54	288
1369.91	278
1371.28	276
1372.64	272
1374.01	262
1375.37	264
1376.73	278
1378.1	256
1379.46	266
1380.82	268
1382.19	258
1383.55	256
1384.91	246
1386.27	244
1387.63	236
1388.99	234
1390.35	238
1391.71	244
1393.07	226
1394.43	238
1395.79	232
1397.15	242
1398.51	240
1399.87	226
1401.23	238
1402.58	224
1403.94	220
1405.3	218
1406.65	214
1408.01	226
1409.37	230
1410.72	230
1412.08	204
1413.43	218
1414.79	214
1416.14	220
1417.49	214
1418.85	234
1420.2	214
1421.55	222
1422.91	224
1424.26	214
1425.61	202
1426.96	216
1428.31	226
1429.66	214
1431.01	222
1432.36	220
1433.71	222
1435.06	236
1436.41	260
1437.76	262
1439.11	250
1440.46	270
1441.81	284
1443.15	302
1444.5	294
1445.85	304
1447.19	322
1448.54	314
1449.89	328
1451.23	320
1452.58	332
1453.92	304
1455.27	280
1456.61	272
1457.95	244
1459.3	200
1460.64	192
1461.98	218
1463.33	208
1464.67	198
1466.01	188
1467.35	192
1468.69	200
1470.03	190
1471.37	184
1472.71	176
1474.05	178
1475.39	178
1476.73	180
1478.07	190
1479.41	168
1480.75	190
1482.09	170
1483.42	180
1484.76	176
1486.1	170
1487.43	172
1488.77	172
1490.11	184
1491.44	186
1492.78	178
1494.11	180
1495.45	188
1496.78	168
1498.12	174
1499.45	178
1500.78	168
1502.11	172
1503.45	170
1504.78	162
1506.11	160
1507.44	158
1508.77	146
1510.11	152
1511.44	162
1512.77	154
1514.1	142
1515.43	152
1516.76	166
1518.08	160
1519.41	154
1520.74	168
1522.07	148
1523.4	160
1524.72	160
1526.05	160
1527.38	162
1528.7	170
1530.03	162
1531.36	156
1532.68	158
1534.01	146
1535.33	158
1536.66	154
1537.98	164
1539.3	164
1540.63	154
1541.95	154
1543.27	158
1544.6	164
1545.92	156
1547.24	146
1548.56	150
1549.88	150
1551.2	154
1552.52	150
1553.84	152
1555.17	146
1556.48	164
1557.8	140
1559.12	168
1560.44	152
1561.76	158
1563.08	168
1564.4	162
1565.71	170
1567.03	168
1568.35	166
1569.66	172
1570.98	182
1572.29	186
1573.61	182
1574.93	196
1576.24	222
1577.55	232
1578.87	254
1580.18	308
1581.5	370
1582.81	396
1584.12	400
1585.43	342
1586.75	296
1588.06	266
1589.37	244
1590.68	256
1591.99	248
1593.3	282
1594.61	296
1595.92	356
1597.23	414
1598.54	520
1599.85	596
1601.16	682
1602.47	684
1603.78	654
1605.08	554
1606.39	480
1607.7	382
1609	310
1610.31	268
1611.62	244
1612.92	214
1614.23	202
1615.53	202
1616.84	190
1618.14	186
1619.45	180
1620.75	170
1622.06	180
1623.36	160
1624.66	168
1625.96	156
1627.27	142
1628.57	142
1629.87	158
1631.17	142
1632.47	146
1633.77	144
1635.07	152
1636.37	152
1637.67	132
1638.97	144
1640.27	142
1641.57	152
1642.87	146
1644.17	140
1645.47	146
1646.76	136
1648.06	154
1649.36	150
1650.66	142
1651.95	144
1653.25	140
1654.54	138
1655.84	134
1657.13	140
1658.43	126
1659.72	130
1661.02	128
1662.31	124
1663.6	120
1664.9	132
1666.19	122
1667.48	122
1668.78	128
1670.07	134
1671.36	124
1672.65	134
1673.94	118
1675.23	122
1676.52	128
1677.81	134
1679.1	128
1680.39	126
1681.68	124
1682.97	120
1684.26	130
1685.55	118
1686.83	126
1688.12	130
1689.41	112
1690.7	122
1691.98	114
1693.27	128
1694.55	108
1695.84	114
1697.13	118
1698.41	110
1699.69	120
1700.98	112
1702.26	114