File: Mixture_Classification/Jesse_Dataset_v2/Pure Raman/Polystyrene/785nm/ps-ppo-6jan25-1,0000-map3_Y07_X10.txt
204.377	844
206.045	842
207.713	840
209.38	894
211.048	884
212.715	906
214.381	900
216.047	884
217.712	876
219.377	910
221.042	912
222.706	910
224.369	884
226.032	822
227.695	818
229.357	762
231.019	734
232.68	670
234.341	640
236.001	600
237.661	524
239.321	490
240.98	454
242.639	414
244.297	386
245.955	354
247.612	336
249.268	324
250.924	312
252.58	296
254.236	286
255.891	284
257.546	282
259.2	264
260.854	264
262.507	254
264.16	254
265.812	272
267.463	258
269.115	240
270.766	258
272.417	252
274.067	248
275.717	250
277.365	228
279.014	228
280.663	224
282.311	230
283.958	220
285.605	208
287.252	204
288.898	192
290.543	182
292.188	182
293.833	176
295.477	172
297.121	170
298.765	170
300.407	164
302.05	172
303.693	174
305.334	170
306.975	164
308.615	170
310.256	182
311.896	154
313.535	180
315.175	172
316.813	168
318.451	178
320.089	176
321.726	166
323.362	170
324.999	172
326.635	170
328.271	168
329.905	182
331.54	174
333.174	178
334.807	170
336.441	172
338.074	180
339.707	164
341.338	164
342.969	154
344.601	162
346.231	162
347.861	158
349.491	154
351.12	160
352.749	150
354.378	148
356.006	136
357.633	148
359.261	154
360.887	146
362.513	162
364.139	152
365.764	154
367.39	150
369.014	160
370.638	154
372.261	158
373.884	158
375.508	154
377.13	158
378.752	168
380.373	176
381.994	178
383.615	172
385.235	190
386.854	174
388.473	196
390.092	190
391.711	192
393.328	196
394.947	192
396.564	190
398.181	206
399.797	202
401.412	222
403.027	224
404.642	224
406.257	236
407.871	234
409.484	214
411.098	194
412.711	212
414.323	202
415.935	188
417.547	178
419.158	182
420.768	172
422.378	172
423.988	156
425.597	158
427.206	152
428.814	140
430.422	154
432.03	144
433.637	140
435.243	148
436.85	138
438.456	144
440.062	148
441.666	150
443.271	138
444.876	146
446.479	134
448.082	116
449.685	114
451.287	128
452.89	116
454.492	112
456.092	116
457.693	106
459.293	114
460.893	104
462.492	116
464.092	98
465.691	114
467.288	110
468.887	116
470.483	104
472.081	108
473.677	108
475.273	100
476.869	98
478.463	104
480.059	100
481.653	104
483.247	100
484.84	102
486.433	102
488.026	106
489.618	100
491.21	100
492.801	92
494.392	90
495.983	106
497.573	100
499.162	108
500.752	108
502.341	108
503.929	106
505.517	116
507.105	116
508.692	104
510.279	96
511.865	104
513.45	116
515.037	108
516.621	110
518.206	108
519.79	112
521.374	114
522.957	118
524.54	108
526.123	124
527.705	120
529.287	116
530.868	124
532.448	132
534.029	134
535.609	134
537.188	154
538.768	154
540.346	146
541.925	146
543.502	152
545.08	144
546.657	148
548.234	146
549.81	150
551.386	152
552.961	138
554.536	136
556.11	142
557.684	140
559.258	136
560.832	138
562.405	126
563.977	146
565.55	128
567.12	136
568.692	142
570.263	124
571.833	146
573.403	140
574.973	146
576.542	140
578.111	136
579.679	128
581.247	118
582.815	114
584.382	116
585.948	114
587.514	104
589.081	110
590.645	110
592.211	112
593.775	116
595.339	116
596.904	112
598.466	110
600.03	106
601.592	112
603.154	118
604.715	136
606.277	158
607.838	148
609.398	148
610.958	152
612.518	162
614.077	182
615.636	212
617.194	344
618.753	518
620.31	726
621.867	676
623.424	468
624.98	286
626.537	192
628.092	176
629.647	146
631.202	144
632.756	124
634.31	126
635.864	100
637.417	102
638.969	96
640.521	104
642.074	92
643.625	94
645.176	90
646.726	78
648.276	76
649.827	78
651.376	76
652.925	84
654.473	78
656.021	80
657.569	82
659.117	76
660.664	76
662.21	82
663.757	84
665.302	84
666.847	80
668.392	80
669.937	86
671.481	78
673.025	76
674.568	80
676.111	78
677.653	84
679.195	82
680.737	74
682.279	80
683.82	84
685.36	82
686.9	70
688.44	72
689.979	80
691.517	82
693.056	76
694.594	78
696.132	88
697.669	98
699.206	92
700.742	104
702.278	98
703.814	100
705.35	102
706.884	98
708.419	104
709.953	98
711.487	106
713.019	104
714.552	86
716.085	98
717.617	104
719.148	110
720.68	116
722.21	132
723.741	150
725.271	150
726.8	154
728.33	132
729.858	124
731.387	122
732.915	122
734.443	130
735.97	140
737.497	162
739.023	168
740.549	182
742.075	178
743.6	176
745.125	186
746.65	176
748.173	192
749.697	196
751.22	200
752.743	198
754.266	218
755.788	220
757.309	226
758.831	222
760.351	238
761.871	228
763.392	226
764.912	228
766.431	212
767.95	216
769.468	220
770.986	206
772.504	206
774.022	200
775.538	202
777.055	212
778.571	208
780.086	224
781.602	234
783.117	240
784.632	244
786.146	266
787.659	306
789.173	308
790.685	326
792.198	336
793.71	356
795.222	350
796.733	336
798.244	338
799.755	322
801.265	278
802.775	252
804.284	222
805.793	216
807.302	206
808.81	196
810.318	172
811.826	170
813.333	166
814.84	152
816.346	140
817.851	132
819.357	126
820.862	126
822.367	112
823.871	106
825.376	116
826.878	110
828.382	120
829.885	122
831.387	110
832.889	124
834.391	132
835.892	140
837.392	144
838.893	148
840.393	140
841.893	172
843.392	142
844.891	150
846.389	154
847.888	144
849.386	128
850.882	144
852.38	128
853.876	126
855.372	136
856.868	128
858.363	124
859.858	116
861.353	116
862.847	122
864.341	120
865.834	128
867.328	124
868.82	132
870.313	114
871.805	124
873.296	134
874.787	112
876.278	116
877.769	114
879.258	110
880.748	124
882.237	118
883.726	114
885.214	112
886.702	100
888.19	128
889.677	118
891.164	110
892.651	122
894.137	116
895.623	116
897.108	124
898.593	122
900.077	138
901.562	144
903.046	158
904.529	148
906.012	156
907.495	150
908.977	136
910.459	142
911.941	124
913.422	122
914.903	124
916.383	116
917.863	110
919.343	110
920.822	108
922.301	102
923.779	102
925.257	102
926.735	102
928.213	94
929.69	98
931.166	96
932.643	88
934.119	102
935.594	98
937.069	102
938.543	98
940.018	102
941.492	98
942.966	102
944.439	98
945.911	98
947.384	96
948.856	100
950.328	106
951.799	112
953.27	100
954.741	104
956.21	104
957.68	98
959.15	116
960.619	124
962.088	128
963.556	128
965.023	130
966.491	136
967.958	130
969.425	128
970.891	126
972.357	130
973.824	128
975.288	138
976.754	142
978.218	162
979.682	188
981.146	210
982.609	220
984.072	244
985.534	302
986.997	336
988.459	426
989.92	584
991.382	828
992.842	878
994.302	812
995.763	840
997.222	1220
998.681	1958
1000.14	2892
1001.6	3322
1003.06	2848
1004.52	1960
1005.97	1168
1007.43	668
1008.89	440
1010.34	304
1011.8	254
1013.25	204
1014.71	180
1016.16	186
1017.62	184
1019.07	210
1020.53	224
1021.98	256
1023.43	312
1024.89	378
1026.34	500
1027.79	644
1029.24	800
1030.69	874
1032.14	892
1033.59	812
1035.04	668
1036.49	526
1037.94	412
1039.39	316
1040.84	262
1042.29	240
1043.73	222
1045.18	184
1046.63	192
1048.08	170
1049.52	172
1050.97	148
1052.41	170
1053.86	156
1055.3	146
1056.75	150
1058.19	158
1059.64	164
1061.08	164
1062.52	156
1063.96	178
1065.41	154
1066.85	170
1068.29	170
1069.73	192
1071.17	174
1072.61	172
1074.05	180
1075.49	156
1076.93	164
1078.37	168
1079.81	172
1081.25	172
1082.68	182
1084.12	154
1085.56	176
1087	166
1088.43	164
1089.87	172
1091.3	158
1092.74	160
1094.17	168
1095.61	168
1097.04	168
1098.48	172
1099.91	170
1101.34	162
1102.78	156
1104.21	158
1105.64	154
1107.07	144
1108.5	144
1109.93	146
1111.36	140
1112.8	140
1114.22	142
1115.65	120
1117.08	134
1118.51	120
1119.94	114
1121.37	112
1122.8	106
1124.22	112
1125.65	112
1127.08	108
1128.5	108
1129.93	114
1131.35	112
1132.78	116
1134.2	116
1135.63	116
1137.05	116
1138.48	126
1139.9	132
1141.32	136
1142.75	146
1144.17	148
1145.59	164
1147.01	166
1148.43	196
1149.85	230
1151.27	284
1152.69	354
1154.11	398
1155.53	414
1156.95	406
1158.37	336
1159.79	292
1161.21	270
1162.62	242
1164.04	208
1165.46	218
1166.87	196
1168.29	210
1169.71	224
1171.12	220
1172.54	256
1173.95	266
1175.37	310
1176.78	384
1178.19	446
1179.61	492
1181.02	530
1182.43	538
1183.84	522
1185.26	458
1186.67	450
1188.08	454
1189.49	446
1190.9	458
1192.31	478
1193.72	490
1195.13	518
1196.54	502
1197.95	512
1199.36	498
1200.76	490
1202.17	466
1203.58	432
1204.99	400
1206.39	398
1207.8	344
1209.2	328
1210.61	300
1212.01	268
1213.42	250
1214.82	240
1216.23	230
1217.63	218
1219.03	212
1220.44	222
1221.84	218
1223.24	198
1224.64	200
1226.05	192
1227.45	212
1228.85	192
1230.25	190
1231.65	166
1233.05	178
1234.45	176
1235.85	170
1237.25	174
1238.64	170
1240.04	192
1241.44	168
1242.84	176
1244.23	172
1245.63	186
1247.03	178
1248.42	164
1249.82	170
1251.21	188
1252.61	172
1254	174
1255.4	174
1256.79	174
1258.19	176
1259.58	170
1260.97	168
1262.36	180
1263.76	170
1265.15	172
1266.54	184
1267.93	166
1269.32	168
1270.71	182
1272.1	168
1273.49	182
1274.88	152
1276.27	180
1277.66	174
1279.05	178
1280.43	174
1281.82	176
1283.21	180
1284.6	184
1285.98	194
1287.37	188
1288.75	196
1290.14	196
1291.53	188
1292.91	202
1294.29	198
1295.68	206
1297.06	210
1298.45	216
1299.83	198
1301.21	242
1302.59	214
1303.98	228
1305.36	234
1306.74	228
1308.12	228
1309.5	242
1310.88	234
1312.26	244
1313.64	254
1315.02	258
1316.4	274
1317.78	276
1319.16	264
1320.53	286
1321.91	296
1323.29	296
1324.67	300
1326.04	312
1327.42	310
1328.79	294
1330.17	292
1331.54	316
1332.92	316
1334.29	290
1335.67	290
1337.04	272
1338.42	296
1339.79	290
1341.16	284
1342.53	272
1343.91	290
1345.28	268
1346.65	282
1348.02	274
1349.39	288
1350.76	270
1352.13	272
1353.5	286
1354.87	270
1356.24	288
1357.61	272
1358.98	282
1360.34	294
1361.71	278
1363.08	278
1364.45	284
1365.81	276
1367.18	296
1368.54	294
1369.91	278
1371.28	280
1372.64	304
1374.01	302
1375.37	290
1376.73	298
1378.1	274
1379.46	280
1380.82	280
1382.19	274
1383.55	274
1384.91	266
1386.27	278
1387.63	258
1388.99	240
1390.35	246
1391.71	256
1393.07	256
1394.43	244
1395.79	252
1397.15	262
1398.51	252
1399.87	240
1401.23	262
1402.58	238
1403.94	250
1405.3	250
1406.65	246
1408.01	244
1409.37	260
1410.72	228
1412.08	228
1413.43	228
1414.79	230
1416.14	234
1417.49	254
1418.85	224
1420.2	244
1421.55	230
1422.91	232
1424.26	236
1425.61	234
1426.96	234
1428.31	224
1429.66	240
1431.01	236
1432.36	234
1433.71	248
1435.06	238
1436.41	274
1437.76	266
1439.11	296
1440.46	292
1441.81	294
1443.15	298
1444.5	318
1445.85	342
1447.19	326
1448.54	340
1449.89	340
1451.23	324
1452.58	334
1453.92	336
1455.27	298
1456.61	286
1457.95	258
1459.3	240
1460.64	230
1461.98	222
1463.33	206
1464.67	212
1466.01	198
1467.35	204
1468.69	196
1470.03	218
1471.37	200
1472.71	196
1474.05	196
1475.39	186
1476.73	182
1478.07	200
1479.41	190
1480.75	186
1482.09	186
1483.42	190
1484.76	196
1486.1	196
1487.43	204
1488.77	186
1490.11	196
1491.44	196
1492.78	188
1494.11	198
1495.45	182
1496.78	178
1498.12	184
1499.45	190
1500.78	184
1502.11	186
1503.45	186
1504.78	174
1506.11	182
1507.44	168
1508.77	176
1510.11	178
1511.44	174
1512.77	174
1514.1	174
1515.43	172
1516.76	168
1518.08	180
1519.41	160
1520.74	176
1522.07	168
1523.4	178
1524.72	180
1526.05	180
1527.38	174
1528.7	170
1530.03	164
1531.36	164
1532.68	178
1534.01	168
1535.33	168
1536.66	164
1537.98	178
1539.3	172
1540.63	170
1541.95	164
1543.27	170
1544.6	164
1545.92	154
1547.24	166
1548.56	158
1549.88	160
1551.2	176
1552.52	178
1553.84	160
1555.17	150
1556.48	172
1557.8	168
1559.12	174
1560.44	170
1561.76	188
1563.08	188
1564.4	170
1565.71	174
1567.03	180
1568.35	186
1569.66	186
1570.98	200
1572.29	204
1573.61	194
1574.93	220
1576.24	220
1577.55	250
1578.87	284
1580.18	336
1581.5	378
1582.81	438
1584.12	396
1585.43	380
1586.75	300
1588.06	278
1589.37	262
1590.68	234
1591.99	266
1593.3	292
1594.61	306
1595.92	354
1597.23	436
1598.54	512
1599.85	632
1601.16	694
1602.47	706
1603.78	658
1605.08	576
1606.39	446
1607.7	390
1609	320
1610.31	288
1611.62	260
1612.92	234
1614.23	218
1615.53	204
1616.84	186
1618.14	198
1619.45	178
1620.75	170
1622.06	174
1623.36	182
1624.66	174
1625.96	174
1627.27	164
1628.57	170
1629.87	162
1631.17	156
1632.47	148
1633.77	154
1635.07	154
1636.37	144
1637.67	144
1638.97	156
1640.27	162
1641.57	148
1642.87	164
1644.17	152
1645.47	170
1646.76	158
1648.06	182
1649.36	158
1650.66	154
1651.95	158
1653.25	152
1654.54	140
1655.84	142
1657.13	134
1658.43	138
1659.72	140
1661.02	138
1662.31	138
1663.6	136
1664.9	132
1666.19	134
1667.48	136
1668.78	146
1670.07	154
1671.36	136
1672.65	140
1673.94	142
1675.23	130
1676.52	134
1677.81	134
1679.1	128
1680.39	120
1681.68	128
1682.97	142
1684.26	140
1685.55	124
1686.83	126
1688.12	126
1689.41	134
1690.7	132
1691.98	136
1693.27	134
1694.55	126
1695.84	134
1697.13	130
1698.41	120
1699.69	124
1700.98	126
1702.26	126