File: Mixture_Classification/Jesse_Dataset_v2/Pure Raman/Polystyrene/785nm/ps-ppo-6jan25-1,0000-map3_Y02_X00.txt
204.377	838
206.045	836
207.713	878
209.38	850
211.048	878
212.715	888
214.381	922
216.047	890
217.712	904
219.377	912
221.042	898
222.706	916
224.369	846
226.032	838
227.695	770
229.357	772
231.019	708
232.68	678
234.341	646
236.001	564
237.661	548
239.321	490
240.98	438
242.639	400
244.297	402
245.955	362
247.612	338
249.268	316
250.924	320
252.58	294
254.236	276
255.891	286
257.546	280
259.2	268
260.854	254
262.507	266
264.16	262
265.812	256
267.463	262
269.115	238
270.766	250
272.417	254
274.067	220
275.717	252
277.365	248
279.014	224
280.663	224
282.311	226
283.958	218
285.605	198
287.252	198
288.898	192
290.543	186
292.188	182
293.833	188
295.477	192
297.121	166
298.765	170
300.407	172
302.05	158
303.693	164
305.334	170
306.975	174
308.615	154
310.256	164
311.896	160
313.535	166
315.175	166
316.813	174
318.451	166
320.089	188
321.726	168
323.362	176
324.999	172
326.635	170
328.271	172
329.905	162
331.54	176
333.174	174
334.807	168
336.441	172
338.074	160
339.707	164
341.338	178
342.969	164
344.601	160
346.231	156
347.861	142
349.491	146
351.12	148
352.749	162
354.378	148
356.006	144
357.633	152
359.261	140
360.887	144
362.513	156
364.139	160
365.764	132
367.39	156
369.014	150
370.638	154
372.261	160
373.884	156
375.508	170
377.13	164
378.752	160
380.373	178
381.994	174
383.615	176
385.235	198
386.854	182
388.473	168
390.092	176
391.711	172
393.328	178
394.947	188
396.564	182
398.181	200
399.797	196
401.412	202
403.027	236
404.642	244
406.257	242
407.871	216
409.484	224
411.098	204
412.711	192
414.323	200
415.935	184
417.547	180
419.158	162
420.768	158
422.378	166
423.988	140
425.597	162
427.206	148
428.814	140
430.422	144
432.03	154
433.637	140
435.243	132
436.85	128
438.456	136
440.062	122
441.666	140
443.271	132
444.876	132
446.479	134
448.082	130
449.685	124
451.287	120
452.89	116
454.492	114
456.092	112
457.693	108
459.293	104
460.893	106
462.492	108
464.092	110
465.691	104
467.288	100
468.887	114
470.483	106
472.081	108
473.677	104
475.273	104
476.869	98
478.463	104
480.059	106
481.653	100
483.247	98
484.84	96
486.433	90
488.026	94
489.618	94
491.21	90
492.801	94
494.392	92
495.983	106
497.573	96
499.162	96
500.752	100
502.341	104
503.929	114
505.517	116
507.105	106
508.692	106
510.279	102
511.865	112
513.45	100
515.037	100
516.621	112
518.206	104
519.79	106
521.374	108
522.957	112
524.54	108
526.123	114
527.705	108
529.287	126
530.868	126
532.448	122
534.029	124
535.609	138
537.188	144
538.768	134
540.346	144
541.925	148
543.502	148
545.08	144
546.657	148
548.234	142
549.81	142
551.386	148
552.961	136
554.536	136
556.11	140
557.684	132
559.258	148
560.832	130
562.405	134
563.977	124
565.55	134
567.12	124
568.692	134
570.263	138
571.833	144
573.403	140
574.973	146
576.542	134
578.111	136
579.679	112
581.247	118
582.815	114
584.382	110
585.948	108
587.514	108
589.081	102
590.645	106
592.211	104
593.775	102
595.339	100
596.904	110
598.466	116
600.03	118
601.592	116
603.154	120
604.715	128
606.277	140
607.838	150
609.398	144
610.958	150
612.518	152
614.077	176
615.636	222
617.194	310
618.753	494
620.31	722
621.867	704
623.424	460
624.98	288
626.537	182
628.092	148
629.647	146
631.202	136
632.756	128
634.31	110
635.864	100
637.417	98
638.969	92
640.521	98
642.074	96
643.625	90
645.176	80
646.726	80
648.276	90
649.827	74
651.376	76
652.925	78
654.473	82
656.021	80
657.569	70
659.117	72
660.664	82
662.21	82
663.757	74
665.302	78
666.847	84
668.392	74
669.937	74
671.481	78
673.025	74
674.568	76
676.111	74
677.653	76
679.195	76
680.737	72
682.279	78
683.82	76
685.36	76
686.9	70
688.44	72
689.979	78
691.517	74
693.056	78
694.594	86
696.132	80
697.669	84
699.206	96
700.742	94
702.278	90
703.814	104
705.35	88
706.884	92
708.419	90
709.953	100
711.487	102
713.019	94
714.552	94
716.085	94
717.617	98
719.148	92
720.68	112
722.21	130
723.741	152
725.271	146
726.8	136
728.33	136
729.858	118
731.387	122
732.915	120
734.443	134
735.97	134
737.497	154
739.023	174
740.549	170
742.075	190
743.6	188
745.125	190
746.65	168
748.173	174
749.697	178
751.22	188
752.743	208
754.266	224
755.788	212
757.309	230
758.831	248
760.351	234
761.871	224
763.392	214
764.912	222
766.431	216
767.95	210
769.468	202
770.986	202
772.504	186
774.022	204
775.538	192
777.055	200
778.571	206
780.086	214
781.602	216
783.117	230
784.632	238
786.146	256
787.659	292
789.173	296
790.685	318
792.198	338
793.71	340
795.222	336
796.733	338
798.244	312
799.755	300
801.265	274
802.775	238
804.284	224
805.793	212
807.302	202
808.81	180
810.318	178
811.826	168
813.333	164
814.84	136
816.346	146
817.851	128
819.357	124
820.862	110
822.367	114
823.871	100
825.376	112
826.878	110
828.382	102
829.885	114
831.387	118
832.889	126
834.391	132
835.892	136
837.392	140
838.893	142
840.393	150
841.893	156
843.392	160
844.891	154
846.389	134
847.888	142
849.386	134
850.882	138
852.38	114
853.876	130
855.372	130
856.868	124
858.363	132
859.858	124
861.353	130
862.847	126
864.341	124
865.834	122
867.328	120
868.82	114
870.313	118
871.805	128
873.296	122
874.787	124
876.278	110
877.769	122
879.258	120
880.748	118
882.237	116
883.726	120
885.214	118
886.702	110
888.19	116
889.677	124
891.164	110
892.651	102
894.137	104
895.623	112
897.108	122
898.593	124
900.077	120
901.562	118
903.046	136
904.529	150
906.012	144
907.495	146
908.977	146
910.459	134
911.941	122
913.422	116
914.903	112
916.383	104
917.863	104
919.343	108
920.822	96
922.301	100
923.779	90
925.257	96
926.735	96
928.213	96
929.69	92
931.166	102
932.643	96
934.119	92
935.594	90
937.069	88
938.543	94
940.018	102
941.492	98
942.966	100
944.439	102
945.911	102
947.384	100
948.856	100
950.328	98
951.799	96
953.27	108
954.741	102
956.21	106
957.68	110
959.15	118
960.619	108
962.088	120
963.556	126
965.023	124
966.491	130
967.958	130
969.425	124
970.891	136
972.357	128
973.824	138
975.288	138
976.754	148
978.218	164
979.682	184
981.146	194
982.609	224
984.072	228
985.534	262
986.997	304
988.459	384
989.92	578
991.382	722
992.842	784
994.302	766
995.763	838
997.222	1174
998.681	1904
1000.14	2846
1001.6	3250
1003.06	2882
1004.52	1978
1005.97	1180
1007.43	700
1008.89	450
1010.34	322
1011.8	240
1013.25	206
1014.71	192
1016.16	194
1017.62	182
1019.07	200
1020.53	216
1021.98	250
1023.43	304
1024.89	380
1026.34	492
1027.79	610
1029.24	764
1030.69	870
1032.14	880
1033.59	842
1035.04	710
1036.49	544
1037.94	410
1039.39	330
1040.84	268
1042.29	226
1043.73	198
1045.18	192
1046.63	176
1048.08	168
1049.52	152
1050.97	166
1052.41	154
1053.86	142
1055.3	146
1056.75	138
1058.19	152
1059.64	154
1061.08	156
1062.52	162
1063.96	166
1065.41	160
1066.85	162
1068.29	174
1069.73	166
1071.17	172
1072.61	166
1074.05	164
1075.49	170
1076.93	180
1078.37	158
1079.81	172
1081.25	164
1082.68	164
1084.12	170
1085.56	172
1087	156
1088.43	156
1089.87	176
1091.3	162
1092.74	170
1094.17	178
1095.61	162
1097.04	176
1098.48	168
1099.91	174
1101.34	166
1102.78	166
1104.21	154
1105.64	148
1107.07	146
1108.5	124
1109.93	144
1111.36	128
1112.8	130
1114.22	120
1115.65	132
1117.08	100
1118.51	124
1119.94	122
1121.37	112
1122.8	110
1124.22	110
1125.65	114
1127.08	96
1128.5	104
1129.93	108
1131.35	104
1132.78	108
1134.2	104
1135.63	112
1137.05	106
1138.48	118
1139.9	124
1141.32	136
1142.75	136
1144.17	156
1145.59	162
1147.01	166
1148.43	202
1149.85	216
1151.27	288
1152.69	368
1154.11	410
1155.53	404
1156.95	386
1158.37	346
1159.79	276
1161.21	246
1162.62	226
1164.04	218
1165.46	188
1166.87	176
1168.29	202
1169.71	216
1171.12	224
1172.54	228
1173.95	266
1175.37	292
1176.78	350
1178.19	428
1179.61	486
1181.02	512
1182.43	522
1183.84	498
1185.26	464
1186.67	410
1188.08	402
1189.49	452
1190.9	470
1192.31	480
1193.72	492
1195.13	472
1196.54	502
1197.95	488
1199.36	496
1200.76	476
1202.17	446
1203.58	432
1204.99	404
1206.39	376
1207.8	358
1209.2	328
1210.61	274
1212.01	254
1213.42	242
1214.82	228
1216.23	210
1217.63	214
1219.03	214
1220.44	196
1221.84	196
1223.24	194
1224.64	200
1226.05	204
1227.45	186
1228.85	180
1230.25	182
1231.65	178
1233.05	170
1234.45	166
1235.85	162
1237.25	152
1238.64	172
1240.04	170
1241.44	160
1242.84	166
1244.23	162
1245.63	172
1247.03	166
1248.42	154
1249.82	162
1251.21	148
1252.61	148
1254	160
1255.4	156
1256.79	178
1258.19	168
1259.58	170
1260.97	162
1262.36	164
1263.76	166
1265.15	174
1266.54	170
1267.93	162
1269.32	168
1270.71	174
1272.1	166
1273.49	164
1274.88	166
1276.27	162
1277.66	166
1279.05	158
1280.43	176
1281.82	176
1283.21	172
1284.6	162
1285.98	182
1287.37	184
1288.75	174
1290.14	174
1291.53	184
1292.91	196
1294.29	208
1295.68	194
1297.06	186
1298.45	192
1299.83	200
1301.21	200
1302.59	204
1303.98	214
1305.36	206
1306.74	222
1308.12	224
1309.5	214
1310.88	234
1312.26	230
1313.64	238
1315.02	236
1316.4	252
1317.78	240
1319.16	252
1320.53	260
1321.91	260
1323.29	282
1324.67	280
1326.04	270
1327.42	290
1328.79	288
1330.17	308
1331.54	284
1332.92	286
1334.29	296
1335.67	272
1337.04	270
1338.42	280
1339.79	266
1341.16	264
1342.53	252
1343.91	264
1345.28	256
1346.65	256
1348.02	260
1349.39	248
1350.76	252
1352.13	250
1353.5	254
1354.87	262
1356.24	258
1357.61	268
1358.98	254
1360.34	248
1361.71	252
1363.08	252
1364.45	262
1365.81	276
1367.18	262
1368.54	270
1369.91	268
1371.28	258
1372.64	262
1374.01	260
1375.37	260
1376.73	260
1378.1	254
1379.46	268
1380.82	248
1382.19	244
1383.55	246
1384.91	242
1386.27	242
1387.63	218
1388.99	222
1390.35	216
1391.71	216
1393.07	218
1394.43	216
1395.79	216
1397.15	224
1398.51	220
1399.87	212
1401.23	214
1402.58	224
1403.94	214
1405.3	226
1406.65	232
1408.01	214
1409.37	224
1410.72	212
1412.08	226
1413.43	206
1414.79	210
1416.14	212
1417.49	208
1418.85	202
1420.2	220
1421.55	216
1422.91	208
1424.26	210
1425.61	212
1426.96	206
1428.31	212
1429.66	206
1431.01	226
1432.36	214
1433.71	228
1435.06	230
1436.41	248
1437.76	246
1439.11	274
1440.46	260
1441.81	300
1443.15	300
1444.5	310
1445.85	326
1447.19	310
1448.54	324
1449.89	310
1451.23	336
1452.58	312
1453.92	294
1455.27	284
1456.61	268
1457.95	252
1459.3	236
1460.64	196
1461.98	202
1463.33	200
1464.67	188
1466.01	194
1467.35	172
1468.69	170
1470.03	178
1471.37	184
1472.71	182
1474.05	190
1475.39	180
1476.73	170
1478.07	180
1479.41	186
1480.75	172
1482.09	180
1483.42	166
1484.76	164
1486.1	166
1487.43	174
1488.77	176
1490.11	172
1491.44	176
1492.78	180
1494.11	176
1495.45	170
1496.78	164
1498.12	156
1499.45	162
1500.78	174
1502.11	164
1503.45	176
1504.78	152
1506.11	158
1507.44	162
1508.77	150
1510.11	166
1511.44	162
1512.77	164
1514.1	150
1515.43	162
1516.76	156
1518.08	156
1519.41	162
1520.74	156
1522.07	158
1523.4	158
1524.72	154
1526.05	172
1527.38	138
1528.7	164
1530.03	156
1531.36	150
1532.68	142
1534.01	144
1535.33	152
1536.66	154
1537.98	154
1539.3	164
1540.63	162
1541.95	148
1543.27	160
1544.6	162
1545.92	164
1547.24	144
1548.56	152
1549.88	150
1551.2	160
1552.52	164
1553.84	156
1555.17	156
1556.48	156
1557.8	160
1559.12	162
1560.44	154
1561.76	162
1563.08	152
1564.4	162
1565.71	164
1567.03	170
1568.35	162
1569.66	178
1570.98	158
1572.29	194
1573.61	190
1574.93	186
1576.24	204
1577.55	234
1578.87	270
1580.18	310
1581.5	376
1582.81	392
1584.12	384
1585.43	348
1586.75	294
1588.06	260
1589.37	222
1590.68	242
1591.99	252
1593.3	262
1594.61	282
1595.92	346
1597.23	402
1598.54	502
1599.85	630
1601.16	648
1602.47	684
1603.78	628
1605.08	546
1606.39	434
1607.7	380
1609	322
1610.31	264
1611.62	246
1612.92	220
1614.23	200
1615.53	194
1616.84	174
1618.14	176
1619.45	180
1620.75	170
1622.06	156
1623.36	164
1624.66	168
1625.96	154
1627.27	154
1628.57	142
1629.87	140
1631.17	148
1632.47	132
1633.77	156
1635.07	140
1636.37	128
1637.67	144
1638.97	144
1640.27	138
1641.57	150
1642.87	140
1644.17	146
1645.47	144
1646.76	146
1648.06	138
1649.36	154
1650.66	128
1651.95	132
1653.25	138
1654.54	134
1655.84	138
1657.13	132
1658.43	124
1659.72	124
1661.02	140
1662.31	120
1663.6	134
1664.9	130
1666.19	122
1667.48	126
1668.78	134
1670.07	120
1671.36	120
1672.65	124
1673.94	134
1675.23	124
1676.52	120
1677.81	122
1679.1	126
1680.39	132
1681.68	120
1682.97	120
1684.26	124
1685.55	118
1686.83	126
1688.12	120
1689.41	116
1690.7	116
1691.98	124
1693.27	122
1694.55	116
1695.84	116
1697.13	124
1698.41	116
1699.69	126
1700.98	120
1702.26	114