File: Mixture_Classification/Jesse_Dataset_v2/Pure Raman/Polystyrene/785nm/ps-ppo-6jan25-1,0000-map3_Y10_X08.txt
204.377	824
206.045	884
207.713	892
209.38	882
211.048	910
212.715	890
214.381	924
216.047	912
217.712	898
219.377	924
221.042	938
222.706	930
224.369	884
226.032	862
227.695	806
229.357	768
231.019	718
232.68	692
234.341	618
236.001	602
237.661	544
239.321	502
240.98	448
242.639	412
244.297	404
245.955	360
247.612	336
249.268	320
250.924	300
252.58	300
254.236	308
255.891	294
257.546	286
259.2	282
260.854	272
262.507	270
264.16	270
265.812	264
267.463	256
269.115	264
270.766	256
272.417	244
274.067	248
275.717	234
277.365	232
279.014	236
280.663	234
282.311	230
283.958	218
285.605	234
287.252	206
288.898	204
290.543	182
292.188	186
293.833	182
295.477	174
297.121	184
298.765	192
300.407	174
302.05	182
303.693	172
305.334	168
306.975	158
308.615	174
310.256	182
311.896	172
313.535	168
315.175	188
316.813	170
318.451	178
320.089	186
321.726	176
323.362	186
324.999	186
326.635	178
328.271	178
329.905	180
331.54	170
333.174	178
334.807	170
336.441	180
338.074	162
339.707	166
341.338	160
342.969	162
344.601	178
346.231	172
347.861	166
349.491	176
351.12	160
352.749	158
354.378	154
356.006	148
357.633	142
359.261	156
360.887	168
362.513	144
364.139	156
365.764	158
367.39	162
369.014	170
370.638	162
372.261	162
373.884	168
375.508	174
377.13	180
378.752	178
380.373	164
381.994	188
383.615	176
385.235	186
386.854	184
388.473	198
390.092	200
391.711	196
393.328	200
394.947	192
396.564	200
398.181	198
399.797	210
401.412	226
403.027	226
404.642	246
406.257	242
407.871	256
409.484	234
411.098	224
412.711	204
414.323	194
415.935	208
417.547	180
419.158	196
420.768	178
422.378	186
423.988	154
425.597	172
427.206	164
428.814	146
430.422	150
432.03	160
433.637	132
435.243	150
436.85	148
438.456	146
440.062	150
441.666	154
443.271	142
444.876	146
446.479	140
448.082	140
449.685	140
451.287	134
452.89	120
454.492	122
456.092	122
457.693	114
459.293	128
460.893	116
462.492	110
464.092	106
465.691	106
467.288	112
468.887	116
470.483	108
472.081	106
473.677	108
475.273	108
476.869	114
478.463	112
480.059	102
481.653	116
483.247	108
484.84	108
486.433	100
488.026	106
489.618	102
491.21	98
492.801	92
494.392	106
495.983	108
497.573	98
499.162	118
500.752	110
502.341	118
503.929	130
505.517	112
507.105	120
508.692	112
510.279	104
511.865	114
513.45	112
515.037	114
516.621	122
518.206	128
519.79	110
521.374	116
522.957	126
524.54	120
526.123	132
527.705	126
529.287	140
530.868	134
532.448	138
534.029	140
535.609	148
537.188	158
538.768	148
540.346	158
541.925	148
543.502	152
545.08	146
546.657	150
548.234	156
549.81	150
551.386	154
552.961	152
554.536	144
556.11	148
557.684	142
559.258	128
560.832	148
562.405	150
563.977	136
565.55	146
567.12	144
568.692	140
570.263	140
571.833	156
573.403	142
574.973	146
576.542	142
578.111	138
579.679	122
581.247	124
582.815	112
584.382	122
585.948	118
587.514	114
589.081	104
590.645	122
592.211	102
593.775	112
595.339	118
596.904	112
598.466	126
600.03	118
601.592	126
603.154	128
604.715	130
606.277	146
607.838	172
609.398	160
610.958	146
612.518	170
614.077	190
615.636	236
617.194	328
618.753	534
620.31	742
621.867	686
623.424	446
624.98	286
626.537	210
628.092	164
629.647	144
631.202	150
632.756	130
634.31	116
635.864	106
637.417	98
638.969	110
640.521	90
642.074	94
643.625	92
645.176	96
646.726	80
648.276	80
649.827	82
651.376	86
652.925	80
654.473	84
656.021	76
657.569	76
659.117	84
660.664	88
662.21	84
663.757	86
665.302	86
666.847	92
668.392	78
669.937	90
671.481	74
673.025	74
674.568	82
676.111	80
677.653	76
679.195	78
680.737	88
682.279	80
683.82	88
685.36	80
686.9	84
688.44	78
689.979	88
691.517	82
693.056	88
694.594	82
696.132	88
697.669	92
699.206	98
700.742	104
702.278	100
703.814	98
705.35	108
706.884	96
708.419	106
709.953	96
711.487	98
713.019	100
714.552	104
716.085	94
717.617	102
719.148	108
720.68	116
722.21	138
723.741	142
725.271	158
726.8	146
728.33	128
729.858	118
731.387	130
732.915	138
734.443	140
735.97	144
737.497	172
739.023	170
740.549	174
742.075	182
743.6	182
745.125	188
746.65	190
748.173	196
749.697	212
751.22	200
752.743	220
754.266	216
755.788	248
757.309	234
758.831	236
760.351	236
761.871	226
763.392	236
764.912	230
766.431	228
767.95	210
769.468	204
770.986	202
772.504	184
774.022	198
775.538	212
777.055	196
778.571	204
780.086	226
781.602	228
783.117	242
784.632	254
786.146	272
787.659	300
789.173	318
790.685	326
792.198	332
793.71	338
795.222	342
796.733	330
798.244	326
799.755	312
801.265	262
802.775	254
804.284	234
805.793	220
807.302	212
808.81	192
810.318	186
811.826	178
813.333	160
814.84	156
816.346	148
817.851	140
819.357	132
820.862	126
822.367	116
823.871	106
825.376	112
826.878	106
828.382	114
829.885	106
831.387	112
832.889	136
834.391	140
835.892	140
837.392	146
838.893	166
840.393	146
841.893	162
843.392	164
844.891	172
846.389	150
847.888	152
849.386	128
850.882	134
852.38	132
853.876	138
855.372	136
856.868	128
858.363	126
859.858	122
861.353	130
862.847	120
864.341	124
865.834	128
867.328	128
868.82	118
870.313	124
871.805	124
873.296	120
874.787	114
876.278	112
877.769	116
879.258	112
880.748	122
882.237	118
883.726	118
885.214	118
886.702	114
888.19	114
889.677	106
891.164	116
892.651	118
894.137	116
895.623	114
897.108	116
898.593	118
900.077	130
901.562	138
903.046	148
904.529	150
906.012	154
907.495	146
908.977	134
910.459	136
911.941	134
913.422	126
914.903	118
916.383	116
917.863	110
919.343	94
920.822	100
922.301	94
923.779	98
925.257	104
926.735	104
928.213	98
929.69	106
931.166	104
932.643	94
934.119	106
935.594	98
937.069	104
938.543	100
940.018	100
941.492	96
942.966	104
944.439	90
945.911	106
947.384	102
948.856	112
950.328	100
951.799	104
953.27	94
954.741	106
956.21	102
957.68	104
959.15	100
960.619	122
962.088	106
963.556	144
965.023	128
966.491	138
967.958	140
969.425	120
970.891	134
972.357	136
973.824	140
975.288	138
976.754	150
978.218	168
979.682	174
981.146	214
982.609	226
984.072	258
985.534	284
986.997	322
988.459	442
989.92	590
991.382	808
992.842	864
994.302	778
995.763	858
997.222	1268
998.681	2002
1000.14	2986
1001.6	3344
1003.06	2866
1004.52	1928
1005.97	1180
1007.43	662
1008.89	462
1010.34	318
1011.8	230
1013.25	218
1014.71	188
1016.16	172
1017.62	190
1019.07	200
1020.53	222
1021.98	254
1023.43	296
1024.89	382
1026.34	522
1027.79	660
1029.24	760
1030.69	888
1032.14	910
1033.59	834
1035.04	670
1036.49	536
1037.94	404
1039.39	320
1040.84	240
1042.29	248
1043.73	190
1045.18	186
1046.63	188
1048.08	166
1049.52	160
1050.97	160
1052.41	166
1053.86	164
1055.3	160
1056.75	146
1058.19	150
1059.64	164
1061.08	166
1062.52	166
1063.96	170
1065.41	168
1066.85	176
1068.29	192
1069.73	186
1071.17	176
1072.61	180
1074.05	178
1075.49	184
1076.93	180
1078.37	168
1079.81	174
1081.25	164
1082.68	164
1084.12	170
1085.56	162
1087	158
1088.43	168
1089.87	182
1091.3	160
1092.74	176
1094.17	164
1095.61	170
1097.04	170
1098.48	178
1099.91	186
1101.34	158
1102.78	168
1104.21	154
1105.64	148
1107.07	150
1108.5	146
1109.93	146
1111.36	132
1112.8	140
1114.22	124
1115.65	132
1117.08	116
1118.51	124
1119.94	114
1121.37	106
1122.8	104
1124.22	104
1125.65	114
1127.08	100
1128.5	106
1129.93	112
1131.35	114
1132.78	98
1134.2	116
1135.63	114
1137.05	114
1138.48	114
1139.9	132
1141.32	130
1142.75	142
1144.17	150
1145.59	170
1147.01	174
1148.43	198
1149.85	244
1151.27	294
1152.69	364
1154.11	402
1155.53	414
1156.95	398
1158.37	342
1159.79	308
1161.21	254
1162.62	228
1164.04	212
1165.46	208
1166.87	198
1168.29	206
1169.71	210
1171.12	228
1172.54	240
1173.95	272
1175.37	318
1176.78	376
1178.19	412
1179.61	498
1181.02	522
1182.43	540
1183.84	506
1185.26	468
1186.67	442
1188.08	456
1189.49	442
1190.9	462
1192.31	470
1193.72	496
1195.13	504
1196.54	532
1197.95	492
1199.36	480
1200.76	502
1202.17	474
1203.58	456
1204.99	410
1206.39	382
1207.8	334
1209.2	326
1210.61	300
1212.01	258
1213.42	236
1214.82	226
1216.23	236
1217.63	220
1219.03	218
1220.44	216
1221.84	208
1223.24	204
1224.64	194
1226.05	192
1227.45	196
1228.85	184
1230.25	196
1231.65	184
1233.05	180
1234.45	178
1235.85	178
1237.25	180
1238.64	164
1240.04	180
1241.44	166
1242.84	172
1244.23	186
1245.63	154
1247.03	164
1248.42	182
1249.82	170
1251.21	172
1252.61	184
1254	168
1255.4	168
1256.79	172
1258.19	170
1259.58	176
1260.97	184
1262.36	180
1263.76	176
1265.15	178
1266.54	174
1267.93	182
1269.32	164
1270.71	180
1272.1	184
1273.49	182
1274.88	180
1276.27	186
1277.66	176
1279.05	180
1280.43	180
1281.82	166
1283.21	186
1284.6	186
1285.98	188
1287.37	176
1288.75	190
1290.14	212
1291.53	190
1292.91	208
1294.29	188
1295.68	210
1297.06	202
1298.45	220
1299.83	214
1301.21	220
1302.59	224
1303.98	226
1305.36	228
1306.74	236
1308.12	222
1309.5	220
1310.88	238
1312.26	232
1313.64	250
1315.02	244
1316.4	252
1317.78	272
1319.16	270
1320.53	288
1321.91	292
1323.29	292
1324.67	290
1326.04	290
1327.42	312
1328.79	318
1330.17	310
1331.54	296
1332.92	294
1334.29	302
1335.67	274
1337.04	294
1338.42	280
1339.79	296
1341.16	282
1342.53	290
1343.91	288
1345.28	290
1346.65	266
1348.02	284
1349.39	280
1350.76	270
1352.13	294
1353.5	272
1354.87	260
1356.24	258
1357.61	266
1358.98	286
1360.34	276
1361.71	284
1363.08	286
1364.45	278
1365.81	278
1367.18	288
1368.54	294
1369.91	278
1371.28	302
1372.64	288
1374.01	288
1375.37	294
1376.73	310
1378.1	288
1379.46	290
1380.82	272
1382.19	268
1383.55	256
1384.91	278
1386.27	252
1387.63	258
1388.99	250
1390.35	248
1391.71	254
1393.07	246
1394.43	246
1395.79	252
1397.15	242
1398.51	232
1399.87	238
1401.23	254
1402.58	240
1403.94	248
1405.3	234
1406.65	236
1408.01	246
1409.37	234
1410.72	250
1412.08	226
1413.43	242
1414.79	218
1416.14	244
1417.49	232
1418.85	232
1420.2	226
1421.55	244
1422.91	226
1424.26	236
1425.61	238
1426.96	226
1428.31	226
1429.66	234
1431.01	240
1432.36	250
1433.71	246
1435.06	250
1436.41	284
1437.76	266
1439.11	288
1440.46	288
1441.81	294
1443.15	316
1444.5	328
1445.85	332
1447.19	338
1448.54	352
1449.89	348
1451.23	344
1452.58	336
1453.92	328
1455.27	300
1456.61	280
1457.95	240
1459.3	248
1460.64	220
1461.98	224
1463.33	224
1464.67	210
1466.01	206
1467.35	210
1468.69	204
1470.03	200
1471.37	208
1472.71	202
1474.05	188
1475.39	198
1476.73	208
1478.07	196
1479.41	196
1480.75	176
1482.09	194
1483.42	196
1484.76	180
1486.1	200
1487.43	202
1488.77	200
1490.11	194
1491.44	198
1492.78	198
1494.11	182
1495.45	202
1496.78	182
1498.12	178
1499.45	186
1500.78	166
1502.11	180
1503.45	194
1504.78	172
1506.11	168
1507.44	172
1508.77	170
1510.11	178
1511.44	174
1512.77	186
1514.1	170
1515.43	184
1516.76	180
1518.08	180
1519.41	178
1520.74	162
1522.07	168
1523.4	170
1524.72	174
1526.05	176
1527.38	184
1528.7	168
1530.03	168
1531.36	174
1532.68	180
1534.01	168
1535.33	164
1536.66	162
1537.98	170
1539.3	172
1540.63	170
1541.95	168
1543.27	178
1544.6	166
1545.92	170
1547.24	164
1548.56	172
1549.88	184
1551.2	164
1552.52	170
1553.84	176
1555.17	150
1556.48	160
1557.8	178
1559.12	170
1560.44	162
1561.76	182
1563.08	180
1564.4	172
1565.71	174
1567.03	168
1568.35	196
1569.66	194
1570.98	192
1572.29	188
1573.61	198
1574.93	210
1576.24	224
1577.55	244
1578.87	286
1580.18	342
1581.5	416
1582.81	428
1584.12	426
1585.43	358
1586.75	292
1588.06	270
1589.37	266
1590.68	252
1591.99	254
1593.3	296
1594.61	308
1595.92	376
1597.23	438
1598.54	522
1599.85	638
1601.16	692
1602.47	678
1603.78	652
1605.08	582
1606.39	464
1607.7	376
1609	320
1610.31	276
1611.62	244
1612.92	228
1614.23	204
1615.53	218
1616.84	176
1618.14	196
1619.45	194
1620.75	180
1622.06	184
1623.36	184
1624.66	164
1625.96	178
1627.27	156
1628.57	156
1629.87	162
1631.17	164
1632.47	168
1633.77	156
1635.07	156
1636.37	152
1637.67	150
1638.97	160
1640.27	136
1641.57	164
1642.87	164
1644.17	160
1645.47	170
1646.76	158
1648.06	172
1649.36	152
1650.66	154
1651.95	150
1653.25	152
1654.54	146
1655.84	152
1657.13	144
1658.43	138
1659.72	140
1661.02	158
1662.31	140
1663.6	152
1664.9	140
1666.19	140
1667.48	132
1668.78	140
1670.07	140
1671.36	138
1672.65	134
1673.94	130
1675.23	140
1676.52	122
1677.81	130
1679.1	136
1680.39	126
1681.68	134
1682.97	148
1684.26	134
1685.55	134
1686.83	136
1688.12	136
1689.41	126
1690.7	138
1691.98	126
1693.27	122
1694.55	138
1695.84	130
1697.13	128
1698.41	132
1699.69	134
1700.98	122
1702.26	122