File: Mixture_Classification/Jesse_Dataset_v2/Pure Raman/Polystyrene/785nm/ps-ppo-6jan25-1,0000-map3_Y10_X03.txt
204.377	834
206.045	874
207.713	876
209.38	866
211.048	890
212.715	884
214.381	910
216.047	892
217.712	916
219.377	928
221.042	916
222.706	930
224.369	870
226.032	850
227.695	800
229.357	782
231.019	706
232.68	658
234.341	644
236.001	600
237.661	554
239.321	484
240.98	436
242.639	418
244.297	382
245.955	352
247.612	338
249.268	332
250.924	320
252.58	300
254.236	280
255.891	304
257.546	272
259.2	282
260.854	266
262.507	254
264.16	266
265.812	248
267.463	248
269.115	250
270.766	264
272.417	232
274.067	236
275.717	238
277.365	220
279.014	234
280.663	230
282.311	228
283.958	190
285.605	202
287.252	190
288.898	192
290.543	188
292.188	184
293.833	176
295.477	184
297.121	176
298.765	164
300.407	172
302.05	162
303.693	166
305.334	166
306.975	178
308.615	168
310.256	172
311.896	166
313.535	162
315.175	174
316.813	172
318.451	170
320.089	168
321.726	164
323.362	156
324.999	158
326.635	168
328.271	168
329.905	172
331.54	162
333.174	170
334.807	172
336.441	160
338.074	170
339.707	164
341.338	176
342.969	170
344.601	162
346.231	156
347.861	140
349.491	152
351.12	152
352.749	152
354.378	164
356.006	150
357.633	146
359.261	136
360.887	160
362.513	152
364.139	144
365.764	150
367.39	152
369.014	146
370.638	156
372.261	156
373.884	164
375.508	156
377.13	146
378.752	160
380.373	168
381.994	158
383.615	184
385.235	176
386.854	172
388.473	188
390.092	176
391.711	190
393.328	188
394.947	196
396.564	180
398.181	192
399.797	206
401.412	202
403.027	226
404.642	224
406.257	226
407.871	226
409.484	230
411.098	226
412.711	194
414.323	188
415.935	182
417.547	172
419.158	176
420.768	172
422.378	168
423.988	160
425.597	146
427.206	152
428.814	150
430.422	142
432.03	142
433.637	152
435.243	142
436.85	132
438.456	136
440.062	128
441.666	126
443.271	136
444.876	134
446.479	134
448.082	124
449.685	126
451.287	106
452.89	112
454.492	114
456.092	110
457.693	108
459.293	104
460.893	106
462.492	110
464.092	100
465.691	112
467.288	104
468.887	106
470.483	98
472.081	100
473.677	98
475.273	102
476.869	106
478.463	98
480.059	104
481.653	104
483.247	94
484.84	100
486.433	92
488.026	94
489.618	98
491.21	96
492.801	108
494.392	102
495.983	102
497.573	100
499.162	104
500.752	104
502.341	114
503.929	114
505.517	94
507.105	112
508.692	92
510.279	106
511.865	108
513.45	104
515.037	102
516.621	98
518.206	108
519.79	102
521.374	110
522.957	116
524.54	114
526.123	112
527.705	130
529.287	124
530.868	122
532.448	132
534.029	136
535.609	144
537.188	138
538.768	146
540.346	144
541.925	164
543.502	140
545.08	152
546.657	144
548.234	136
549.81	158
551.386	136
552.961	142
554.536	140
556.11	136
557.684	136
559.258	138
560.832	136
562.405	126
563.977	136
565.55	144
567.12	130
568.692	132
570.263	132
571.833	134
573.403	132
574.973	130
576.542	136
578.111	124
579.679	122
581.247	106
582.815	110
584.382	118
585.948	108
587.514	114
589.081	110
590.645	114
592.211	110
593.775	108
595.339	106
596.904	112
598.466	116
600.03	114
601.592	112
603.154	118
604.715	144
606.277	152
607.838	146
609.398	152
610.958	150
612.518	162
614.077	192
615.636	214
617.194	318
618.753	540
620.31	724
621.867	670
623.424	446
624.98	262
626.537	186
628.092	164
629.647	140
631.202	128
632.756	120
634.31	100
635.864	102
637.417	96
638.969	94
640.521	78
642.074	88
643.625	82
645.176	82
646.726	74
648.276	86
649.827	76
651.376	68
652.925	74
654.473	84
656.021	74
657.569	74
659.117	76
660.664	76
662.21	76
663.757	78
665.302	78
666.847	72
668.392	70
669.937	78
671.481	74
673.025	74
674.568	76
676.111	74
677.653	66
679.195	78
680.737	72
682.279	72
683.82	70
685.36	72
686.9	72
688.44	72
689.979	72
691.517	78
693.056	76
694.594	76
696.132	88
697.669	82
699.206	94
700.742	98
702.278	94
703.814	94
705.35	104
706.884	106
708.419	80
709.953	92
711.487	92
713.019	98
714.552	94
716.085	96
717.617	98
719.148	112
720.68	114
722.21	142
723.741	142
725.271	150
726.8	134
728.33	134
729.858	120
731.387	124
732.915	112
734.443	124
735.97	154
737.497	152
739.023	176
740.549	182
742.075	202
743.6	172
745.125	186
746.65	174
748.173	172
749.697	192
751.22	200
752.743	202
754.266	210
755.788	212
757.309	226
758.831	242
760.351	250
761.871	234
763.392	226
764.912	214
766.431	222
767.95	212
769.468	208
770.986	202
772.504	210
774.022	206
775.538	198
777.055	200
778.571	202
780.086	198
781.602	228
783.117	234
784.632	258
786.146	258
787.659	268
789.173	310
790.685	322
792.198	336
793.71	336
795.222	340
796.733	346
798.244	324
799.755	296
801.265	280
802.775	256
804.284	220
805.793	206
807.302	184
808.81	180
810.318	184
811.826	168
813.333	160
814.84	150
816.346	140
817.851	134
819.357	124
820.862	120
822.367	114
823.871	120
825.376	112
826.878	110
828.382	110
829.885	116
831.387	108
832.889	126
834.391	134
835.892	132
837.392	144
838.893	152
840.393	150
841.893	150
843.392	154
844.891	146
846.389	152
847.888	150
849.386	140
850.882	126
852.38	132
853.876	130
855.372	128
856.868	124
858.363	122
859.858	114
861.353	124
862.847	120
864.341	126
865.834	118
867.328	116
868.82	130
870.313	122
871.805	122
873.296	120
874.787	114
876.278	118
877.769	126
879.258	116
880.748	112
882.237	118
883.726	122
885.214	102
886.702	116
888.19	118
889.677	110
891.164	120
892.651	118
894.137	110
895.623	116
897.108	120
898.593	122
900.077	128
901.562	132
903.046	136
904.529	148
906.012	160
907.495	144
908.977	150
910.459	130
911.941	138
913.422	136
914.903	116
916.383	98
917.863	108
919.343	104
920.822	100
922.301	96
923.779	98
925.257	104
926.735	88
928.213	96
929.69	90
931.166	94
932.643	102
934.119	96
935.594	96
937.069	98
938.543	108
940.018	100
941.492	100
942.966	94
944.439	96
945.911	100
947.384	102
948.856	104
950.328	100
951.799	86
953.27	100
954.741	106
956.21	106
957.68	112
959.15	112
960.619	116
962.088	118
963.556	116
965.023	126
966.491	116
967.958	128
969.425	124
970.891	120
972.357	132
973.824	138
975.288	134
976.754	158
978.218	164
979.682	192
981.146	206
982.609	230
984.072	246
985.534	282
986.997	320
988.459	432
989.92	610
991.382	786
992.842	826
994.302	778
995.763	856
997.222	1224
998.681	2022
1000.14	2948
1001.6	3320
1003.06	2914
1004.52	1944
1005.97	1152
1007.43	686
1008.89	440
1010.34	314
1011.8	262
1013.25	198
1014.71	192
1016.16	182
1017.62	174
1019.07	202
1020.53	224
1021.98	266
1023.43	322
1024.89	404
1026.34	500
1027.79	646
1029.24	790
1030.69	876
1032.14	872
1033.59	818
1035.04	686
1036.49	510
1037.94	398
1039.39	320
1040.84	266
1042.29	230
1043.73	204
1045.18	166
1046.63	174
1048.08	180
1049.52	158
1050.97	146
1052.41	160
1053.86	144
1055.3	152
1056.75	156
1058.19	158
1059.64	168
1061.08	152
1062.52	166
1063.96	168
1065.41	154
1066.85	172
1068.29	174
1069.73	176
1071.17	178
1072.61	168
1074.05	160
1075.49	166
1076.93	162
1078.37	164
1079.81	166
1081.25	164
1082.68	146
1084.12	184
1085.56	162
1087	160
1088.43	168
1089.87	162
1091.3	160
1092.74	166
1094.17	162
1095.61	178
1097.04	174
1098.48	164
1099.91	172
1101.34	164
1102.78	156
1104.21	152
1105.64	142
1107.07	146
1108.5	146
1109.93	138
1111.36	118
1112.8	134
1114.22	130
1115.65	124
1117.08	118
1118.51	124
1119.94	114
1121.37	104
1122.8	98
1124.22	102
1125.65	106
1127.08	110
1128.5	112
1129.93	116
1131.35	104
1132.78	110
1134.2	106
1135.63	114
1137.05	116
1138.48	130
1139.9	124
1141.32	128
1142.75	136
1144.17	152
1145.59	150
1147.01	164
1148.43	188
1149.85	236
1151.27	292
1152.69	342
1154.11	398
1155.53	400
1156.95	398
1158.37	346
1159.79	292
1161.21	256
1162.62	234
1164.04	214
1165.46	216
1166.87	208
1168.29	206
1169.71	210
1171.12	230
1172.54	250
1173.95	256
1175.37	298
1176.78	340
1178.19	418
1179.61	480
1181.02	512
1182.43	538
1183.84	504
1185.26	458
1186.67	428
1188.08	406
1189.49	448
1190.9	448
1192.31	468
1193.72	494
1195.13	500
1196.54	496
1197.95	498
1199.36	480
1200.76	496
1202.17	456
1203.58	442
1204.99	410
1206.39	374
1207.8	360
1209.2	306
1210.61	294
1212.01	262
1213.42	246
1214.82	230
1216.23	230
1217.63	196
1219.03	206
1220.44	206
1221.84	208
1223.24	198
1224.64	198
1226.05	182
1227.45	202
1228.85	186
1230.25	188
1231.65	186
1233.05	178
1234.45	182
1235.85	166
1237.25	174
1238.64	176
1240.04	162
1241.44	174
1242.84	162
1244.23	164
1245.63	176
1247.03	158
1248.42	170
1249.82	160
1251.21	164
1252.61	182
1254	164
1255.4	166
1256.79	170
1258.19	166
1259.58	170
1260.97	164
1262.36	178
1263.76	168
1265.15	180
1266.54	180
1267.93	172
1269.32	174
1270.71	166
1272.1	172
1273.49	166
1274.88	164
1276.27	174
1277.66	162
1279.05	178
1280.43	168
1281.82	176
1283.21	168
1284.6	182
1285.98	168
1287.37	166
1288.75	188
1290.14	174
1291.53	200
1292.91	196
1294.29	196
1295.68	182
1297.06	206
1298.45	210
1299.83	216
1301.21	206
1302.59	212
1303.98	220
1305.36	222
1306.74	224
1308.12	216
1309.5	216
1310.88	232
1312.26	236
1313.64	242
1315.02	232
1316.4	256
1317.78	242
1319.16	266
1320.53	278
1321.91	268
1323.29	290
1324.67	300
1326.04	288
1327.42	300
1328.79	292
1330.17	288
1331.54	278
1332.92	296
1334.29	298
1335.67	278
1337.04	278
1338.42	284
1339.79	258
1341.16	272
1342.53	266
1343.91	274
1345.28	272
1346.65	258
1348.02	258
1349.39	268
1350.76	264
1352.13	272
1353.5	270
1354.87	280
1356.24	258
1357.61	276
1358.98	250
1360.34	286
1361.71	276
1363.08	264
1364.45	284
1365.81	272
1367.18	270
1368.54	276
1369.91	270
1371.28	274
1372.64	306
1374.01	276
1375.37	284
1376.73	280
1378.1	272
1379.46	262
1380.82	264
1382.19	270
1383.55	250
1384.91	244
1386.27	246
1387.63	234
1388.99	236
1390.35	240
1391.71	234
1393.07	230
1394.43	246
1395.79	230
1397.15	230
1398.51	234
1399.87	226
1401.23	240
1402.58	222
1403.94	238
1405.3	234
1406.65	228
1408.01	236
1409.37	234
1410.72	232
1412.08	226
1413.43	228
1414.79	234
1416.14	218
1417.49	228
1418.85	226
1420.2	222
1421.55	212
1422.91	216
1424.26	222
1425.61	218
1426.96	228
1428.31	226
1429.66	210
1431.01	224
1432.36	238
1433.71	240
1435.06	260
1436.41	254
1437.76	278
1439.11	284
1440.46	294
1441.81	292
1443.15	302
1444.5	330
1445.85	326
1447.19	332
1448.54	340
1449.89	332
1451.23	338
1452.58	310
1453.92	320
1455.27	288
1456.61	254
1457.95	236
1459.3	210
1460.64	224
1461.98	212
1463.33	202
1464.67	214
1466.01	202
1467.35	192
1468.69	184
1470.03	186
1471.37	192
1472.71	182
1474.05	188
1475.39	180
1476.73	184
1478.07	192
1479.41	174
1480.75	188
1482.09	182
1483.42	180
1484.76	180
1486.1	172
1487.43	198
1488.77	192
1490.11	178
1491.44	194
1492.78	190
1494.11	192
1495.45	178
1496.78	176
1498.12	178
1499.45	174
1500.78	178
1502.11	158
1503.45	176
1504.78	174
1506.11	174
1507.44	174
1508.77	182
1510.11	156
1511.44	172
1512.77	170
1514.1	164
1515.43	168
1516.76	164
1518.08	158
1519.41	168
1520.74	156
1522.07	174
1523.4	162
1524.72	168
1526.05	170
1527.38	164
1528.7	158
1530.03	164
1531.36	166
1532.68	166
1534.01	162
1535.33	158
1536.66	168
1537.98	154
1539.3	158
1540.63	156
1541.95	164
1543.27	152
1544.6	160
1545.92	166
1547.24	166
1548.56	160
1549.88	160
1551.2	160
1552.52	158
1553.84	154
1555.17	174
1556.48	160
1557.8	164
1559.12	170
1560.44	158
1561.76	156
1563.08	166
1564.4	168
1565.71	162
1567.03	170
1568.35	176
1569.66	174
1570.98	176
1572.29	192
1573.61	180
1574.93	198
1576.24	216
1577.55	226
1578.87	262
1580.18	302
1581.5	376
1582.81	422
1584.12	406
1585.43	344
1586.75	300
1588.06	276
1589.37	250
1590.68	244
1591.99	274
1593.3	298
1594.61	312
1595.92	342
1597.23	442
1598.54	514
1599.85	606
1601.16	662
1602.47	698
1603.78	632
1605.08	534
1606.39	470
1607.7	370
1609	336
1610.31	268
1611.62	246
1612.92	224
1614.23	210
1615.53	210
1616.84	194
1618.14	180
1619.45	198
1620.75	176
1622.06	174
1623.36	174
1624.66	152
1625.96	146
1627.27	154
1628.57	158
1629.87	152
1631.17	156
1632.47	150
1633.77	162
1635.07	144
1636.37	146
1637.67	146
1638.97	144
1640.27	162
1641.57	144
1642.87	154
1644.17	150
1645.47	154
1646.76	160
1648.06	156
1649.36	146
1650.66	148
1651.95	148
1653.25	150
1654.54	138
1655.84	148
1657.13	126
1658.43	148
1659.72	124
1661.02	132
1662.31	126
1663.6	132
1664.9	142
1666.19	132
1667.48	128
1668.78	132
1670.07	130
1671.36	128
1672.65	132
1673.94	128
1675.23	132
1676.52	122
1677.81	134
1679.1	124
1680.39	128
1681.68	140
1682.97	132
1684.26	134
1685.55	132
1686.83	132
1688.12	122
1689.41	124
1690.7	126
1691.98	120
1693.27	126
1694.55	120
1695.84	118
1697.13	122
1698.41	132
1699.69	118
1700.98	120
1702.26	124