File: Mixture_Classification/Jesse_Dataset_v2/Pure Raman/Polystyrene/785nm/ps-ppo-6jan25-1,0000-map3_Y03_X05.txt
204.377	832
206.045	826
207.713	878
209.38	880
211.048	890
212.715	888
214.381	904
216.047	878
217.712	904
219.377	922
221.042	878
222.706	910
224.369	886
226.032	820
227.695	822
229.357	758
231.019	716
232.68	654
234.341	616
236.001	558
237.661	552
239.321	514
240.98	442
242.639	424
244.297	366
245.955	360
247.612	342
249.268	318
250.924	302
252.58	298
254.236	272
255.891	266
257.546	258
259.2	274
260.854	256
262.507	262
264.16	258
265.812	242
267.463	244
269.115	242
270.766	246
272.417	240
274.067	228
275.717	218
277.365	232
279.014	226
280.663	222
282.311	222
283.958	204
285.605	216
287.252	204
288.898	202
290.543	186
292.188	168
293.833	174
295.477	170
297.121	156
298.765	152
300.407	162
302.05	164
303.693	154
305.334	178
306.975	156
308.615	154
310.256	156
311.896	172
313.535	164
315.175	158
316.813	164
318.451	160
320.089	174
321.726	174
323.362	166
324.999	154
326.635	156
328.271	174
329.905	148
331.54	176
333.174	168
334.807	164
336.441	164
338.074	156
339.707	164
341.338	164
342.969	158
344.601	160
346.231	150
347.861	150
349.491	148
351.12	144
352.749	150
354.378	152
356.006	148
357.633	144
359.261	146
360.887	138
362.513	146
364.139	150
365.764	144
367.39	148
369.014	148
370.638	144
372.261	154
373.884	164
375.508	148
377.13	154
378.752	166
380.373	168
381.994	156
383.615	176
385.235	174
386.854	180
388.473	174
390.092	198
391.711	188
393.328	180
394.947	190
396.564	196
398.181	194
399.797	184
401.412	218
403.027	218
404.642	222
406.257	230
407.871	232
409.484	208
411.098	206
412.711	200
414.323	182
415.935	194
417.547	178
419.158	164
420.768	162
422.378	154
423.988	152
425.597	154
427.206	154
428.814	146
430.422	134
432.03	142
433.637	138
435.243	146
436.85	136
438.456	124
440.062	130
441.666	114
443.271	120
444.876	126
446.479	118
448.082	126
449.685	116
451.287	126
452.89	106
454.492	110
456.092	102
457.693	108
459.293	104
460.893	110
462.492	106
464.092	102
465.691	92
467.288	92
468.887	98
470.483	100
472.081	98
473.677	100
475.273	96
476.869	98
478.463	98
480.059	98
481.653	94
483.247	102
484.84	84
486.433	90
488.026	96
489.618	102
491.21	92
492.801	100
494.392	92
495.983	110
497.573	98
499.162	96
500.752	104
502.341	102
503.929	108
505.517	106
507.105	104
508.692	102
510.279	106
511.865	106
513.45	104
515.037	102
516.621	106
518.206	106
519.79	108
521.374	104
522.957	110
524.54	106
526.123	120
527.705	116
529.287	120
530.868	134
532.448	132
534.029	142
535.609	142
537.188	132
538.768	152
540.346	158
541.925	152
543.502	144
545.08	144
546.657	142
548.234	140
549.81	142
551.386	132
552.961	124
554.536	128
556.11	138
557.684	130
559.258	132
560.832	126
562.405	122
563.977	116
565.55	124
567.12	132
568.692	136
570.263	130
571.833	138
573.403	138
574.973	138
576.542	132
578.111	128
579.679	130
581.247	114
582.815	120
584.382	96
585.948	110
587.514	104
589.081	102
590.645	110
592.211	110
593.775	104
595.339	108
596.904	102
598.466	110
600.03	110
601.592	106
603.154	124
604.715	128
606.277	144
607.838	134
609.398	148
610.958	140
612.518	144
614.077	186
615.636	222
617.194	308
618.753	506
620.31	698
621.867	726
623.424	442
624.98	288
626.537	198
628.092	156
629.647	150
631.202	128
632.756	116
634.31	110
635.864	98
637.417	100
638.969	98
640.521	84
642.074	84
643.625	80
645.176	84
646.726	84
648.276	70
649.827	76
651.376	74
652.925	74
654.473	74
656.021	68
657.569	72
659.117	76
660.664	74
662.21	76
663.757	70
665.302	76
666.847	68
668.392	76
669.937	76
671.481	76
673.025	74
674.568	76
676.111	70
677.653	80
679.195	70
680.737	66
682.279	72
683.82	66
685.36	74
686.9	70
688.44	68
689.979	74
691.517	72
693.056	74
694.594	74
696.132	80
697.669	82
699.206	84
700.742	92
702.278	96
703.814	96
705.35	94
706.884	92
708.419	92
709.953	100
711.487	88
713.019	92
714.552	92
716.085	94
717.617	94
719.148	100
720.68	104
722.21	126
723.741	154
725.271	150
726.8	136
728.33	124
729.858	120
731.387	122
732.915	116
734.443	124
735.97	138
737.497	166
739.023	172
740.549	172
742.075	182
743.6	184
745.125	184
746.65	176
748.173	182
749.697	194
751.22	198
752.743	202
754.266	214
755.788	214
757.309	222
758.831	234
760.351	230
761.871	222
763.392	228
764.912	208
766.431	200
767.95	212
769.468	194
770.986	200
772.504	176
774.022	194
775.538	198
777.055	202
778.571	206
780.086	212
781.602	216
783.117	248
784.632	262
786.146	280
787.659	298
789.173	280
790.685	304
792.198	334
793.71	324
795.222	344
796.733	350
798.244	338
799.755	310
801.265	290
802.775	252
804.284	230
805.793	210
807.302	196
808.81	184
810.318	174
811.826	154
813.333	160
814.84	160
816.346	142
817.851	130
819.357	126
820.862	120
822.367	116
823.871	116
825.376	106
826.878	106
828.382	106
829.885	106
831.387	108
832.889	114
834.391	124
835.892	134
837.392	138
838.893	156
840.393	154
841.893	156
843.392	152
844.891	150
846.389	152
847.888	150
849.386	134
850.882	140
852.38	126
853.876	124
855.372	126
856.868	122
858.363	118
859.858	122
861.353	124
862.847	122
864.341	110
865.834	132
867.328	114
868.82	120
870.313	128
871.805	126
873.296	124
874.787	112
876.278	124
877.769	122
879.258	112
880.748	118
882.237	116
883.726	104
885.214	110
886.702	100
888.19	116
889.677	110
891.164	106
892.651	98
894.137	106
895.623	112
897.108	122
898.593	118
900.077	126
901.562	136
903.046	140
904.529	150
906.012	152
907.495	142
908.977	134
910.459	138
911.941	126
913.422	116
914.903	112
916.383	106
917.863	110
919.343	98
920.822	106
922.301	96
923.779	100
925.257	92
926.735	92
928.213	80
929.69	96
931.166	102
932.643	94
934.119	98
935.594	100
937.069	100
938.543	90
940.018	86
941.492	102
942.966	100
944.439	106
945.911	94
947.384	92
948.856	98
950.328	94
951.799	104
953.27	100
954.741	100
956.21	104
957.68	110
959.15	118
960.619	116
962.088	116
963.556	118
965.023	116
966.491	124
967.958	128
969.425	126
970.891	124
972.357	116
973.824	134
975.288	138
976.754	156
978.218	164
979.682	182
981.146	198
982.609	210
984.072	244
985.534	256
986.997	298
988.459	394
989.92	584
991.382	770
992.842	836
994.302	768
995.763	842
997.222	1226
998.681	1974
1000.14	2890
1001.6	3304
1003.06	2832
1004.52	1996
1005.97	1202
1007.43	686
1008.89	434
1010.34	300
1011.8	246
1013.25	208
1014.71	180
1016.16	182
1017.62	182
1019.07	200
1020.53	224
1021.98	264
1023.43	298
1024.89	370
1026.34	498
1027.79	620
1029.24	750
1030.69	872
1032.14	902
1033.59	806
1035.04	666
1036.49	522
1037.94	414
1039.39	338
1040.84	256
1042.29	236
1043.73	202
1045.18	188
1046.63	176
1048.08	160
1049.52	170
1050.97	156
1052.41	146
1053.86	152
1055.3	156
1056.75	154
1058.19	146
1059.64	160
1061.08	164
1062.52	154
1063.96	168
1065.41	162
1066.85	174
1068.29	174
1069.73	168
1071.17	180
1072.61	176
1074.05	176
1075.49	172
1076.93	162
1078.37	176
1079.81	172
1081.25	172
1082.68	162
1084.12	164
1085.56	162
1087	156
1088.43	162
1089.87	168
1091.3	160
1092.74	168
1094.17	162
1095.61	170
1097.04	168
1098.48	166
1099.91	166
1101.34	152
1102.78	160
1104.21	148
1105.64	130
1107.07	144
1108.5	138
1109.93	124
1111.36	126
1112.8	114
1114.22	120
1115.65	126
1117.08	108
1118.51	122
1119.94	110
1121.37	106
1122.8	102
1124.22	112
1125.65	102
1127.08	96
1128.5	106
1129.93	102
1131.35	102
1132.78	104
1134.2	102
1135.63	110
1137.05	122
1138.48	118
1139.9	116
1141.32	120
1142.75	128
1144.17	152
1145.59	164
1147.01	166
1148.43	204
1149.85	224
1151.27	282
1152.69	350
1154.11	400
1155.53	414
1156.95	384
1158.37	340
1159.79	290
1161.21	244
1162.62	228
1164.04	222
1165.46	204
1166.87	192
1168.29	192
1169.71	208
1171.12	232
1172.54	236
1173.95	264
1175.37	276
1176.78	358
1178.19	422
1179.61	482
1181.02	538
1182.43	534
1183.84	470
1185.26	468
1186.67	432
1188.08	442
1189.49	434
1190.9	460
1192.31	490
1193.72	480
1195.13	500
1196.54	506
1197.95	492
1199.36	474
1200.76	472
1202.17	438
1203.58	450
1204.99	408
1206.39	378
1207.8	364
1209.2	304
1210.61	290
1212.01	262
1213.42	246
1214.82	246
1216.23	224
1217.63	222
1219.03	208
1220.44	204
1221.84	206
1223.24	200
1224.64	196
1226.05	198
1227.45	188
1228.85	182
1230.25	184
1231.65	182
1233.05	180
1234.45	170
1235.85	164
1237.25	162
1238.64	172
1240.04	172
1241.44	172
1242.84	174
1244.23	164
1245.63	170
1247.03	160
1248.42	164
1249.82	170
1251.21	178
1252.61	164
1254	168
1255.4	156
1256.79	160
1258.19	178
1259.58	160
1260.97	160
1262.36	154
1263.76	166
1265.15	178
1266.54	156
1267.93	164
1269.32	162
1270.71	164
1272.1	160
1273.49	170
1274.88	168
1276.27	160
1277.66	164
1279.05	162
1280.43	172
1281.82	182
1283.21	166
1284.6	174
1285.98	172
1287.37	184
1288.75	192
1290.14	182
1291.53	194
1292.91	198
1294.29	194
1295.68	178
1297.06	206
1298.45	190
1299.83	198
1301.21	212
1302.59	208
1303.98	228
1305.36	210
1306.74	220
1308.12	232
1309.5	224
1310.88	230
1312.26	226
1313.64	226
1315.02	232
1316.4	240
1317.78	250
1319.16	256
1320.53	268
1321.91	280
1323.29	274
1324.67	282
1326.04	302
1327.42	272
1328.79	294
1330.17	284
1331.54	306
1332.92	294
1334.29	290
1335.67	284
1337.04	280
1338.42	280
1339.79	270
1341.16	270
1342.53	268
1343.91	266
1345.28	266
1346.65	262
1348.02	266
1349.39	260
1350.76	260
1352.13	264
1353.5	256
1354.87	258
1356.24	260
1357.61	268
1358.98	248
1360.34	254
1361.71	252
1363.08	266
1364.45	276
1365.81	266
1367.18	278
1368.54	274
1369.91	272
1371.28	272
1372.64	276
1374.01	274
1375.37	272
1376.73	268
1378.1	268
1379.46	256
1380.82	258
1382.19	254
1383.55	254
1384.91	238
1386.27	246
1387.63	232
1388.99	222
1390.35	220
1391.71	224
1393.07	240
1394.43	232
1395.79	236
1397.15	238
1398.51	234
1399.87	224
1401.23	238
1402.58	228
1403.94	234
1405.3	222
1406.65	238
1408.01	236
1409.37	224
1410.72	220
1412.08	220
1413.43	224
1414.79	216
1416.14	222
1417.49	224
1418.85	212
1420.2	222
1421.55	220
1422.91	208
1424.26	218
1425.61	220
1426.96	226
1428.31	212
1429.66	228
1431.01	228
1432.36	240
1433.71	246
1435.06	246
1436.41	258
1437.76	264
1439.11	274
1440.46	270
1441.81	302
1443.15	310
1444.5	300
1445.85	334
1447.19	330
1448.54	340
1449.89	336
1451.23	320
1452.58	308
1453.92	314
1455.27	292
1456.61	258
1457.95	244
1459.3	214
1460.64	214
1461.98	212
1463.33	202
1464.67	190
1466.01	188
1467.35	192
1468.69	198
1470.03	172
1471.37	200
1472.71	170
1474.05	176
1475.39	198
1476.73	174
1478.07	174
1479.41	174
1480.75	180
1482.09	166
1483.42	176
1484.76	172
1486.1	174
1487.43	166
1488.77	180
1490.11	166
1491.44	184
1492.78	190
1494.11	180
1495.45	190
1496.78	186
1498.12	168
1499.45	162
1500.78	170
1502.11	160
1503.45	164
1504.78	150
1506.11	172
1507.44	164
1508.77	168
1510.11	172
1511.44	162
1512.77	168
1514.1	160
1515.43	180
1516.76	160
1518.08	160
1519.41	148
1520.74	164
1522.07	160
1523.4	174
1524.72	170
1526.05	164
1527.38	172
1528.7	166
1530.03	160
1531.36	152
1532.68	162
1534.01	168
1535.33	176
1536.66	154
1537.98	160
1539.3	168
1540.63	160
1541.95	156
1543.27	158
1544.6	160
1545.92	150
1547.24	158
1548.56	164
1549.88	166
1551.2	158
1552.52	156
1553.84	162
1555.17	156
1556.48	160
1557.8	158
1559.12	156
1560.44	152
1561.76	156
1563.08	162
1564.4	162
1565.71	176
1567.03	166
1568.35	170
1569.66	188
1570.98	178
1572.29	190
1573.61	188
1574.93	200
1576.24	214
1577.55	234
1578.87	274
1580.18	322
1581.5	392
1582.81	422
1584.12	416
1585.43	332
1586.75	312
1588.06	276
1589.37	246
1590.68	256
1591.99	260
1593.3	276
1594.61	318
1595.92	342
1597.23	432
1598.54	514
1599.85	632
1601.16	676
1602.47	656
1603.78	628
1605.08	556
1606.39	482
1607.7	392
1609	340
1610.31	270
1611.62	248
1612.92	232
1614.23	210
1615.53	204
1616.84	188
1618.14	194
1619.45	172
1620.75	182
1622.06	170
1623.36	164
1624.66	160
1625.96	162
1627.27	158
1628.57	160
1629.87	144
1631.17	136
1632.47	156
1633.77	152
1635.07	154
1636.37	156
1637.67	160
1638.97	148
1640.27	154
1641.57	138
1642.87	148
1644.17	152
1645.47	152
1646.76	154
1648.06	160
1649.36	156
1650.66	146
1651.95	140
1653.25	144
1654.54	140
1655.84	128
1657.13	144
1658.43	128
1659.72	132
1661.02	124
1662.31	128
1663.6	128
1664.9	134
1666.19	120
1667.48	130
1668.78	130
1670.07	122
1671.36	126
1672.65	128
1673.94	124
1675.23	124
1676.52	126
1677.81	124
1679.1	124
1680.39	132
1681.68	120
1682.97	120
1684.26	126
1685.55	116
1686.83	134
1688.12	128
1689.41	118
1690.7	128
1691.98	122
1693.27	126
1694.55	130
1695.84	114
1697.13	114
1698.41	120
1699.69	118
1700.98	122
1702.26	118