File: Jesse_Dataset_v2/Pure Raman/Polystyrene/633nm/ps-ppo-7jan25-1,0000-map3_Y06_X00.txt
182.393	1032
184.993	1010
187.593	980
190.193	970
192.79	956
195.387	936
197.983	950
200.578	972
203.174	982
205.766	1008
208.36	1024
210.951	1008
213.542	1042
216.131	1042
218.721	1098
221.309	1068
223.897	1080
226.483	1066
229.069	990
231.654	936
234.238	848
236.821	764
239.404	686
241.984	604
244.566	544
247.145	462
249.723	448
252.302	406
254.878	400
257.455	382
260.03	366
262.604	352
265.178	356
267.75	352
270.322	348
272.893	356
275.463	346
278.032	330
280.601	314
283.168	292
285.734	310
288.301	290
290.866	272
293.429	270
295.992	258
298.556	246
301.117	254
303.677	258
306.236	242
308.795	242
311.354	234
313.911	250
316.467	246
319.022	248
321.577	248
324.13	254
326.684	236
329.236	252
331.787	274
334.337	260
336.887	236
339.435	228
341.983	258
344.529	248
347.075	238
349.621	238
352.165	236
354.708	228
357.251	230
359.793	230
362.334	232
364.874	240
367.413	238
369.951	240
372.489	240
375.026	258
377.562	262
380.097	250
382.631	272
385.164	270
387.697	282
390.229	284
392.76	282
395.29	304
397.819	290
400.346	314
402.873	316
405.4	352
407.926	356
410.451	326
412.976	346
415.499	316
418.02	310
420.542	276
423.063	262
425.583	270
428.101	250
430.619	252
433.137	230
435.654	242
438.169	232
440.684	228
443.198	222
445.712	232
448.223	234
450.735	222
453.246	206
455.755	190
458.264	196
460.771	200
463.279	202
465.786	188
468.291	190
470.796	204
473.301	206
475.803	194
478.306	196
480.807	190
483.308	176
485.807	202
488.307	198
490.804	186
493.302	178
495.798	202
498.294	190
500.788	184
503.283	204
505.775	204
508.269	222
510.759	204
513.251	210
515.74	224
518.23	178
520.718	208
523.204	212
525.692	236
528.177	224
530.663	224
533.147	244
535.629	244
538.113	252
540.594	272
543.074	304
545.555	264
548.034	282
550.512	274
552.989	280
555.467	256
557.942	268
560.417	246
562.892	270
565.365	254
567.838	264
570.309	252
572.78	268
575.251	260
577.72	246
580.189	240
582.656	250
585.123	214
587.589	228
590.055	232
592.52	236
594.983	214
597.446	226
599.908	234
602.369	236
604.829	252
607.289	264
609.747	282
612.205	278
614.663	328
617.119	438
619.574	730
622.029	1050
624.483	1004
626.936	564
629.389	350
631.84	308
634.291	274
636.741	244
639.19	200
641.639	220
644.086	206
646.533	192
648.979	182
651.424	192
653.869	194
656.313	178
658.754	178
661.196	196
663.638	186
666.078	188
668.518	182
670.957	184
673.394	180
675.831	168
678.268	188
680.703	182
683.137	196
685.571	184
688.005	192
690.437	180
692.868	188
695.299	184
697.729	192
700.159	206
702.586	240
705.014	230
707.441	242
709.866	236
712.292	226
714.716	228
717.14	226
719.563	238
721.984	254
724.406	306
726.825	334
729.246	304
731.665	302
734.082	288
736.5	314
738.916	364
741.332	360
743.746	378
746.161	386
748.574	402
750.987	402
753.398	448
755.81	468
758.219	462
760.629	480
763.037	494
765.445	488
767.852	464
770.258	464
772.664	436
775.068	418
777.472	422
779.876	446
782.278	472
784.679	504
787.08	562
789.48	638
791.879	658
794.278	690
796.675	702
799.072	694
801.467	642
803.864	552
806.258	482
808.651	428
811.044	412
813.437	396
815.828	364
818.218	338
820.608	298
822.997	282
825.385	278
827.773	268
830.16	274
832.546	280
834.931	302
837.315	318
839.699	362
842.081	386
844.463	386
846.844	366
849.226	342
851.606	334
853.985	320
856.363	316
858.741	302
861.117	328
863.493	300
865.868	294
868.243	288
870.616	298
872.989	288
875.36	298
877.731	290
880.102	288
882.472	306
884.841	306
887.209	276
889.577	292
891.944	278
894.31	288
896.674	286
899.039	312
901.403	318
903.766	336
906.128	356
908.49	366
910.849	356
913.209	338
915.569	318
917.927	296
920.284	274
922.641	270
924.997	280
927.353	240
929.707	254
932.061	266
934.414	266
936.765	278
939.117	266
941.469	276
943.818	280
946.167	274
948.515	284
950.863	260
953.211	266
955.556	280
957.902	272
960.246	292
962.59	310
964.933	326
967.276	330
969.617	330
971.958	346
974.298	338
976.638	374
978.976	380
981.314	450
983.651	516
985.988	614
988.323	766
990.659	1170
992.992	1722
995.325	1870
997.658	2366
999.99	4170
1002.32	6600
1004.65	6136
1006.98	3464
1009.31	1574
1011.64	836
1013.97	584
1016.29	482
1018.62	448
1020.94	510
1023.27	624
1025.59	848
1027.91	1192
1030.24	1624
1032.56	1940
1034.88	1868
1037.2	1420
1039.52	1004
1041.84	724
1044.15	570
1046.47	506
1048.79	452
1051.1	440
1053.42	408
1055.73	412
1058.04	400
1060.36	410
1062.67	406
1064.98	426
1067.29	432
1069.6	450
1071.91	456
1074.22	446
1076.52	442
1078.83	424
1081.14	432
1083.44	436
1085.75	432
1088.05	426
1090.35	416
1092.65	408
1094.95	428
1097.26	420
1099.56	430
1101.86	432
1104.15	408
1106.45	398
1108.75	362
1111.05	340
1113.34	338
1115.64	352
1117.93	308
1120.22	334
1122.52	314
1124.81	290
1127.1	280
1129.39	282
1131.68	286
1133.97	282
1136.26	274
1138.54	312
1140.83	312
1143.12	340
1145.4	350
1147.69	416
1149.97	484
1152.25	666
1154.54	858
1156.82	990
1159.1	862
1161.38	720
1163.66	592
1165.94	524
1168.22	492
1170.49	502
1172.77	562
1175.05	616
1177.32	792
1179.6	972
1181.87	1148
1184.14	1242
1186.42	1126
1188.69	1072
1190.96	1052
1193.23	1114
1195.5	1210
1197.77	1250
1200.03	1202
1202.3	1170
1204.57	1096
1206.83	984
1209.1	856
1211.36	738
1213.63	616
1215.89	572
1218.15	510
1220.41	476
1222.67	468
1224.93	452
1227.19	464
1229.45	458
1231.71	430
1233.97	404
1236.22	402
1238.48	382
1240.73	358
1242.99	378
1245.24	380
1247.5	382
1249.75	362
1252	356
1254.25	356
1256.5	352
1258.75	364
1261	368
1263.25	358
1265.49	378
1267.74	374
1269.99	332
1272.23	350
1274.48	362
1276.72	352
1278.96	352
1281.21	368
1283.45	382
1285.69	348
1287.93	362
1290.17	378
1292.41	366
1294.64	408
1296.88	390
1299.12	418
1301.36	428
1303.59	424
1305.82	428
1308.06	422
1310.29	430
1312.52	452
1314.76	450
1316.99	478
1319.22	480
1321.45	496
1323.68	530
1325.9	528
1328.13	522
1330.36	520
1332.58	534
1334.81	524
1337.04	490
1339.26	466
1341.48	432
1343.71	432
1345.93	398
1348.15	392
1350.37	390
1352.59	386
1354.81	376
1357.03	380
1359.24	380
1361.46	390
1363.68	392
1365.89	402
1368.11	404
1370.32	384
1372.54	374
1374.75	380
1376.96	380
1379.17	372
1381.38	348
1383.59	346
1385.8	326
1388.01	316
1390.22	292
1392.43	286
1394.63	272
1396.84	282
1399.05	282
1401.25	284
1403.45	300
1405.66	306
1407.86	266
1410.06	282
1412.26	298
1414.46	280
1416.66	280
1418.86	272
1421.06	304
1423.26	264
1425.46	288
1427.65	282
1429.85	288
1432.04	302
1434.24	336
1436.43	366
1438.62	394
1440.82	434
1443.01	494
1445.2	546
1447.39	614
1449.58	586
1451.77	644
1453.95	614
1456.14	536
1458.33	444
1460.52	416
1462.7	352
1464.89	310
1467.07	326
1469.25	294
1471.44	310
1473.62	276
1475.8	280
1477.98	282
1480.16	284
1482.34	284
1484.52	288
1486.7	274
1488.87	276
1491.05	290
1493.23	322
1495.4	304
1497.58	302
1499.75	286
1501.92	278
1504.1	276
1506.27	280
1508.44	278
1510.61	280
1512.78	278
1514.95	280
1517.12	284
1519.28	282
1521.45	286
1523.62	290
1525.78	288
1527.95	284
1530.11	264
1532.28	278
1534.44	284
1536.6	296
1538.76	290
1540.93	288
1543.09	296
1545.25	290
1547.41	288
1549.56	292
1551.72	296
1553.88	294
1556.03	288
1558.19	308
1560.35	298
1562.5	312
1564.65	304
1566.81	326
1568.96	346
1571.11	366
1573.26	388
1575.41	434
1577.56	482
1579.71	586
1581.86	822
1584.01	976
1586.15	926
1588.3	720
1590.45	624
1592.59	628
1594.74	702
1596.88	900
1599.02	1236
1601.17	1662
1603.31	1912
1605.45	1724
1607.59	1326
1609.73	912
1611.87	686
1614.01	556
1616.14	502
1618.28	432
1620.42	416
1622.55	378
1624.69	388
1626.82	350
1628.96	342
1631.09	352
1633.22	348
1635.36	318
1637.49	322
1639.62	314
1641.75	352
1643.88	344
1646	352
1648.13	356
1650.26	366
1652.39	352
1654.51	330
1656.64	306
1658.76	322
1660.89	306
1663.01	306
1665.13	298
1667.26	304
1669.38	308
1671.5	294
1673.62	312
1675.74	306
1677.86	308
1679.97	312
1682.09	314
1684.21	304
1686.33	316
1688.44	316
1690.56	308
1692.67	302
1694.78	298
1696.9	312
1699.01	300
1701.12	320
1703.23	302
1705.34	300
1707.45	298
1709.56	310
1711.67	308
1713.78	302
1715.88	288
1717.99	298
1720.1	292
1722.2	284
1724.31	280
1726.41	292
1728.51	302
1730.62	292
1732.72	292
1734.82	308
1736.92	300
1739.02	304
1741.12	304
1743.22	312
1745.32	304
1747.42	296
1749.51	288
1751.61	278
1753.7	292
1755.8	282
1757.89	312
1759.99	302
1762.08	304
1764.17	294
1766.26	298
1768.36	302
1770.45	306
1772.54	290
1774.62	286
1776.71	296
1778.8	294
1780.89	304
1782.98	304
1785.06	304
1787.15	292
1789.23	306
1791.32	286
1793.4	294
1795.48	308
1797.56	312
1799.65	294
1801.73	304
1803.81	306
1805.89	318
1807.97	304
1810.04	304
1812.12	312
1814.2	290
1816.28	304
1818.35	330
1820.43	326
1822.5	338
1824.58	316
1826.65	294
1828.72	308
1830.79	306
1832.86	312
1834.94	316
1837.01	312
1839.08	302
1841.15	320
1843.21	304
1845.28	306
1847.35	312
1849.41	320
1851.48	308
1853.55	308
1855.61	292
1857.67	322
1859.74	324
1861.8	318
1863.86	312
1865.92	304
1867.98	306
1870.05	304
1872.1	316
1874.16	328
1876.22	320
1878.28	330
1880.34	314
1882.39	328
1884.45	318
1886.5	316
1888.56	328
1890.61	316
1892.67	316
1894.72	330
1896.77	316
1898.82	318
1900.87	324
1902.92	324
1904.97	320
1907.02	318
1909.07	330
1911.12	326
1913.17	324
1915.21	334
1917.26	328
1919.3	342
1921.35	332
1923.39	318
1925.43	334
1927.48	338
1929.52	300
1931.56	310
1933.6	322
1935.64	344
1937.68	334
1939.72	336
1941.76	314
1943.8	332
1945.83	332
1947.87	336
1949.91	346
1951.94	330
1953.98	344
1956.01	340
1958.05	326
1960.08	320
1962.11	306
1964.14	316
1966.17	324
1968.2	344
1970.23	328
1972.26	312
1974.29	328
1976.32	310
1978.35	308
1980.37	330
1982.4	324
1984.43	336
1986.45	336
1988.48	322
1990.5	326
1992.52	314
1994.55	310
1996.57	326
1998.59	326
2000.61	314
2002.63	334
2004.65	336
2006.67	322
2008.69	320
2010.7	328
2012.72	332
2014.74	358
2016.75	338
2018.77	328
2020.78	336
2022.8	328
2024.81	324
2026.83	322
2028.84	330
2030.85	342
2032.86	332
2034.87	326
2036.88	338
2038.89	344
2040.9	326
2042.91	336
2044.91	338
2046.92	354
2048.93	330
2050.93	326
2052.94	340
2054.94	344
2056.95	326
2058.95	336
2060.95	330
2062.95	348
2064.96	344
2066.96	342
2068.96	342
2070.96	348
2072.96	342
2074.95	330
2076.95	322
2078.95	320
2080.95	344
2082.94	340
2084.94	334
2086.93	340
2088.93	334
2090.92	356
2092.91	354
2094.91	326
2096.9	342
2098.89	334
2100.88	330
2102.87	348
2104.86	348
2106.85	330
2108.84	348
2110.83	350
2112.81	350
2114.8	346
2116.78	342
2118.77	326
2120.75	330
2122.74	340
2124.72	352
2126.71	350
2128.69	338
2130.67	346
2132.65	354
2134.63	348
2136.61	344
2138.59	348
2140.57	340
2142.55	344
2144.53	344
2146.5	350
2148.48	346
2150.46	360
2152.43	358
2154.41	346
2156.38	344
2158.35	346
2160.33	348
2162.3	334
2164.27	344
2166.24	362
2168.21	372
2170.18	344
2172.15	366
2174.12	352
2176.09	346
2178.06	346
2180.03	336
2181.99	348
2183.96	346
2185.92	364
2187.89	370
2189.85	356
2191.82	352
2193.78	352
2195.74	338
2197.7	362
2199.67	352
2201.63	352
2203.59	348
2205.55	356
2207.51	358
2209.46	346
2211.42	350
2213.38	348
2215.34	364
2217.29	342
2219.25	356
2221.2	356
2223.16	348
2225.11	354
2227.06	354
2229.02	332
2230.97	348
2232.92	348
2234.87	338
2236.82	348
2238.77	352
2240.72	340
2242.67	354
2244.62	356
2246.57	340
2248.51	342
2250.46	344
2252.4	354
2254.35	354
2256.29	362
2258.24	356
2260.18	352
2262.13	372
2264.07	338
2266.01	352
2267.95	346
2269.89	334
2271.83	358
2273.77	350
2275.71	340
2277.65	346
2279.58	340
2281.52	358
2283.46	346
2285.4	338
2287.33	350
2289.27	336
2291.2	356
2293.13	366
2295.07	368
2297	374
2298.93	354
2300.86	348
2302.79	364
2304.72	348
2306.65	344
2308.58	344
2310.51	366
2312.44	366
2314.37	366
2316.29	346
2318.22	364
2320.15	360
2322.07	358
2324	360
2325.92	354
2327.84	358
2329.77	366
2331.69	370
2333.61	366
2335.53	348
2337.45	374
2339.37	356
2341.29	374
2343.21	362
2345.13	354
2347.05	352
2348.97	360
2350.88	368
2352.8	348
2354.71	348
2356.63	360
2358.54	362
2360.46	370
2362.37	360
2364.28	348
2366.2	370
2368.11	344
2370.02	378
2371.93	356
2373.84	352
2375.75	360
2377.66	366
2379.57	350
2381.47	370
2383.38	364
2385.29	364
2387.2	368
2389.1	354
2391.01	366
2392.91	376
2394.81	362
2396.72	356
2398.62	358
2400.52	348
2402.42	350
2404.33	356
2406.23	364
2408.13	340
2410.03	374
2411.92	364
2413.82	378
2415.72	376
2417.62	350
2419.51	370
2421.41	366
2423.31	366
2425.2	352
2427.1	374
2428.99	374
2430.88	352
2432.78	372
2434.67	378
2436.56	374
2438.45	358
2440.34	366
2442.23	350
2444.12	374
2446.01	382
2447.9	366
2449.79	376