File: Jesse_Dataset_v2/Pure Raman/Polystyrene/633nm/ps-ppo-7jan25-1,0000-map3_Y08_X10.txt
182.393	1018
184.993	990
187.593	930
190.193	962
192.79	976
195.387	938
197.983	936
200.578	948
203.174	954
205.766	978
208.36	1000
210.951	1014
213.542	1054
216.131	1046
218.721	1078
221.309	1046
223.897	1058
226.483	1034
229.069	1016
231.654	902
234.238	820
236.821	762
239.404	666
241.984	622
244.566	502
247.145	452
249.723	430
252.302	398
254.878	402
257.455	362
260.03	352
262.604	348
265.178	318
267.75	364
270.322	324
272.893	314
275.463	316
278.032	306
280.601	318
283.168	294
285.734	284
288.301	272
290.866	268
293.429	260
295.992	236
298.556	256
301.117	228
303.677	218
306.236	240
308.795	228
311.354	214
313.911	242
316.467	248
319.022	228
321.577	234
324.13	248
326.684	242
329.236	228
331.787	246
334.337	242
336.887	238
339.435	246
341.983	230
344.529	224
347.075	220
349.621	224
352.165	210
354.708	214
357.251	206
359.793	208
362.334	218
364.874	218
367.413	198
369.951	210
372.489	226
375.026	238
377.562	236
380.097	246
382.631	248
385.164	244
387.697	248
390.229	286
392.76	268
395.29	274
397.819	296
400.346	292
402.873	318
405.4	336
407.926	344
410.451	336
412.976	324
415.499	306
418.02	274
420.542	270
423.063	250
425.583	248
428.101	248
430.619	242
433.137	218
435.654	234
438.169	224
440.684	220
443.198	238
445.712	198
448.223	214
450.735	232
453.246	208
455.755	198
458.264	176
460.771	188
463.279	192
465.786	184
468.291	180
470.796	188
473.301	178
475.803	180
478.306	180
480.807	186
483.308	164
485.807	186
488.307	178
490.804	196
493.302	176
495.798	174
498.294	182
500.788	206
503.283	184
505.775	208
508.269	200
510.759	192
513.251	192
515.74	210
518.23	190
520.718	192
523.204	218
525.692	216
528.177	210
530.663	224
533.147	226
535.629	234
538.113	248
540.594	274
543.074	250
545.555	274
548.034	252
550.512	250
552.989	250
555.467	270
557.942	246
560.417	252
562.892	256
565.365	258
567.838	258
570.309	262
572.78	254
575.251	256
577.72	252
580.189	232
582.656	228
585.123	214
587.589	216
590.055	226
592.52	210
594.983	212
597.446	230
599.908	230
602.369	226
604.829	224
607.289	254
609.747	290
612.205	282
614.663	332
617.119	408
619.574	700
622.029	1050
624.483	978
626.936	486
629.389	364
631.84	300
634.291	244
636.741	232
639.19	202
641.639	190
644.086	184
646.533	184
648.979	188
651.424	172
653.869	198
656.313	170
658.754	184
661.196	178
663.638	162
666.078	184
668.518	178
670.957	178
673.394	172
675.831	178
678.268	170
680.703	172
683.137	190
685.571	184
688.005	176
690.437	182
692.868	194
695.299	180
697.729	188
700.159	198
702.586	230
705.014	224
707.441	232
709.866	222
712.292	220
714.716	222
717.14	216
719.563	206
721.984	252
724.406	290
726.825	306
729.246	294
731.665	274
734.082	280
736.5	294
738.916	340
741.332	376
743.746	386
746.161	374
748.574	382
750.987	394
753.398	422
755.81	440
758.219	480
760.629	480
763.037	506
765.445	464
767.852	464
770.258	476
772.664	460
775.068	428
777.472	428
779.876	432
782.278	452
784.679	514
787.08	546
789.48	596
791.879	624
794.278	676
796.675	714
799.072	680
801.467	630
803.864	556
806.258	500
808.651	434
811.044	402
813.437	400
815.828	360
818.218	346
820.608	302
822.997	270
825.385	276
827.773	258
830.16	244
832.546	290
834.931	286
837.315	310
839.699	334
842.081	386
844.463	366
846.844	354
849.226	328
851.606	340
853.985	316
856.363	298
858.741	296
861.117	320
863.493	292
865.868	284
868.243	300
870.616	318
872.989	292
875.36	294
877.731	300
880.102	282
882.472	308
884.841	298
887.209	280
889.577	290
891.944	264
894.31	286
896.674	286
899.039	304
901.403	324
903.766	332
906.128	370
908.49	364
910.849	328
913.209	356
915.569	312
917.927	312
920.284	280
922.641	272
924.997	268
927.353	260
929.707	258
932.061	260
934.414	256
936.765	258
939.117	266
941.469	272
943.818	268
946.167	244
948.515	260
950.863	244
953.211	256
955.556	294
957.902	264
960.246	284
962.59	270
964.933	326
967.276	316
969.617	318
971.958	334
974.298	348
976.638	366
978.976	400
981.314	466
983.651	526
985.988	616
988.323	754
990.659	1194
992.992	1730
995.325	1914
997.658	2346
999.99	4246
1002.32	6628
1004.65	6056
1006.98	3398
1009.31	1560
1011.64	820
1013.97	586
1016.29	488
1018.62	450
1020.94	542
1023.27	630
1025.59	832
1027.91	1202
1030.24	1630
1032.56	1974
1034.88	1874
1037.2	1424
1039.52	968
1041.84	674
1044.15	556
1046.47	488
1048.79	448
1051.1	426
1053.42	376
1055.73	400
1058.04	418
1060.36	390
1062.67	404
1064.98	434
1067.29	420
1069.6	438
1071.91	442
1074.22	446
1076.52	430
1078.83	420
1081.14	424
1083.44	404
1085.75	418
1088.05	428
1090.35	444
1092.65	442
1094.95	428
1097.26	432
1099.56	452
1101.86	414
1104.15	410
1106.45	400
1108.75	348
1111.05	352
1113.34	324
1115.64	326
1117.93	302
1120.22	310
1122.52	294
1124.81	292
1127.1	286
1129.39	260
1131.68	276
1133.97	280
1136.26	278
1138.54	274
1140.83	326
1143.12	322
1145.4	370
1147.69	392
1149.97	488
1152.25	672
1154.54	870
1156.82	1002
1159.1	906
1161.38	712
1163.66	572
1165.94	534
1168.22	510
1170.49	508
1172.77	542
1175.05	652
1177.32	798
1179.6	962
1181.87	1182
1184.14	1232
1186.42	1136
1188.69	1046
1190.96	1048
1193.23	1140
1195.5	1170
1197.77	1214
1200.03	1214
1202.3	1170
1204.57	1098
1206.83	986
1209.1	864
1211.36	714
1213.63	622
1215.89	550
1218.15	492
1220.41	494
1222.67	466
1224.93	448
1227.19	482
1229.45	432
1231.71	414
1233.97	394
1236.22	380
1238.48	376
1240.73	372
1242.99	362
1245.24	350
1247.5	358
1249.75	354
1252	344
1254.25	362
1256.5	368
1258.75	350
1261	344
1263.25	348
1265.49	340
1267.74	354
1269.99	346
1272.23	340
1274.48	350
1276.72	338
1278.96	338
1281.21	374
1283.45	348
1285.69	332
1287.93	372
1290.17	382
1292.41	402
1294.64	362
1296.88	392
1299.12	376
1301.36	414
1303.59	422
1305.82	418
1308.06	434
1310.29	438
1312.52	452
1314.76	432
1316.99	442
1319.22	448
1321.45	506
1323.68	506
1325.9	532
1328.13	542
1330.36	516
1332.58	526
1334.81	502
1337.04	482
1339.26	462
1341.48	428
1343.71	422
1345.93	392
1348.15	392
1350.37	382
1352.59	376
1354.81	380
1357.03	374
1359.24	362
1361.46	356
1363.68	396
1365.89	390
1368.11	374
1370.32	398
1372.54	374
1374.75	358
1376.96	356
1379.17	328
1381.38	344
1383.59	328
1385.8	294
1388.01	282
1390.22	288
1392.43	280
1394.63	268
1396.84	268
1399.05	272
1401.25	284
1403.45	262
1405.66	274
1407.86	268
1410.06	268
1412.26	282
1414.46	262
1416.66	288
1418.86	244
1421.06	266
1423.26	274
1425.46	268
1427.65	274
1429.85	288
1432.04	298
1434.24	322
1436.43	344
1438.62	388
1440.82	464
1443.01	488
1445.2	524
1447.39	580
1449.58	602
1451.77	608
1453.95	584
1456.14	522
1458.33	430
1460.52	378
1462.7	326
1464.89	308
1467.07	306
1469.25	290
1471.44	290
1473.62	288
1475.8	266
1477.98	262
1480.16	256
1482.34	264
1484.52	266
1486.7	294
1488.87	282
1491.05	280
1493.23	302
1495.4	306
1497.58	300
1499.75	282
1501.92	288
1504.1	260
1506.27	274
1508.44	254
1510.61	268
1512.78	266
1514.95	276
1517.12	258
1519.28	268
1521.45	272
1523.62	258
1525.78	282
1527.95	254
1530.11	274
1532.28	262
1534.44	264
1536.6	250
1538.76	264
1540.93	278
1543.09	284
1545.25	290
1547.41	272
1549.56	270
1551.72	276
1553.88	292
1556.03	290
1558.19	290
1560.35	290
1562.5	310
1564.65	314
1566.81	306
1568.96	332
1571.11	356
1573.26	390
1575.41	430
1577.56	446
1579.71	606
1581.86	812
1584.01	982
1586.15	912
1588.3	706
1590.45	598
1592.59	588
1594.74	690
1596.88	882
1599.02	1250
1601.17	1684
1603.31	1878
1605.45	1692
1607.59	1320
1609.73	932
1611.87	688
1614.01	550
1616.14	492
1618.28	420
1620.42	394
1622.55	388
1624.69	364
1626.82	328
1628.96	342
1631.09	326
1633.22	320
1635.36	314
1637.49	310
1639.62	322
1641.75	336
1643.88	330
1646	324
1648.13	360
1650.26	338
1652.39	302
1654.51	334
1656.64	286
1658.76	292
1660.89	294
1663.01	280
1665.13	270
1667.26	274
1669.38	290
1671.5	292
1673.62	292
1675.74	278
1677.86	284
1679.97	280
1682.09	288
1684.21	282
1686.33	308
1688.44	300
1690.56	296
1692.67	292
1694.78	282
1696.9	290
1699.01	300
1701.12	278
1703.23	258
1705.34	270
1707.45	286
1709.56	268
1711.67	280
1713.78	280
1715.88	276
1717.99	280
1720.1	278
1722.2	286
1724.31	280
1726.41	294
1728.51	284
1730.62	286
1732.72	278
1734.82	286
1736.92	288
1739.02	280
1741.12	278
1743.22	276
1745.32	280
1747.42	266
1749.51	284
1751.61	262
1753.7	282
1755.8	274
1757.89	262
1759.99	264
1762.08	290
1764.17	280
1766.26	290
1768.36	280
1770.45	284
1772.54	288
1774.62	296
1776.71	300
1778.8	302
1780.89	274
1782.98	268
1785.06	278
1787.15	288
1789.23	278
1791.32	272
1793.4	268
1795.48	296
1797.56	288
1799.65	276
1801.73	288
1803.81	286
1805.89	294
1807.97	270
1810.04	296
1812.12	290
1814.2	276
1816.28	302
1818.35	302
1820.43	290
1822.5	292
1824.58	288
1826.65	282
1828.72	286
1830.79	280
1832.86	292
1834.94	284
1837.01	312
1839.08	288
1841.15	288
1843.21	302
1845.28	276
1847.35	290
1849.41	288
1851.48	296
1853.55	282
1855.61	278
1857.67	300
1859.74	274
1861.8	280
1863.86	288
1865.92	282
1867.98	278
1870.05	290
1872.1	304
1874.16	300
1876.22	290
1878.28	298
1880.34	294
1882.39	302
1884.45	286
1886.5	298
1888.56	306
1890.61	302
1892.67	300
1894.72	294
1896.77	310
1898.82	292
1900.87	298
1902.92	322
1904.97	298
1907.02	292
1909.07	286
1911.12	302
1913.17	296
1915.21	298
1917.26	306
1919.3	314
1921.35	316
1923.39	322
1925.43	306
1927.48	290
1929.52	312
1931.56	322
1933.6	304
1935.64	294
1937.68	308
1939.72	322
1941.76	290
1943.8	300
1945.83	316
1947.87	296
1949.91	312
1951.94	308
1953.98	306
1956.01	304
1958.05	304
1960.08	298
1962.11	304
1964.14	282
1966.17	304
1968.2	316
1970.23	322
1972.26	280
1974.29	320
1976.32	310
1978.35	280
1980.37	286
1982.4	296
1984.43	304
1986.45	312
1988.48	304
1990.5	316
1992.52	302
1994.55	304
1996.57	310
1998.59	304
2000.61	310
2002.63	298
2004.65	306
2006.67	324
2008.69	308
2010.7	302
2012.72	308
2014.74	298
2016.75	310
2018.77	322
2020.78	318
2022.8	290
2024.81	322
2026.83	300
2028.84	314
2030.85	302
2032.86	332
2034.87	320
2036.88	312
2038.89	316
2040.9	306
2042.91	312
2044.91	316
2046.92	320
2048.93	322
2050.93	300
2052.94	324
2054.94	320
2056.95	306
2058.95	310
2060.95	310
2062.95	324
2064.96	336
2066.96	328
2068.96	316
2070.96	322
2072.96	324
2074.95	326
2076.95	344
2078.95	330
2080.95	306
2082.94	332
2084.94	314
2086.93	342
2088.93	310
2090.92	320
2092.91	320
2094.91	316
2096.9	330
2098.89	334
2100.88	338
2102.87	320
2104.86	308
2106.85	324
2108.84	320
2110.83	316
2112.81	324
2114.8	312
2116.78	310
2118.77	336
2120.75	324
2122.74	328
2124.72	350
2126.71	344
2128.69	344
2130.67	328
2132.65	338
2134.63	330
2136.61	326
2138.59	348
2140.57	324
2142.55	344
2144.53	336
2146.5	322
2148.48	318
2150.46	314
2152.43	338
2154.41	342
2156.38	326
2158.35	330
2160.33	344
2162.3	346
2164.27	300
2166.24	326
2168.21	318
2170.18	326
2172.15	334
2174.12	330
2176.09	356
2178.06	328
2180.03	330
2181.99	314
2183.96	336
2185.92	332
2187.89	316
2189.85	326
2191.82	338
2193.78	328
2195.74	330
2197.7	352
2199.67	330
2201.63	332
2203.59	352
2205.55	344
2207.51	332
2209.46	336
2211.42	330
2213.38	354
2215.34	336
2217.29	342
2219.25	346
2221.2	340
2223.16	346
2225.11	320
2227.06	356
2229.02	326
2230.97	338
2232.92	344
2234.87	346
2236.82	334
2238.77	342
2240.72	342
2242.67	326
2244.62	332
2246.57	346
2248.51	332
2250.46	330
2252.4	326
2254.35	342
2256.29	344
2258.24	332
2260.18	356
2262.13	334
2264.07	342
2266.01	344
2267.95	340
2269.89	334
2271.83	312
2273.77	350
2275.71	348
2277.65	334
2279.58	322
2281.52	334
2283.46	340
2285.4	342
2287.33	334
2289.27	346
2291.2	364
2293.13	352
2295.07	346
2297	320
2298.93	354
2300.86	350
2302.79	346
2304.72	352
2306.65	338
2308.58	330
2310.51	346
2312.44	334
2314.37	348
2316.29	336
2318.22	364
2320.15	342
2322.07	344
2324	342
2325.92	350
2327.84	318
2329.77	362
2331.69	336
2333.61	348
2335.53	342
2337.45	328
2339.37	344
2341.29	334
2343.21	346
2345.13	358
2347.05	358
2348.97	356
2350.88	336
2352.8	362
2354.71	326
2356.63	340
2358.54	348
2360.46	344
2362.37	364
2364.28	346
2366.2	342
2368.11	358
2370.02	328
2371.93	348
2373.84	348
2375.75	354
2377.66	370
2379.57	340
2381.47	358
2383.38	342
2385.29	338
2387.2	314
2389.1	340
2391.01	346
2392.91	354
2394.81	364
2396.72	350
2398.62	346
2400.52	342
2402.42	344
2404.33	356
2406.23	352
2408.13	332
2410.03	340
2411.92	364
2413.82	366
2415.72	374
2417.62	352
2419.51	354
2421.41	356
2423.31	356
2425.2	384
2427.1	326
2428.99	350
2430.88	356
2432.78	370
2434.67	368
2436.56	370
2438.45	358
2440.34	368
2442.23	382
2444.12	358
2446.01	364
2447.9	380
2449.79	382