File: Jesse_Dataset_v2/Pure Raman/Polystyrene/633nm/ps-ppo-7jan25-1,0000-map3_Y00_X07.txt
182.393	1134
184.993	1096
187.593	1052
190.193	1046
192.79	1026
195.387	1024
197.983	1046
200.578	984
203.174	1066
205.766	1038
208.36	1068
210.951	1086
213.542	1124
216.131	1144
218.721	1166
221.309	1124
223.897	1186
226.483	1150
229.069	1102
231.654	1038
234.238	912
236.821	892
239.404	762
241.984	692
244.566	616
247.145	550
249.723	490
252.302	476
254.878	490
257.455	470
260.03	430
262.604	458
265.178	420
267.75	392
270.322	402
272.893	418
275.463	390
278.032	422
280.601	402
283.168	374
285.734	358
288.301	380
290.866	348
293.429	338
295.992	354
298.556	320
301.117	306
303.677	318
306.236	312
308.795	332
311.354	330
313.911	310
316.467	328
319.022	330
321.577	298
324.13	312
326.684	328
329.236	328
331.787	320
334.337	322
336.887	306
339.435	328
341.983	300
344.529	300
347.075	318
349.621	318
352.165	288
354.708	308
357.251	306
359.793	292
362.334	276
364.874	316
367.413	292
369.951	294
372.489	284
375.026	314
377.562	312
380.097	310
382.631	336
385.164	312
387.697	328
390.229	340
392.76	342
395.29	366
397.819	354
400.346	364
402.873	412
405.4	432
407.926	422
410.451	428
412.976	398
415.499	384
418.02	362
420.542	340
423.063	338
425.583	336
428.101	310
430.619	302
433.137	294
435.654	320
438.169	302
440.684	300
443.198	280
445.712	298
448.223	280
450.735	276
453.246	284
455.755	254
458.264	256
460.771	250
463.279	246
465.786	248
468.291	240
470.796	272
473.301	268
475.803	248
478.306	236
480.807	228
483.308	256
485.807	228
488.307	238
490.804	250
493.302	216
495.798	246
498.294	256
500.788	250
503.283	230
505.775	252
508.269	246
510.759	280
513.251	272
515.74	242
518.23	252
520.718	236
523.204	260
525.692	258
528.177	270
530.663	296
533.147	312
535.629	322
538.113	294
540.594	308
543.074	324
545.555	316
548.034	300
550.512	314
552.989	312
555.467	312
557.942	316
560.417	296
562.892	320
565.365	300
567.838	292
570.309	298
572.78	306
575.251	310
577.72	302
580.189	300
582.656	290
585.123	262
587.589	260
590.055	266
592.52	268
594.983	274
597.446	288
599.908	274
602.369	280
604.829	288
607.289	316
609.747	344
612.205	350
614.663	354
617.119	498
619.574	712
622.029	1190
624.483	1056
626.936	580
629.389	370
631.84	348
634.291	306
636.741	266
639.19	280
641.639	250
644.086	248
646.533	252
648.979	240
651.424	222
653.869	222
656.313	216
658.754	232
661.196	216
663.638	222
666.078	232
668.518	214
670.957	226
673.394	238
675.831	204
678.268	226
680.703	228
683.137	232
685.571	242
688.005	230
690.437	230
692.868	236
695.299	236
697.729	228
700.159	250
702.586	268
705.014	268
707.441	272
709.866	270
712.292	264
714.716	256
717.14	252
719.563	278
721.984	298
724.406	340
726.825	372
729.246	348
731.665	330
734.082	344
736.5	340
738.916	374
741.332	428
743.746	408
746.161	428
748.574	432
750.987	448
753.398	476
755.81	468
758.219	520
760.629	560
763.037	528
765.445	532
767.852	500
770.258	506
772.664	458
775.068	480
777.472	476
779.876	478
782.278	516
784.679	574
787.08	618
789.48	648
791.879	678
794.278	704
796.675	742
799.072	736
801.467	700
803.864	622
806.258	520
808.651	468
811.044	432
813.437	416
815.828	404
818.218	350
820.608	338
822.997	340
825.385	336
827.773	318
830.16	308
832.546	340
834.931	364
837.315	358
839.699	384
842.081	410
844.463	436
846.844	390
849.226	374
851.606	346
853.985	368
856.363	350
858.741	354
861.117	346
863.493	324
865.868	334
868.243	364
870.616	344
872.989	360
875.36	356
877.731	346
880.102	354
882.472	356
884.841	324
887.209	338
889.577	360
891.944	348
894.31	336
896.674	344
899.039	348
901.403	374
903.766	388
906.128	414
908.49	416
910.849	396
913.209	378
915.569	394
917.927	348
920.284	322
922.641	306
924.997	306
927.353	300
929.707	314
932.061	310
934.414	318
936.765	320
939.117	328
941.469	318
943.818	330
946.167	328
948.515	342
950.863	324
953.211	326
955.556	322
957.902	336
960.246	352
962.59	364
964.933	372
967.276	384
969.617	396
971.958	404
974.298	396
976.638	412
978.976	458
981.314	522
983.651	584
985.988	670
988.323	838
990.659	1240
992.992	1818
995.325	1944
997.658	2412
999.99	4264
1002.32	6622
1004.65	6214
1006.98	3480
1009.31	1628
1011.64	910
1013.97	628
1016.29	556
1018.62	528
1020.94	576
1023.27	690
1025.59	914
1027.91	1256
1030.24	1712
1032.56	2030
1034.88	1944
1037.2	1490
1039.52	1082
1041.84	784
1044.15	622
1046.47	554
1048.79	524
1051.1	510
1053.42	474
1055.73	492
1058.04	496
1060.36	478
1062.67	498
1064.98	510
1067.29	504
1069.6	522
1071.91	508
1074.22	538
1076.52	504
1078.83	516
1081.14	504
1083.44	494
1085.75	484
1088.05	528
1090.35	496
1092.65	506
1094.95	494
1097.26	526
1099.56	528
1101.86	526
1104.15	486
1106.45	444
1108.75	464
1111.05	418
1113.34	410
1115.64	428
1117.93	396
1120.22	392
1122.52	386
1124.81	366
1127.1	384
1129.39	362
1131.68	334
1133.97	356
1136.26	356
1138.54	358
1140.83	396
1143.12	434
1145.4	454
1147.69	502
1149.97	562
1152.25	742
1154.54	948
1156.82	1054
1159.1	970
1161.38	790
1163.66	670
1165.94	620
1168.22	598
1170.49	604
1172.77	612
1175.05	700
1177.32	840
1179.6	1070
1181.87	1242
1184.14	1202
1186.42	1178
1188.69	1114
1190.96	1138
1193.23	1228
1195.5	1286
1197.77	1302
1200.03	1294
1202.3	1254
1204.57	1168
1206.83	1006
1209.1	924
1211.36	812
1213.63	716
1215.89	664
1218.15	582
1220.41	570
1222.67	536
1224.93	548
1227.19	536
1229.45	492
1231.71	480
1233.97	494
1236.22	468
1238.48	466
1240.73	470
1242.99	476
1245.24	446
1247.5	442
1249.75	454
1252	434
1254.25	464
1256.5	426
1258.75	454
1261	436
1263.25	410
1265.49	442
1267.74	450
1269.99	434
1272.23	430
1274.48	418
1276.72	414
1278.96	420
1281.21	402
1283.45	440
1285.69	432
1287.93	440
1290.17	454
1292.41	460
1294.64	472
1296.88	492
1299.12	474
1301.36	478
1303.59	500
1305.82	498
1308.06	498
1310.29	528
1312.52	502
1314.76	522
1316.99	562
1319.22	556
1321.45	538
1323.68	580
1325.9	608
1328.13	606
1330.36	588
1332.58	580
1334.81	566
1337.04	580
1339.26	554
1341.48	534
1343.71	508
1345.93	478
1348.15	474
1350.37	450
1352.59	442
1354.81	470
1357.03	436
1359.24	436
1361.46	472
1363.68	480
1365.89	444
1368.11	464
1370.32	452
1372.54	450
1374.75	456
1376.96	464
1379.17	440
1381.38	410
1383.59	410
1385.8	394
1388.01	374
1390.22	374
1392.43	352
1394.63	342
1396.84	344
1399.05	342
1401.25	332
1403.45	350
1405.66	356
1407.86	340
1410.06	348
1412.26	358
1414.46	346
1416.66	350
1418.86	348
1421.06	332
1423.26	324
1425.46	328
1427.65	354
1429.85	360
1432.04	348
1434.24	410
1436.43	422
1438.62	484
1440.82	514
1443.01	546
1445.2	596
1447.39	666
1449.58	676
1451.77	674
1453.95	660
1456.14	596
1458.33	492
1460.52	480
1462.7	400
1464.89	380
1467.07	336
1469.25	352
1471.44	346
1473.62	348
1475.8	336
1477.98	348
1480.16	346
1482.34	336
1484.52	340
1486.7	336
1488.87	326
1491.05	346
1493.23	386
1495.4	368
1497.58	364
1499.75	360
1501.92	312
1504.1	336
1506.27	342
1508.44	336
1510.61	332
1512.78	310
1514.95	342
1517.12	332
1519.28	348
1521.45	350
1523.62	346
1525.78	336
1527.95	330
1530.11	336
1532.28	338
1534.44	336
1536.6	344
1538.76	334
1540.93	356
1543.09	326
1545.25	336
1547.41	358
1549.56	362
1551.72	342
1553.88	332
1556.03	364
1558.19	358
1560.35	372
1562.5	380
1564.65	370
1566.81	402
1568.96	398
1571.11	390
1573.26	422
1575.41	494
1577.56	532
1579.71	658
1581.86	832
1584.01	1046
1586.15	978
1588.3	790
1590.45	662
1592.59	668
1594.74	786
1596.88	964
1599.02	1258
1601.17	1726
1603.31	1936
1605.45	1800
1607.59	1356
1609.73	1028
1611.87	750
1614.01	608
1616.14	544
1618.28	464
1620.42	432
1622.55	434
1624.69	408
1626.82	404
1628.96	402
1631.09	392
1633.22	380
1635.36	386
1637.49	362
1639.62	384
1641.75	382
1643.88	374
1646	394
1648.13	396
1650.26	384
1652.39	388
1654.51	376
1656.64	384
1658.76	364
1660.89	352
1663.01	366
1665.13	326
1667.26	324
1669.38	338
1671.5	314
1673.62	360
1675.74	344
1677.86	338
1679.97	336
1682.09	344
1684.21	346
1686.33	346
1688.44	338
1690.56	326
1692.67	330
1694.78	330
1696.9	338
1699.01	362
1701.12	344
1703.23	346
1705.34	314
1707.45	358
1709.56	350
1711.67	342
1713.78	352
1715.88	342
1717.99	342
1720.1	318
1722.2	326
1724.31	336
1726.41	334
1728.51	324
1730.62	322
1732.72	338
1734.82	324
1736.92	318
1739.02	308
1741.12	318
1743.22	340
1745.32	322
1747.42	340
1749.51	348
1751.61	306
1753.7	342
1755.8	334
1757.89	330
1759.99	334
1762.08	340
1764.17	318
1766.26	312
1768.36	318
1770.45	324
1772.54	344
1774.62	336
1776.71	332
1778.8	326
1780.89	338
1782.98	312
1785.06	332
1787.15	326
1789.23	324
1791.32	358
1793.4	328
1795.48	314
1797.56	338
1799.65	332
1801.73	340
1803.81	352
1805.89	350
1807.97	346
1810.04	350
1812.12	354
1814.2	352
1816.28	334
1818.35	324
1820.43	344
1822.5	334
1824.58	326
1826.65	318
1828.72	328
1830.79	336
1832.86	334
1834.94	350
1837.01	328
1839.08	342
1841.15	328
1843.21	342
1845.28	334
1847.35	318
1849.41	320
1851.48	332
1853.55	350
1855.61	330
1857.67	344
1859.74	326
1861.8	316
1863.86	330
1865.92	328
1867.98	334
1870.05	356
1872.1	326
1874.16	332
1876.22	320
1878.28	352
1880.34	340
1882.39	324
1884.45	336
1886.5	336
1888.56	336
1890.61	348
1892.67	332
1894.72	364
1896.77	358
1898.82	354
1900.87	346
1902.92	344
1904.97	344
1907.02	338
1909.07	324
1911.12	380
1913.17	332
1915.21	358
1917.26	334
1919.3	338
1921.35	374
1923.39	358
1925.43	342
1927.48	332
1929.52	358
1931.56	358
1933.6	362
1935.64	364
1937.68	318
1939.72	334
1941.76	364
1943.8	350
1945.83	362
1947.87	334
1949.91	336
1951.94	350
1953.98	344
1956.01	324
1958.05	342
1960.08	334
1962.11	348
1964.14	368
1966.17	336
1968.2	346
1970.23	348
1972.26	354
1974.29	354
1976.32	332
1978.35	332
1980.37	328
1982.4	314
1984.43	346
1986.45	330
1988.48	340
1990.5	334
1992.52	348
1994.55	348
1996.57	324
1998.59	340
2000.61	348
2002.63	346
2004.65	344
2006.67	336
2008.69	352
2010.7	364
2012.72	346
2014.74	332
2016.75	344
2018.77	362
2020.78	336
2022.8	346
2024.81	364
2026.83	354
2028.84	368
2030.85	348
2032.86	364
2034.87	360
2036.88	346
2038.89	346
2040.9	338
2042.91	352
2044.91	350
2046.92	342
2048.93	354
2050.93	362
2052.94	358
2054.94	366
2056.95	358
2058.95	344
2060.95	364
2062.95	348
2064.96	346
2066.96	346
2068.96	340
2070.96	354
2072.96	334
2074.95	368
2076.95	366
2078.95	346
2080.95	360
2082.94	340
2084.94	352
2086.93	354
2088.93	360
2090.92	330
2092.91	334
2094.91	356
2096.9	354
2098.89	374
2100.88	360
2102.87	360
2104.86	322
2106.85	376
2108.84	354
2110.83	376
2112.81	354
2114.8	354
2116.78	350
2118.77	354
2120.75	372
2122.74	374
2124.72	326
2126.71	334
2128.69	350
2130.67	378
2132.65	356
2134.63	360
2136.61	370
2138.59	380
2140.57	360
2142.55	326
2144.53	372
2146.5	344
2148.48	356
2150.46	364
2152.43	384
2154.41	372
2156.38	372
2158.35	366
2160.33	374
2162.3	358
2164.27	354
2166.24	384
2168.21	348
2170.18	366
2172.15	346
2174.12	362
2176.09	370
2178.06	340
2180.03	362
2181.99	368
2183.96	374
2185.92	378
2187.89	362
2189.85	368
2191.82	372
2193.78	370
2195.74	362
2197.7	356
2199.67	364
2201.63	384
2203.59	370
2205.55	366
2207.51	378
2209.46	380
2211.42	356
2213.38	358
2215.34	360
2217.29	354
2219.25	380
2221.2	366
2223.16	378
2225.11	350
2227.06	360
2229.02	392
2230.97	354
2232.92	370
2234.87	374
2236.82	368
2238.77	348
2240.72	362
2242.67	368
2244.62	364
2246.57	374
2248.51	378
2250.46	368
2252.4	370
2254.35	370
2256.29	360
2258.24	376
2260.18	358
2262.13	366
2264.07	346
2266.01	368
2267.95	376
2269.89	384
2271.83	366
2273.77	362
2275.71	362
2277.65	370
2279.58	362
2281.52	386
2283.46	372
2285.4	384
2287.33	352
2289.27	378
2291.2	388
2293.13	388
2295.07	376
2297	380
2298.93	380
2300.86	376
2302.79	380
2304.72	380
2306.65	370
2308.58	388
2310.51	378
2312.44	384
2314.37	382
2316.29	386
2318.22	384
2320.15	372
2322.07	398
2324	342
2325.92	390
2327.84	366
2329.77	390
2331.69	380
2333.61	370
2335.53	342
2337.45	382
2339.37	364
2341.29	386
2343.21	374
2345.13	374
2347.05	382
2348.97	390
2350.88	356
2352.8	388
2354.71	370
2356.63	382
2358.54	374
2360.46	392
2362.37	390
2364.28	382
2366.2	374
2368.11	372
2370.02	376
2371.93	376
2373.84	366
2375.75	392
2377.66	384
2379.57	364
2381.47	372
2383.38	380
2385.29	392
2387.2	382
2389.1	388
2391.01	384
2392.91	394
2394.81	366
2396.72	376
2398.62	388
2400.52	380
2402.42	380
2404.33	382
2406.23	378
2408.13	390
2410.03	392
2411.92	374
2413.82	384
2415.72	398
2417.62	378
2419.51	372
2421.41	374
2423.31	380
2425.2	376
2427.1	396
2428.99	384
2430.88	392
2432.78	396
2434.67	366
2436.56	380
2438.45	392
2440.34	386
2442.23	380
2444.12	416
2446.01	400
2447.9	406
2449.79	388