File: Jesse_Dataset_v2/Pure Raman/Polystyrene/633nm/ps-ppo-7jan25-1,0000-map3_Y04_X03.txt
182.393	1068
184.993	1034
187.593	1022
190.193	968
192.79	1030
195.387	972
197.983	988
200.578	968
203.174	1022
205.766	1038
208.36	1030
210.951	1086
213.542	1082
216.131	1088
218.721	1120
221.309	1118
223.897	1136
226.483	1098
229.069	1028
231.654	952
234.238	870
236.821	840
239.404	728
241.984	668
244.566	574
247.145	526
249.723	486
252.302	472
254.878	428
257.455	408
260.03	416
262.604	394
265.178	378
267.75	380
270.322	378
272.893	382
275.463	348
278.032	358
280.601	368
283.168	330
285.734	322
288.301	320
290.866	316
293.429	310
295.992	290
298.556	286
301.117	282
303.677	278
306.236	288
308.795	276
311.354	284
313.911	274
316.467	286
319.022	282
321.577	296
324.13	294
326.684	272
329.236	278
331.787	250
334.337	278
336.887	254
339.435	284
341.983	268
344.529	256
347.075	256
349.621	254
352.165	264
354.708	262
357.251	258
359.793	270
362.334	256
364.874	268
367.413	252
369.951	272
372.489	254
375.026	252
377.562	272
380.097	278
382.631	296
385.164	298
387.697	306
390.229	296
392.76	306
395.29	324
397.819	328
400.346	328
402.873	346
405.4	370
407.926	386
410.451	374
412.976	358
415.499	328
418.02	332
420.542	320
423.063	302
425.583	280
428.101	290
430.619	274
433.137	268
435.654	268
438.169	260
440.684	260
443.198	240
445.712	250
448.223	230
450.735	244
453.246	234
455.755	224
458.264	230
460.771	226
463.279	204
465.786	208
468.291	220
470.796	202
473.301	220
475.803	208
478.306	210
480.807	206
483.308	206
485.807	200
488.307	202
490.804	200
493.302	204
495.798	194
498.294	224
500.788	220
503.283	234
505.775	230
508.269	212
510.759	216
513.251	206
515.74	224
518.23	224
520.718	230
523.204	232
525.692	228
528.177	240
530.663	246
533.147	236
535.629	274
538.113	272
540.594	288
543.074	278
545.555	302
548.034	292
550.512	270
552.989	284
555.467	284
557.942	268
560.417	286
562.892	268
565.365	282
567.838	284
570.309	258
572.78	280
575.251	292
577.72	280
580.189	264
582.656	254
585.123	250
587.589	232
590.055	230
592.52	224
594.983	240
597.446	246
599.908	240
602.369	238
604.829	286
607.289	286
609.747	306
612.205	306
614.663	334
617.119	450
619.574	714
622.029	1136
624.483	1032
626.936	570
629.389	368
631.84	302
634.291	292
636.741	232
639.19	230
641.639	210
644.086	212
646.533	206
648.979	206
651.424	186
653.869	198
656.313	174
658.754	190
661.196	206
663.638	192
666.078	182
668.518	206
670.957	212
673.394	196
675.831	198
678.268	202
680.703	210
683.137	192
685.571	202
688.005	196
690.437	204
692.868	202
695.299	196
697.729	220
700.159	238
702.586	246
705.014	254
707.441	256
709.866	232
712.292	238
714.716	234
717.14	246
719.563	244
721.984	286
724.406	340
726.825	346
729.246	320
731.665	304
734.082	302
736.5	320
738.916	370
741.332	398
743.746	406
746.161	422
748.574	422
750.987	426
753.398	448
755.81	462
758.219	470
760.629	520
763.037	484
765.445	478
767.852	476
770.258	480
772.664	436
775.068	442
777.472	426
779.876	460
782.278	482
784.679	564
787.08	570
789.48	636
791.879	676
794.278	684
796.675	746
799.072	700
801.467	644
803.864	600
806.258	478
808.651	476
811.044	420
813.437	402
815.828	396
818.218	354
820.608	332
822.997	310
825.385	296
827.773	326
830.16	290
832.546	314
834.931	316
837.315	344
839.699	364
842.081	382
844.463	416
846.844	392
849.226	376
851.606	330
853.985	346
856.363	346
858.741	332
861.117	316
863.493	346
865.868	352
868.243	318
870.616	330
872.989	328
875.36	322
877.731	348
880.102	308
882.472	338
884.841	326
887.209	330
889.577	282
891.944	318
894.31	330
896.674	336
899.039	348
901.403	366
903.766	366
906.128	392
908.49	424
910.849	398
913.209	380
915.569	338
917.927	324
920.284	304
922.641	280
924.997	284
927.353	292
929.707	296
932.061	298
934.414	304
936.765	306
939.117	286
941.469	318
943.818	294
946.167	316
948.515	316
950.863	324
953.211	312
955.556	308
957.902	320
960.246	314
962.59	346
964.933	362
967.276	394
969.617	384
971.958	394
974.298	358
976.638	402
978.976	446
981.314	446
983.651	564
985.988	624
988.323	830
990.659	1202
992.992	1724
995.325	2004
997.658	2404
999.99	4234
1002.32	6688
1004.65	6164
1006.98	3446
1009.31	1628
1011.64	876
1013.97	634
1016.29	534
1018.62	514
1020.94	556
1023.27	686
1025.59	896
1027.91	1256
1030.24	1704
1032.56	2022
1034.88	1912
1037.2	1462
1039.52	1024
1041.84	748
1044.15	588
1046.47	522
1048.79	482
1051.1	482
1053.42	418
1055.73	452
1058.04	418
1060.36	434
1062.67	466
1064.98	480
1067.29	482
1069.6	506
1071.91	468
1074.22	496
1076.52	520
1078.83	488
1081.14	456
1083.44	486
1085.75	466
1088.05	476
1090.35	484
1092.65	480
1094.95	484
1097.26	484
1099.56	482
1101.86	450
1104.15	466
1106.45	434
1108.75	416
1111.05	406
1113.34	390
1115.64	404
1117.93	390
1120.22	334
1122.52	346
1124.81	346
1127.1	324
1129.39	310
1131.68	294
1133.97	322
1136.26	314
1138.54	330
1140.83	348
1143.12	382
1145.4	404
1147.69	452
1149.97	550
1152.25	708
1154.54	936
1156.82	1016
1159.1	922
1161.38	758
1163.66	640
1165.94	586
1168.22	524
1170.49	600
1172.77	614
1175.05	662
1177.32	778
1179.6	992
1181.87	1188
1184.14	1256
1186.42	1154
1188.69	1108
1190.96	1084
1193.23	1158
1195.5	1240
1197.77	1266
1200.03	1242
1202.3	1194
1204.57	1136
1206.83	1018
1209.1	890
1211.36	780
1213.63	646
1215.89	592
1218.15	554
1220.41	536
1222.67	486
1224.93	506
1227.19	498
1229.45	472
1231.71	480
1233.97	464
1236.22	412
1238.48	410
1240.73	420
1242.99	420
1245.24	408
1247.5	396
1249.75	400
1252	390
1254.25	406
1256.5	384
1258.75	412
1261	378
1263.25	370
1265.49	376
1267.74	390
1269.99	376
1272.23	390
1274.48	402
1276.72	382
1278.96	382
1281.21	390
1283.45	388
1285.69	380
1287.93	400
1290.17	388
1292.41	406
1294.64	404
1296.88	438
1299.12	430
1301.36	442
1303.59	440
1305.82	444
1308.06	444
1310.29	452
1312.52	468
1314.76	452
1316.99	484
1319.22	488
1321.45	532
1323.68	540
1325.9	544
1328.13	570
1330.36	556
1332.58	572
1334.81	562
1337.04	554
1339.26	506
1341.48	436
1343.71	450
1345.93	428
1348.15	444
1350.37	410
1352.59	400
1354.81	396
1357.03	412
1359.24	400
1361.46	394
1363.68	414
1365.89	400
1368.11	396
1370.32	410
1372.54	410
1374.75	422
1376.96	414
1379.17	394
1381.38	378
1383.59	368
1385.8	338
1388.01	344
1390.22	320
1392.43	292
1394.63	300
1396.84	298
1399.05	300
1401.25	320
1403.45	298
1405.66	294
1407.86	296
1410.06	314
1412.26	292
1414.46	284
1416.66	278
1418.86	302
1421.06	286
1423.26	298
1425.46	298
1427.65	304
1429.85	314
1432.04	324
1434.24	348
1436.43	392
1438.62	438
1440.82	474
1443.01	536
1445.2	544
1447.39	594
1449.58	632
1451.77	624
1453.95	594
1456.14	570
1458.33	476
1460.52	384
1462.7	354
1464.89	328
1467.07	304
1469.25	318
1471.44	294
1473.62	302
1475.8	306
1477.98	310
1480.16	274
1482.34	286
1484.52	296
1486.7	290
1488.87	302
1491.05	322
1493.23	310
1495.4	316
1497.58	310
1499.75	294
1501.92	278
1504.1	286
1506.27	292
1508.44	294
1510.61	286
1512.78	276
1514.95	288
1517.12	302
1519.28	294
1521.45	276
1523.62	284
1525.78	284
1527.95	286
1530.11	284
1532.28	292
1534.44	300
1536.6	316
1538.76	292
1540.93	298
1543.09	294
1545.25	306
1547.41	276
1549.56	326
1551.72	306
1553.88	316
1556.03	334
1558.19	312
1560.35	302
1562.5	320
1564.65	334
1566.81	338
1568.96	340
1571.11	370
1573.26	376
1575.41	432
1577.56	478
1579.71	622
1581.86	810
1584.01	1008
1586.15	922
1588.3	726
1590.45	608
1592.59	638
1594.74	726
1596.88	904
1599.02	1228
1601.17	1692
1603.31	1928
1605.45	1776
1607.59	1344
1609.73	956
1611.87	690
1614.01	572
1616.14	506
1618.28	450
1620.42	420
1622.55	406
1624.69	374
1626.82	360
1628.96	354
1631.09	348
1633.22	376
1635.36	344
1637.49	344
1639.62	348
1641.75	350
1643.88	350
1646	348
1648.13	358
1650.26	358
1652.39	350
1654.51	334
1656.64	342
1658.76	304
1660.89	302
1663.01	304
1665.13	322
1667.26	312
1669.38	336
1671.5	316
1673.62	306
1675.74	294
1677.86	324
1679.97	308
1682.09	328
1684.21	318
1686.33	324
1688.44	330
1690.56	306
1692.67	318
1694.78	308
1696.9	300
1699.01	288
1701.12	290
1703.23	318
1705.34	320
1707.45	312
1709.56	306
1711.67	302
1713.78	300
1715.88	298
1717.99	282
1720.1	314
1722.2	324
1724.31	314
1726.41	282
1728.51	304
1730.62	302
1732.72	286
1734.82	296
1736.92	312
1739.02	304
1741.12	306
1743.22	298
1745.32	292
1747.42	300
1749.51	310
1751.61	308
1753.7	298
1755.8	306
1757.89	294
1759.99	298
1762.08	290
1764.17	304
1766.26	310
1768.36	292
1770.45	326
1772.54	302
1774.62	308
1776.71	324
1778.8	318
1780.89	312
1782.98	278
1785.06	320
1787.15	330
1789.23	318
1791.32	300
1793.4	300
1795.48	318
1797.56	286
1799.65	302
1801.73	310
1803.81	300
1805.89	328
1807.97	292
1810.04	338
1812.12	312
1814.2	324
1816.28	336
1818.35	318
1820.43	326
1822.5	318
1824.58	336
1826.65	324
1828.72	316
1830.79	324
1832.86	310
1834.94	304
1837.01	328
1839.08	320
1841.15	326
1843.21	324
1845.28	324
1847.35	322
1849.41	320
1851.48	314
1853.55	312
1855.61	310
1857.67	330
1859.74	314
1861.8	322
1863.86	330
1865.92	330
1867.98	306
1870.05	290
1872.1	304
1874.16	320
1876.22	318
1878.28	318
1880.34	306
1882.39	316
1884.45	320
1886.5	320
1888.56	324
1890.61	306
1892.67	312
1894.72	326
1896.77	314
1898.82	330
1900.87	330
1902.92	316
1904.97	332
1907.02	348
1909.07	322
1911.12	350
1913.17	322
1915.21	324
1917.26	344
1919.3	344
1921.35	336
1923.39	344
1925.43	332
1927.48	324
1929.52	314
1931.56	334
1933.6	334
1935.64	360
1937.68	332
1939.72	342
1941.76	330
1943.8	354
1945.83	328
1947.87	338
1949.91	330
1951.94	330
1953.98	318
1956.01	336
1958.05	334
1960.08	336
1962.11	336
1964.14	354
1966.17	322
1968.2	342
1970.23	320
1972.26	320
1974.29	304
1976.32	328
1978.35	340
1980.37	326
1982.4	352
1984.43	352
1986.45	334
1988.48	330
1990.5	330
1992.52	338
1994.55	334
1996.57	342
1998.59	310
2000.61	346
2002.63	304
2004.65	338
2006.67	328
2008.69	334
2010.7	332
2012.72	326
2014.74	330
2016.75	334
2018.77	344
2020.78	344
2022.8	354
2024.81	332
2026.83	320
2028.84	338
2030.85	338
2032.86	338
2034.87	324
2036.88	330
2038.89	328
2040.9	324
2042.91	344
2044.91	344
2046.92	350
2048.93	344
2050.93	340
2052.94	330
2054.94	338
2056.95	340
2058.95	328
2060.95	350
2062.95	352
2064.96	354
2066.96	334
2068.96	346
2070.96	342
2072.96	318
2074.95	350
2076.95	336
2078.95	340
2080.95	336
2082.94	342
2084.94	360
2086.93	352
2088.93	346
2090.92	352
2092.91	350
2094.91	338
2096.9	346
2098.89	336
2100.88	338
2102.87	336
2104.86	320
2106.85	330
2108.84	354
2110.83	346
2112.81	342
2114.8	336
2116.78	312
2118.77	344
2120.75	344
2122.74	350
2124.72	346
2126.71	354
2128.69	336
2130.67	346
2132.65	346
2134.63	344
2136.61	348
2138.59	334
2140.57	352
2142.55	348
2144.53	334
2146.5	336
2148.48	342
2150.46	356
2152.43	336
2154.41	346
2156.38	322
2158.35	356
2160.33	350
2162.3	342
2164.27	342
2166.24	356
2168.21	336
2170.18	332
2172.15	356
2174.12	354
2176.09	352
2178.06	348
2180.03	370
2181.99	350
2183.96	346
2185.92	346
2187.89	370
2189.85	344
2191.82	334
2193.78	348
2195.74	362
2197.7	346
2199.67	352
2201.63	344
2203.59	346
2205.55	330
2207.51	330
2209.46	348
2211.42	356
2213.38	358
2215.34	358
2217.29	350
2219.25	348
2221.2	360
2223.16	352
2225.11	364
2227.06	348
2229.02	344
2230.97	350
2232.92	338
2234.87	332
2236.82	338
2238.77	326
2240.72	354
2242.67	348
2244.62	336
2246.57	350
2248.51	338
2250.46	360
2252.4	344
2254.35	362
2256.29	342
2258.24	358
2260.18	342
2262.13	344
2264.07	354
2266.01	334
2267.95	350
2269.89	358
2271.83	342
2273.77	364
2275.71	334
2277.65	336
2279.58	352
2281.52	360
2283.46	344
2285.4	356
2287.33	360
2289.27	366
2291.2	356
2293.13	356
2295.07	340
2297	356
2298.93	374
2300.86	342
2302.79	368
2304.72	338
2306.65	362
2308.58	368
2310.51	384
2312.44	354
2314.37	360
2316.29	364
2318.22	360
2320.15	350
2322.07	346
2324	334
2325.92	368
2327.84	356
2329.77	352
2331.69	356
2333.61	342
2335.53	370
2337.45	358
2339.37	338
2341.29	358
2343.21	356
2345.13	356
2347.05	362
2348.97	366
2350.88	360
2352.8	356
2354.71	342
2356.63	372
2358.54	358
2360.46	360
2362.37	356
2364.28	348
2366.2	344
2368.11	358
2370.02	352
2371.93	374
2373.84	376
2375.75	346
2377.66	352
2379.57	376
2381.47	358
2383.38	360
2385.29	368
2387.2	366
2389.1	354
2391.01	356
2392.91	366
2394.81	342
2396.72	358
2398.62	360
2400.52	374
2402.42	356
2404.33	352
2406.23	356
2408.13	352
2410.03	362
2411.92	360
2413.82	346
2415.72	352
2417.62	342
2419.51	374
2421.41	366
2423.31	354
2425.2	354
2427.1	354
2428.99	356
2430.88	368
2432.78	356
2434.67	356
2436.56	370
2438.45	354
2440.34	380
2442.23	382
2444.12	390
2446.01	374
2447.9	354
2449.79	366