File: Jesse_Dataset_v2/Pure Raman/Polystyrene/633nm/ps-ppo-7jan25-1,0000-map3_Y07_X09.txt
182.393	1092
184.993	1014
187.593	1000
190.193	1002
192.79	998
195.387	932
197.983	962
200.578	968
203.174	996
205.766	1006
208.36	1022
210.951	1032
213.542	1106
216.131	1084
218.721	1106
221.309	1108
223.897	1112
226.483	1060
229.069	1028
231.654	942
234.238	868
236.821	790
239.404	698
241.984	630
244.566	542
247.145	500
249.723	484
252.302	456
254.878	410
257.455	406
260.03	392
262.604	412
265.178	380
267.75	372
270.322	378
272.893	368
275.463	358
278.032	358
280.601	340
283.168	336
285.734	312
288.301	298
290.866	306
293.429	310
295.992	308
298.556	282
301.117	278
303.677	272
306.236	258
308.795	280
311.354	278
313.911	268
316.467	284
319.022	280
321.577	276
324.13	276
326.684	248
329.236	278
331.787	270
334.337	292
336.887	274
339.435	266
341.983	292
344.529	280
347.075	254
349.621	258
352.165	254
354.708	232
357.251	254
359.793	224
362.334	256
364.874	252
367.413	232
369.951	254
372.489	262
375.026	272
377.562	252
380.097	264
382.631	282
385.164	288
387.697	292
390.229	294
392.76	308
395.29	316
397.819	308
400.346	332
402.873	346
405.4	368
407.926	390
410.451	352
412.976	368
415.499	330
418.02	324
420.542	304
423.063	302
425.583	276
428.101	284
430.619	256
433.137	254
435.654	264
438.169	244
440.684	244
443.198	252
445.712	238
448.223	252
450.735	236
453.246	232
455.755	216
458.264	224
460.771	226
463.279	202
465.786	218
468.291	204
470.796	216
473.301	190
475.803	226
478.306	216
480.807	218
483.308	198
485.807	212
488.307	202
490.804	200
493.302	200
495.798	208
498.294	218
500.788	222
503.283	220
505.775	232
508.269	224
510.759	218
513.251	208
515.74	242
518.23	224
520.718	236
523.204	226
525.692	250
528.177	246
530.663	246
533.147	272
535.629	272
538.113	282
540.594	276
543.074	290
545.555	286
548.034	288
550.512	274
552.989	278
555.467	282
557.942	282
560.417	242
562.892	290
565.365	292
567.838	286
570.309	274
572.78	272
575.251	284
577.72	278
580.189	278
582.656	252
585.123	252
587.589	234
590.055	236
592.52	242
594.983	226
597.446	252
599.908	242
602.369	246
604.829	270
607.289	292
609.747	290
612.205	320
614.663	334
617.119	456
619.574	752
622.029	1112
624.483	976
626.936	570
629.389	342
631.84	324
634.291	282
636.741	254
639.19	240
641.639	230
644.086	214
646.533	186
648.979	206
651.424	214
653.869	204
656.313	188
658.754	200
661.196	206
663.638	192
666.078	198
668.518	202
670.957	198
673.394	192
675.831	194
678.268	196
680.703	204
683.137	200
685.571	190
688.005	204
690.437	194
692.868	204
695.299	204
697.729	218
700.159	220
702.586	242
705.014	252
707.441	254
709.866	218
712.292	236
714.716	238
717.14	248
719.563	242
721.984	264
724.406	334
726.825	346
729.246	322
731.665	300
734.082	304
736.5	302
738.916	362
741.332	396
743.746	410
746.161	396
748.574	410
750.987	440
753.398	464
755.81	450
758.219	516
760.629	514
763.037	496
765.445	452
767.852	476
770.258	472
772.664	452
775.068	446
777.472	436
779.876	480
782.278	458
784.679	536
787.08	596
789.48	632
791.879	672
794.278	714
796.675	700
799.072	714
801.467	688
803.864	594
806.258	532
808.651	484
811.044	426
813.437	420
815.828	392
818.218	362
820.608	320
822.997	302
825.385	298
827.773	306
830.16	308
832.546	298
834.931	312
837.315	342
839.699	360
842.081	374
844.463	396
846.844	400
849.226	370
851.606	356
853.985	336
856.363	314
858.741	344
861.117	324
863.493	328
865.868	334
868.243	336
870.616	324
872.989	324
875.36	326
877.731	314
880.102	330
882.472	310
884.841	316
887.209	316
889.577	308
891.944	324
894.31	316
896.674	326
899.039	338
901.403	330
903.766	376
906.128	388
908.49	386
910.849	376
913.209	354
915.569	326
917.927	320
920.284	288
922.641	298
924.997	278
927.353	288
929.707	292
932.061	282
934.414	282
936.765	292
939.117	292
941.469	300
943.818	290
946.167	306
948.515	316
950.863	302
953.211	296
955.556	312
957.902	308
960.246	330
962.59	340
964.933	350
967.276	354
969.617	374
971.958	366
974.298	350
976.638	400
978.976	442
981.314	474
983.651	590
985.988	660
988.323	828
990.659	1174
992.992	1758
995.325	1904
997.658	2362
999.99	4274
1002.32	6660
1004.65	6162
1006.98	3458
1009.31	1608
1011.64	862
1013.97	600
1016.29	506
1018.62	492
1020.94	538
1023.27	648
1025.59	860
1027.91	1238
1030.24	1682
1032.56	1990
1034.88	1910
1037.2	1448
1039.52	1006
1041.84	748
1044.15	586
1046.47	516
1048.79	486
1051.1	450
1053.42	438
1055.73	456
1058.04	422
1060.36	430
1062.67	460
1064.98	456
1067.29	472
1069.6	482
1071.91	470
1074.22	478
1076.52	468
1078.83	480
1081.14	454
1083.44	458
1085.75	470
1088.05	454
1090.35	458
1092.65	456
1094.95	468
1097.26	486
1099.56	476
1101.86	464
1104.15	432
1106.45	422
1108.75	418
1111.05	390
1113.34	368
1115.64	368
1117.93	358
1120.22	342
1122.52	338
1124.81	324
1127.1	318
1129.39	288
1131.68	282
1133.97	304
1136.26	314
1138.54	330
1140.83	346
1143.12	390
1145.4	404
1147.69	454
1149.97	542
1152.25	708
1154.54	918
1156.82	1010
1159.1	908
1161.38	726
1163.66	628
1165.94	566
1168.22	554
1170.49	548
1172.77	550
1175.05	684
1177.32	802
1179.6	1036
1181.87	1184
1184.14	1260
1186.42	1088
1188.69	1080
1190.96	1078
1193.23	1180
1195.5	1238
1197.77	1298
1200.03	1226
1202.3	1220
1204.57	1100
1206.83	980
1209.1	872
1211.36	766
1213.63	652
1215.89	578
1218.15	564
1220.41	546
1222.67	508
1224.93	510
1227.19	478
1229.45	444
1231.71	442
1233.97	420
1236.22	416
1238.48	408
1240.73	392
1242.99	410
1245.24	404
1247.5	404
1249.75	376
1252	416
1254.25	394
1256.5	396
1258.75	404
1261	394
1263.25	384
1265.49	378
1267.74	378
1269.99	384
1272.23	364
1274.48	396
1276.72	392
1278.96	388
1281.21	392
1283.45	376
1285.69	390
1287.93	390
1290.17	412
1292.41	408
1294.64	394
1296.88	416
1299.12	422
1301.36	440
1303.59	434
1305.82	466
1308.06	446
1310.29	458
1312.52	468
1314.76	452
1316.99	488
1319.22	518
1321.45	516
1323.68	566
1325.9	576
1328.13	558
1330.36	574
1332.58	588
1334.81	576
1337.04	546
1339.26	500
1341.48	490
1343.71	458
1345.93	440
1348.15	426
1350.37	428
1352.59	438
1354.81	428
1357.03	416
1359.24	404
1361.46	430
1363.68	422
1365.89	412
1368.11	434
1370.32	418
1372.54	410
1374.75	410
1376.96	408
1379.17	384
1381.38	374
1383.59	376
1385.8	362
1388.01	308
1390.22	322
1392.43	316
1394.63	316
1396.84	310
1399.05	310
1401.25	314
1403.45	322
1405.66	328
1407.86	326
1410.06	326
1412.26	312
1414.46	310
1416.66	298
1418.86	288
1421.06	294
1423.26	292
1425.46	316
1427.65	324
1429.85	326
1432.04	324
1434.24	364
1436.43	408
1438.62	452
1440.82	492
1443.01	516
1445.2	602
1447.39	606
1449.58	636
1451.77	640
1453.95	612
1456.14	570
1458.33	486
1460.52	418
1462.7	384
1464.89	364
1467.07	352
1469.25	332
1471.44	304
1473.62	318
1475.8	320
1477.98	322
1480.16	332
1482.34	330
1484.52	312
1486.7	332
1488.87	306
1491.05	322
1493.23	332
1495.4	340
1497.58	336
1499.75	324
1501.92	296
1504.1	334
1506.27	322
1508.44	316
1510.61	304
1512.78	294
1514.95	316
1517.12	300
1519.28	306
1521.45	294
1523.62	308
1525.78	330
1527.95	304
1530.11	302
1532.28	318
1534.44	304
1536.6	318
1538.76	324
1540.93	298
1543.09	304
1545.25	320
1547.41	322
1549.56	330
1551.72	328
1553.88	320
1556.03	314
1558.19	332
1560.35	342
1562.5	340
1564.65	350
1566.81	344
1568.96	368
1571.11	384
1573.26	404
1575.41	468
1577.56	514
1579.71	630
1581.86	854
1584.01	1024
1586.15	926
1588.3	744
1590.45	622
1592.59	620
1594.74	706
1596.88	922
1599.02	1300
1601.17	1664
1603.31	1918
1605.45	1780
1607.59	1324
1609.73	942
1611.87	684
1614.01	586
1616.14	482
1618.28	462
1620.42	452
1622.55	406
1624.69	390
1626.82	392
1628.96	358
1631.09	384
1633.22	354
1635.36	352
1637.49	342
1639.62	358
1641.75	352
1643.88	364
1646	384
1648.13	386
1650.26	360
1652.39	382
1654.51	342
1656.64	358
1658.76	324
1660.89	344
1663.01	330
1665.13	310
1667.26	342
1669.38	302
1671.5	320
1673.62	320
1675.74	326
1677.86	324
1679.97	332
1682.09	324
1684.21	340
1686.33	316
1688.44	308
1690.56	344
1692.67	328
1694.78	316
1696.9	316
1699.01	316
1701.12	298
1703.23	316
1705.34	320
1707.45	310
1709.56	314
1711.67	318
1713.78	322
1715.88	308
1717.99	318
1720.1	286
1722.2	308
1724.31	310
1726.41	316
1728.51	310
1730.62	302
1732.72	300
1734.82	316
1736.92	308
1739.02	310
1741.12	324
1743.22	310
1745.32	320
1747.42	310
1749.51	308
1751.61	314
1753.7	308
1755.8	304
1757.89	298
1759.99	308
1762.08	304
1764.17	304
1766.26	310
1768.36	316
1770.45	300
1772.54	324
1774.62	298
1776.71	318
1778.8	314
1780.89	306
1782.98	312
1785.06	308
1787.15	312
1789.23	312
1791.32	314
1793.4	308
1795.48	314
1797.56	300
1799.65	322
1801.73	294
1803.81	316
1805.89	328
1807.97	332
1810.04	302
1812.12	312
1814.2	312
1816.28	304
1818.35	310
1820.43	334
1822.5	316
1824.58	326
1826.65	316
1828.72	310
1830.79	318
1832.86	308
1834.94	312
1837.01	328
1839.08	308
1841.15	326
1843.21	310
1845.28	312
1847.35	312
1849.41	324
1851.48	324
1853.55	336
1855.61	314
1857.67	312
1859.74	310
1861.8	320
1863.86	310
1865.92	294
1867.98	340
1870.05	328
1872.1	322
1874.16	310
1876.22	320
1878.28	324
1880.34	316
1882.39	308
1884.45	316
1886.5	310
1888.56	334
1890.61	318
1892.67	322
1894.72	318
1896.77	330
1898.82	318
1900.87	316
1902.92	320
1904.97	342
1907.02	298
1909.07	314
1911.12	332
1913.17	318
1915.21	328
1917.26	326
1919.3	340
1921.35	320
1923.39	324
1925.43	334
1927.48	334
1929.52	338
1931.56	330
1933.6	332
1935.64	324
1937.68	330
1939.72	336
1941.76	310
1943.8	344
1945.83	326
1947.87	316
1949.91	330
1951.94	330
1953.98	328
1956.01	332
1958.05	322
1960.08	324
1962.11	312
1964.14	324
1966.17	314
1968.2	332
1970.23	320
1972.26	324
1974.29	334
1976.32	324
1978.35	300
1980.37	334
1982.4	314
1984.43	318
1986.45	356
1988.48	320
1990.5	342
1992.52	324
1994.55	316
1996.57	348
1998.59	304
2000.61	326
2002.63	334
2004.65	332
2006.67	346
2008.69	336
2010.7	340
2012.72	342
2014.74	336
2016.75	334
2018.77	332
2020.78	316
2022.8	338
2024.81	332
2026.83	344
2028.84	328
2030.85	346
2032.86	336
2034.87	348
2036.88	330
2038.89	350
2040.9	348
2042.91	322
2044.91	324
2046.92	334
2048.93	328
2050.93	354
2052.94	340
2054.94	346
2056.95	330
2058.95	322
2060.95	334
2062.95	334
2064.96	342
2066.96	350
2068.96	324
2070.96	344
2072.96	362
2074.95	326
2076.95	352
2078.95	356
2080.95	348
2082.94	344
2084.94	334
2086.93	354
2088.93	340
2090.92	336
2092.91	324
2094.91	330
2096.9	330
2098.89	338
2100.88	342
2102.87	336
2104.86	336
2106.85	332
2108.84	348
2110.83	350
2112.81	358
2114.8	360
2116.78	340
2118.77	334
2120.75	352
2122.74	352
2124.72	336
2126.71	334
2128.69	354
2130.67	332
2132.65	344
2134.63	350
2136.61	346
2138.59	332
2140.57	346
2142.55	340
2144.53	322
2146.5	344
2148.48	342
2150.46	344
2152.43	368
2154.41	336
2156.38	334
2158.35	344
2160.33	350
2162.3	358
2164.27	356
2166.24	342
2168.21	348
2170.18	362
2172.15	360
2174.12	350
2176.09	322
2178.06	362
2180.03	348
2181.99	358
2183.96	376
2185.92	340
2187.89	328
2189.85	348
2191.82	352
2193.78	358
2195.74	354
2197.7	326
2199.67	346
2201.63	366
2203.59	360
2205.55	352
2207.51	358
2209.46	346
2211.42	354
2213.38	356
2215.34	346
2217.29	326
2219.25	352
2221.2	358
2223.16	342
2225.11	330
2227.06	340
2229.02	326
2230.97	354
2232.92	344
2234.87	362
2236.82	340
2238.77	372
2240.72	332
2242.67	360
2244.62	354
2246.57	322
2248.51	356
2250.46	344
2252.4	344
2254.35	362
2256.29	342
2258.24	358
2260.18	352
2262.13	348
2264.07	332
2266.01	348
2267.95	326
2269.89	360
2271.83	358
2273.77	336
2275.71	336
2277.65	348
2279.58	344
2281.52	354
2283.46	336
2285.4	348
2287.33	354
2289.27	340
2291.2	348
2293.13	358
2295.07	370
2297	366
2298.93	368
2300.86	356
2302.79	358
2304.72	350
2306.65	352
2308.58	372
2310.51	346
2312.44	376
2314.37	356
2316.29	338
2318.22	358
2320.15	356
2322.07	360
2324	350
2325.92	356
2327.84	346
2329.77	352
2331.69	358
2333.61	366
2335.53	364
2337.45	370
2339.37	336
2341.29	364
2343.21	354
2345.13	368
2347.05	378
2348.97	376
2350.88	366
2352.8	376
2354.71	370
2356.63	366
2358.54	354
2360.46	354
2362.37	370
2364.28	364
2366.2	352
2368.11	364
2370.02	350
2371.93	356
2373.84	380
2375.75	366
2377.66	352
2379.57	364
2381.47	360
2383.38	362
2385.29	344
2387.2	354
2389.1	352
2391.01	370
2392.91	364
2394.81	376
2396.72	360
2398.62	360
2400.52	344
2402.42	348
2404.33	360
2406.23	360
2408.13	390
2410.03	350
2411.92	376
2413.82	360
2415.72	338
2417.62	366
2419.51	358
2421.41	368
2423.31	364
2425.2	350
2427.1	350
2428.99	374
2430.88	368
2432.78	354
2434.67	358
2436.56	356
2438.45	358
2440.34	378
2442.23	374
2444.12	382
2446.01	364
2447.9	368
2449.79	386