File: Jesse_Dataset_v2/Pure Raman/Polystyrene/633nm/ps-ppo-7jan25-1,0000-map3_Y07_X08.txt
182.393	1080
184.993	1022
187.593	1044
190.193	976
192.79	948
195.387	942
197.983	988
200.578	984
203.174	966
205.766	964
208.36	1044
210.951	1060
213.542	1086
216.131	1108
218.721	1126
221.309	1120
223.897	1080
226.483	1084
229.069	1032
231.654	974
234.238	874
236.821	792
239.404	750
241.984	640
244.566	576
247.145	526
249.723	490
252.302	440
254.878	420
257.455	414
260.03	384
262.604	394
265.178	366
267.75	376
270.322	374
272.893	362
275.463	344
278.032	334
280.601	350
283.168	354
285.734	338
288.301	296
290.866	324
293.429	306
295.992	304
298.556	290
301.117	282
303.677	278
306.236	276
308.795	280
311.354	284
313.911	266
316.467	270
319.022	276
321.577	280
324.13	272
326.684	282
329.236	274
331.787	278
334.337	280
336.887	270
339.435	278
341.983	262
344.529	252
347.075	256
349.621	266
352.165	248
354.708	266
357.251	250
359.793	244
362.334	256
364.874	262
367.413	272
369.951	264
372.489	256
375.026	282
377.562	268
380.097	270
382.631	290
385.164	294
387.697	288
390.229	304
392.76	328
395.29	316
397.819	336
400.346	330
402.873	354
405.4	362
407.926	402
410.451	372
412.976	368
415.499	332
418.02	318
420.542	306
423.063	300
425.583	278
428.101	268
430.619	262
433.137	260
435.654	252
438.169	258
440.684	250
443.198	242
445.712	240
448.223	238
450.735	236
453.246	230
455.755	234
458.264	218
460.771	210
463.279	208
465.786	222
468.291	212
470.796	218
473.301	194
475.803	206
478.306	214
480.807	202
483.308	210
485.807	202
488.307	208
490.804	210
493.302	192
495.798	212
498.294	196
500.788	218
503.283	228
505.775	206
508.269	222
510.759	232
513.251	210
515.74	246
518.23	220
520.718	240
523.204	242
525.692	240
528.177	232
530.663	256
533.147	270
535.629	282
538.113	302
540.594	276
543.074	262
545.555	286
548.034	278
550.512	264
552.989	272
555.467	270
557.942	286
560.417	278
562.892	262
565.365	268
567.838	244
570.309	286
572.78	268
575.251	276
577.72	260
580.189	260
582.656	242
585.123	246
587.589	236
590.055	252
592.52	238
594.983	228
597.446	252
599.908	250
602.369	264
604.829	258
607.289	278
609.747	310
612.205	312
614.663	322
617.119	462
619.574	726
622.029	1134
624.483	1018
626.936	554
629.389	368
631.84	308
634.291	276
636.741	256
639.19	232
641.639	212
644.086	204
646.533	200
648.979	206
651.424	196
653.869	200
656.313	200
658.754	202
661.196	200
663.638	202
666.078	190
668.518	192
670.957	202
673.394	194
675.831	200
678.268	192
680.703	190
683.137	184
685.571	212
688.005	212
690.437	194
692.868	196
695.299	198
697.729	214
700.159	236
702.586	238
705.014	250
707.441	226
709.866	246
712.292	240
714.716	228
717.14	244
719.563	244
721.984	270
724.406	324
726.825	350
729.246	312
731.665	308
734.082	304
736.5	318
738.916	368
741.332	386
743.746	396
746.161	420
748.574	422
750.987	406
753.398	450
755.81	470
758.219	478
760.629	530
763.037	506
765.445	518
767.852	470
770.258	474
772.664	442
775.068	444
777.472	454
779.876	454
782.278	484
784.679	510
787.08	582
789.48	646
791.879	698
794.278	698
796.675	716
799.072	708
801.467	654
803.864	578
806.258	508
808.651	474
811.044	418
813.437	370
815.828	398
818.218	354
820.608	324
822.997	296
825.385	290
827.773	316
830.16	288
832.546	316
834.931	304
837.315	356
839.699	374
842.081	400
844.463	408
846.844	406
849.226	364
851.606	352
853.985	340
856.363	342
858.741	354
861.117	310
863.493	326
865.868	328
868.243	334
870.616	324
872.989	334
875.36	330
877.731	320
880.102	326
882.472	328
884.841	308
887.209	328
889.577	296
891.944	342
894.31	308
896.674	322
899.039	338
901.403	358
903.766	362
906.128	392
908.49	378
910.849	386
913.209	372
915.569	330
917.927	316
920.284	304
922.641	278
924.997	286
927.353	284
929.707	286
932.061	304
934.414	296
936.765	290
939.117	306
941.469	296
943.818	282
946.167	288
948.515	298
950.863	290
953.211	322
955.556	282
957.902	338
960.246	324
962.59	348
964.933	346
967.276	350
969.617	376
971.958	364
974.298	374
976.638	384
978.976	446
981.314	490
983.651	580
985.988	652
988.323	814
990.659	1230
992.992	1714
995.325	1940
997.658	2404
999.99	4256
1002.32	6552
1004.65	6116
1006.98	3396
1009.31	1612
1011.64	814
1013.97	588
1016.29	496
1018.62	504
1020.94	546
1023.27	658
1025.59	878
1027.91	1196
1030.24	1638
1032.56	2014
1034.88	1886
1037.2	1470
1039.52	1032
1041.84	760
1044.15	586
1046.47	526
1048.79	484
1051.1	456
1053.42	468
1055.73	440
1058.04	430
1060.36	450
1062.67	444
1064.98	480
1067.29	454
1069.6	492
1071.91	478
1074.22	470
1076.52	478
1078.83	476
1081.14	478
1083.44	458
1085.75	458
1088.05	460
1090.35	460
1092.65	452
1094.95	454
1097.26	472
1099.56	458
1101.86	460
1104.15	420
1106.45	436
1108.75	394
1111.05	388
1113.34	388
1115.64	368
1117.93	372
1120.22	334
1122.52	336
1124.81	318
1127.1	332
1129.39	334
1131.68	322
1133.97	320
1136.26	320
1138.54	334
1140.83	342
1143.12	390
1145.4	398
1147.69	436
1149.97	520
1152.25	700
1154.54	916
1156.82	1022
1159.1	932
1161.38	734
1163.66	604
1165.94	538
1168.22	532
1170.49	540
1172.77	570
1175.05	662
1177.32	806
1179.6	1002
1181.87	1196
1184.14	1226
1186.42	1152
1188.69	1106
1190.96	1090
1193.23	1174
1195.5	1252
1197.77	1222
1200.03	1232
1202.3	1176
1204.57	1114
1206.83	978
1209.1	880
1211.36	756
1213.63	656
1215.89	564
1218.15	554
1220.41	522
1222.67	486
1224.93	474
1227.19	500
1229.45	452
1231.71	448
1233.97	450
1236.22	454
1238.48	420
1240.73	418
1242.99	408
1245.24	408
1247.5	396
1249.75	404
1252	392
1254.25	390
1256.5	388
1258.75	388
1261	378
1263.25	374
1265.49	380
1267.74	382
1269.99	392
1272.23	366
1274.48	358
1276.72	370
1278.96	398
1281.21	400
1283.45	378
1285.69	380
1287.93	400
1290.17	398
1292.41	390
1294.64	408
1296.88	418
1299.12	442
1301.36	452
1303.59	454
1305.82	428
1308.06	454
1310.29	456
1312.52	474
1314.76	472
1316.99	500
1319.22	482
1321.45	514
1323.68	528
1325.9	560
1328.13	568
1330.36	574
1332.58	550
1334.81	532
1337.04	522
1339.26	476
1341.48	480
1343.71	444
1345.93	450
1348.15	432
1350.37	416
1352.59	398
1354.81	408
1357.03	384
1359.24	404
1361.46	392
1363.68	386
1365.89	406
1368.11	398
1370.32	416
1372.54	416
1374.75	410
1376.96	392
1379.17	412
1381.38	372
1383.59	348
1385.8	356
1388.01	328
1390.22	294
1392.43	312
1394.63	304
1396.84	314
1399.05	304
1401.25	312
1403.45	322
1405.66	282
1407.86	308
1410.06	312
1412.26	312
1414.46	294
1416.66	280
1418.86	306
1421.06	278
1423.26	290
1425.46	288
1427.65	306
1429.85	308
1432.04	328
1434.24	364
1436.43	414
1438.62	450
1440.82	488
1443.01	518
1445.2	550
1447.39	616
1449.58	646
1451.77	610
1453.95	614
1456.14	556
1458.33	492
1460.52	402
1462.7	356
1464.89	352
1467.07	336
1469.25	316
1471.44	320
1473.62	292
1475.8	300
1477.98	306
1480.16	292
1482.34	312
1484.52	308
1486.7	294
1488.87	298
1491.05	312
1493.23	314
1495.4	320
1497.58	302
1499.75	290
1501.92	310
1504.1	290
1506.27	294
1508.44	298
1510.61	308
1512.78	276
1514.95	290
1517.12	296
1519.28	308
1521.45	282
1523.62	302
1525.78	286
1527.95	306
1530.11	306
1532.28	286
1534.44	260
1536.6	314
1538.76	304
1540.93	290
1543.09	284
1545.25	312
1547.41	314
1549.56	302
1551.72	308
1553.88	298
1556.03	314
1558.19	308
1560.35	334
1562.5	318
1564.65	324
1566.81	362
1568.96	344
1571.11	372
1573.26	402
1575.41	420
1577.56	504
1579.71	636
1581.86	842
1584.01	1010
1586.15	964
1588.3	724
1590.45	614
1592.59	632
1594.74	700
1596.88	938
1599.02	1254
1601.17	1658
1603.31	1878
1605.45	1702
1607.59	1312
1609.73	962
1611.87	672
1614.01	572
1616.14	500
1618.28	460
1620.42	420
1622.55	406
1624.69	380
1626.82	378
1628.96	328
1631.09	354
1633.22	320
1635.36	358
1637.49	326
1639.62	344
1641.75	360
1643.88	360
1646	358
1648.13	356
1650.26	374
1652.39	366
1654.51	344
1656.64	324
1658.76	324
1660.89	310
1663.01	310
1665.13	280
1667.26	320
1669.38	316
1671.5	308
1673.62	314
1675.74	312
1677.86	306
1679.97	306
1682.09	302
1684.21	314
1686.33	326
1688.44	312
1690.56	314
1692.67	308
1694.78	328
1696.9	302
1699.01	320
1701.12	292
1703.23	306
1705.34	302
1707.45	302
1709.56	300
1711.67	290
1713.78	312
1715.88	306
1717.99	312
1720.1	314
1722.2	284
1724.31	308
1726.41	304
1728.51	298
1730.62	316
1732.72	306
1734.82	300
1736.92	306
1739.02	318
1741.12	330
1743.22	316
1745.32	300
1747.42	308
1749.51	316
1751.61	306
1753.7	296
1755.8	298
1757.89	304
1759.99	298
1762.08	292
1764.17	298
1766.26	306
1768.36	294
1770.45	308
1772.54	298
1774.62	312
1776.71	310
1778.8	302
1780.89	300
1782.98	308
1785.06	318
1787.15	302
1789.23	316
1791.32	296
1793.4	294
1795.48	294
1797.56	322
1799.65	304
1801.73	328
1803.81	314
1805.89	296
1807.97	294
1810.04	312
1812.12	320
1814.2	320
1816.28	320
1818.35	340
1820.43	314
1822.5	320
1824.58	304
1826.65	304
1828.72	322
1830.79	310
1832.86	304
1834.94	294
1837.01	312
1839.08	296
1841.15	296
1843.21	304
1845.28	292
1847.35	294
1849.41	308
1851.48	330
1853.55	308
1855.61	300
1857.67	330
1859.74	314
1861.8	292
1863.86	316
1865.92	304
1867.98	316
1870.05	292
1872.1	300
1874.16	304
1876.22	312
1878.28	314
1880.34	302
1882.39	310
1884.45	304
1886.5	318
1888.56	322
1890.61	322
1892.67	320
1894.72	302
1896.77	300
1898.82	314
1900.87	312
1902.92	290
1904.97	314
1907.02	318
1909.07	304
1911.12	322
1913.17	328
1915.21	338
1917.26	320
1919.3	322
1921.35	322
1923.39	300
1925.43	344
1927.48	340
1929.52	330
1931.56	332
1933.6	308
1935.64	330
1937.68	342
1939.72	344
1941.76	328
1943.8	308
1945.83	308
1947.87	312
1949.91	312
1951.94	306
1953.98	320
1956.01	334
1958.05	326
1960.08	324
1962.11	334
1964.14	314
1966.17	322
1968.2	318
1970.23	320
1972.26	330
1974.29	320
1976.32	338
1978.35	316
1980.37	318
1982.4	328
1984.43	320
1986.45	310
1988.48	324
1990.5	336
1992.52	306
1994.55	334
1996.57	314
1998.59	320
2000.61	328
2002.63	326
2004.65	326
2006.67	328
2008.69	314
2010.7	326
2012.72	326
2014.74	326
2016.75	340
2018.77	334
2020.78	338
2022.8	332
2024.81	336
2026.83	326
2028.84	322
2030.85	332
2032.86	318
2034.87	320
2036.88	344
2038.89	336
2040.9	328
2042.91	322
2044.91	320
2046.92	338
2048.93	310
2050.93	330
2052.94	336
2054.94	314
2056.95	322
2058.95	334
2060.95	344
2062.95	326
2064.96	342
2066.96	318
2068.96	342
2070.96	318
2072.96	332
2074.95	326
2076.95	326
2078.95	310
2080.95	332
2082.94	330
2084.94	336
2086.93	334
2088.93	330
2090.92	334
2092.91	340
2094.91	348
2096.9	332
2098.89	310
2100.88	324
2102.87	352
2104.86	356
2106.85	306
2108.84	340
2110.83	344
2112.81	354
2114.8	324
2116.78	326
2118.77	360
2120.75	352
2122.74	320
2124.72	312
2126.71	366
2128.69	340
2130.67	346
2132.65	328
2134.63	330
2136.61	338
2138.59	342
2140.57	328
2142.55	338
2144.53	310
2146.5	340
2148.48	342
2150.46	348
2152.43	314
2154.41	350
2156.38	358
2158.35	342
2160.33	336
2162.3	338
2164.27	332
2166.24	348
2168.21	336
2170.18	328
2172.15	346
2174.12	350
2176.09	336
2178.06	340
2180.03	346
2181.99	356
2183.96	346
2185.92	326
2187.89	328
2189.85	354
2191.82	346
2193.78	332
2195.74	362
2197.7	340
2199.67	360
2201.63	324
2203.59	344
2205.55	334
2207.51	328
2209.46	352
2211.42	348
2213.38	364
2215.34	352
2217.29	328
2219.25	340
2221.2	342
2223.16	368
2225.11	350
2227.06	334
2229.02	346
2230.97	336
2232.92	358
2234.87	346
2236.82	338
2238.77	338
2240.72	346
2242.67	344
2244.62	340
2246.57	330
2248.51	346
2250.46	340
2252.4	356
2254.35	340
2256.29	376
2258.24	352
2260.18	346
2262.13	358
2264.07	342
2266.01	360
2267.95	350
2269.89	350
2271.83	350
2273.77	354
2275.71	332
2277.65	352
2279.58	364
2281.52	338
2283.46	354
2285.4	348
2287.33	340
2289.27	340
2291.2	352
2293.13	352
2295.07	364
2297	348
2298.93	344
2300.86	348
2302.79	352
2304.72	320
2306.65	360
2308.58	356
2310.51	344
2312.44	364
2314.37	344
2316.29	366
2318.22	330
2320.15	354
2322.07	340
2324	366
2325.92	350
2327.84	354
2329.77	350
2331.69	354
2333.61	344
2335.53	350
2337.45	350
2339.37	350
2341.29	368
2343.21	370
2345.13	378
2347.05	352
2348.97	344
2350.88	362
2352.8	370
2354.71	362
2356.63	344
2358.54	354
2360.46	358
2362.37	350
2364.28	334
2366.2	360
2368.11	348
2370.02	350
2371.93	368
2373.84	330
2375.75	360
2377.66	360
2379.57	348
2381.47	348
2383.38	356
2385.29	366
2387.2	368
2389.1	360
2391.01	354
2392.91	362
2394.81	368
2396.72	342
2398.62	344
2400.52	344
2402.42	360
2404.33	366
2406.23	350
2408.13	346
2410.03	340
2411.92	360
2413.82	368
2415.72	364
2417.62	382
2419.51	362
2421.41	374
2423.31	354
2425.2	376
2427.1	364
2428.99	362
2430.88	360
2432.78	374
2434.67	376
2436.56	360
2438.45	372
2440.34	376
2442.23	372
2444.12	390
2446.01	374
2447.9	366
2449.79	384