File: Jesse_Dataset_v2/Pure Raman/Polystyrene/633nm/ps-ppo-7jan25-1,0000-map3_Y02_X09.txt
182.393	1146
184.993	1134
187.593	1052
190.193	1040
192.79	1062
195.387	1084
197.983	1048
200.578	1026
203.174	1036
205.766	1054
208.36	1062
210.951	1102
213.542	1178
216.131	1160
218.721	1220
221.309	1180
223.897	1188
226.483	1170
229.069	1106
231.654	1014
234.238	948
236.821	856
239.404	774
241.984	722
244.566	610
247.145	532
249.723	502
252.302	494
254.878	466
257.455	484
260.03	440
262.604	438
265.178	462
267.75	454
270.322	424
272.893	404
275.463	416
278.032	422
280.601	406
283.168	360
285.734	372
288.301	384
290.866	360
293.429	386
295.992	364
298.556	346
301.117	340
303.677	346
306.236	338
308.795	346
311.354	322
313.911	332
316.467	334
319.022	320
321.577	350
324.13	330
326.684	354
329.236	350
331.787	338
334.337	336
336.887	354
339.435	318
341.983	322
344.529	332
347.075	330
349.621	302
352.165	320
354.708	328
357.251	322
359.793	316
362.334	316
364.874	302
367.413	348
369.951	326
372.489	314
375.026	324
377.562	348
380.097	360
382.631	338
385.164	350
387.697	358
390.229	344
392.76	368
395.29	398
397.819	386
400.346	410
402.873	406
405.4	428
407.926	450
410.451	456
412.976	422
415.499	406
418.02	398
420.542	366
423.063	362
425.583	368
428.101	364
430.619	316
433.137	320
435.654	326
438.169	324
440.684	312
443.198	314
445.712	326
448.223	300
450.735	302
453.246	282
455.755	288
458.264	288
460.771	300
463.279	290
465.786	282
468.291	268
470.796	292
473.301	296
475.803	278
478.306	284
480.807	274
483.308	268
485.807	278
488.307	282
490.804	276
493.302	286
495.798	270
498.294	268
500.788	300
503.283	280
505.775	300
508.269	280
510.759	308
513.251	280
515.74	276
518.23	300
520.718	304
523.204	300
525.692	304
528.177	290
530.663	326
533.147	332
535.629	340
538.113	346
540.594	330
543.074	354
545.555	330
548.034	336
550.512	354
552.989	340
555.467	330
557.942	348
560.417	336
562.892	356
565.365	332
567.838	348
570.309	326
572.78	330
575.251	340
577.72	342
580.189	338
582.656	324
585.123	300
587.589	298
590.055	304
592.52	304
594.983	312
597.446	308
599.908	308
602.369	312
604.829	330
607.289	360
609.747	382
612.205	384
614.663	396
617.119	512
619.574	784
622.029	1176
624.483	1044
626.936	612
629.389	434
631.84	348
634.291	318
636.741	304
639.19	286
641.639	282
644.086	280
646.533	258
648.979	266
651.424	276
653.869	252
656.313	248
658.754	258
661.196	230
663.638	254
666.078	238
668.518	252
670.957	254
673.394	254
675.831	240
678.268	240
680.703	256
683.137	242
685.571	250
688.005	252
690.437	260
692.868	240
695.299	254
697.729	258
700.159	270
702.586	294
705.014	282
707.441	286
709.866	288
712.292	294
714.716	280
717.14	278
719.563	278
721.984	318
724.406	354
726.825	374
729.246	362
731.665	336
734.082	348
736.5	370
738.916	400
741.332	414
743.746	454
746.161	440
748.574	436
750.987	462
753.398	492
755.81	496
758.219	522
760.629	544
763.037	550
765.445	548
767.852	510
770.258	494
772.664	482
775.068	486
777.472	498
779.876	462
782.278	528
784.679	560
787.08	584
789.48	634
791.879	702
794.278	748
796.675	768
799.072	734
801.467	654
803.864	614
806.258	548
808.651	484
811.044	458
813.437	432
815.828	422
818.218	386
820.608	318
822.997	342
825.385	312
827.773	322
830.16	310
832.546	326
834.931	338
837.315	350
839.699	388
842.081	416
844.463	426
846.844	416
849.226	390
851.606	366
853.985	340
856.363	328
858.741	326
861.117	362
863.493	330
865.868	350
868.243	330
870.616	338
872.989	364
875.36	336
877.731	322
880.102	336
882.472	328
884.841	332
887.209	298
889.577	338
891.944	320
894.31	328
896.674	320
899.039	346
901.403	364
903.766	374
906.128	396
908.49	396
910.849	394
913.209	360
915.569	356
917.927	330
920.284	302
922.641	298
924.997	304
927.353	270
929.707	312
932.061	288
934.414	288
936.765	306
939.117	296
941.469	288
943.818	284
946.167	294
948.515	300
950.863	288
953.211	312
955.556	306
957.902	296
960.246	300
962.59	334
964.933	362
967.276	350
969.617	356
971.958	364
974.298	370
976.638	412
978.976	438
981.314	510
983.651	564
985.988	632
988.323	836
990.659	1200
992.992	1740
995.325	1866
997.658	2378
999.99	4228
1002.32	6602
1004.65	6074
1006.98	3472
1009.31	1570
1011.64	866
1013.97	612
1016.29	514
1018.62	486
1020.94	510
1023.27	666
1025.59	888
1027.91	1218
1030.24	1658
1032.56	2072
1034.88	1870
1037.2	1462
1039.52	1042
1041.84	748
1044.15	578
1046.47	530
1048.79	490
1051.1	444
1053.42	444
1055.73	450
1058.04	390
1060.36	440
1062.67	422
1064.98	414
1067.29	492
1069.6	486
1071.91	454
1074.22	472
1076.52	460
1078.83	436
1081.14	446
1083.44	454
1085.75	464
1088.05	448
1090.35	468
1092.65	458
1094.95	446
1097.26	444
1099.56	462
1101.86	458
1104.15	426
1106.45	424
1108.75	406
1111.05	398
1113.34	388
1115.64	352
1117.93	376
1120.22	330
1122.52	342
1124.81	326
1127.1	316
1129.39	304
1131.68	310
1133.97	300
1136.26	326
1138.54	316
1140.83	352
1143.12	364
1145.4	402
1147.69	448
1149.97	514
1152.25	694
1154.54	934
1156.82	1006
1159.1	904
1161.38	764
1163.66	614
1165.94	538
1168.22	536
1170.49	544
1172.77	566
1175.05	638
1177.32	796
1179.6	1026
1181.87	1186
1184.14	1230
1186.42	1138
1188.69	1110
1190.96	1130
1193.23	1164
1195.5	1202
1197.77	1264
1200.03	1242
1202.3	1154
1204.57	1074
1206.83	982
1209.1	870
1211.36	774
1213.63	666
1215.89	592
1218.15	528
1220.41	548
1222.67	526
1224.93	524
1227.19	476
1229.45	482
1231.71	462
1233.97	430
1236.22	426
1238.48	410
1240.73	422
1242.99	426
1245.24	414
1247.5	396
1249.75	386
1252	390
1254.25	372
1256.5	390
1258.75	404
1261	394
1263.25	400
1265.49	388
1267.74	390
1269.99	398
1272.23	398
1274.48	374
1276.72	398
1278.96	408
1281.21	384
1283.45	394
1285.69	404
1287.93	390
1290.17	416
1292.41	402
1294.64	426
1296.88	422
1299.12	428
1301.36	446
1303.59	448
1305.82	466
1308.06	458
1310.29	458
1312.52	480
1314.76	486
1316.99	492
1319.22	522
1321.45	540
1323.68	554
1325.9	574
1328.13	564
1330.36	550
1332.58	560
1334.81	560
1337.04	544
1339.26	512
1341.48	474
1343.71	452
1345.93	466
1348.15	408
1350.37	436
1352.59	408
1354.81	402
1357.03	408
1359.24	408
1361.46	436
1363.68	402
1365.89	418
1368.11	450
1370.32	392
1372.54	450
1374.75	432
1376.96	386
1379.17	414
1381.38	400
1383.59	352
1385.8	378
1388.01	334
1390.22	308
1392.43	306
1394.63	314
1396.84	316
1399.05	296
1401.25	348
1403.45	306
1405.66	316
1407.86	324
1410.06	316
1412.26	322
1414.46	298
1416.66	296
1418.86	316
1421.06	300
1423.26	318
1425.46	316
1427.65	312
1429.85	326
1432.04	324
1434.24	400
1436.43	384
1438.62	456
1440.82	490
1443.01	524
1445.2	578
1447.39	594
1449.58	646
1451.77	664
1453.95	652
1456.14	564
1458.33	476
1460.52	456
1462.7	358
1464.89	354
1467.07	346
1469.25	348
1471.44	338
1473.62	332
1475.8	316
1477.98	318
1480.16	310
1482.34	332
1484.52	302
1486.7	304
1488.87	328
1491.05	340
1493.23	340
1495.4	352
1497.58	326
1499.75	350
1501.92	302
1504.1	312
1506.27	312
1508.44	322
1510.61	312
1512.78	288
1514.95	320
1517.12	308
1519.28	312
1521.45	324
1523.62	308
1525.78	306
1527.95	346
1530.11	334
1532.28	318
1534.44	322
1536.6	324
1538.76	340
1540.93	316
1543.09	322
1545.25	322
1547.41	332
1549.56	330
1551.72	334
1553.88	340
1556.03	334
1558.19	356
1560.35	340
1562.5	356
1564.65	360
1566.81	360
1568.96	366
1571.11	402
1573.26	418
1575.41	454
1577.56	496
1579.71	638
1581.86	842
1584.01	1042
1586.15	964
1588.3	784
1590.45	652
1592.59	662
1594.74	724
1596.88	942
1599.02	1230
1601.17	1688
1603.31	1934
1605.45	1722
1607.59	1372
1609.73	978
1611.87	720
1614.01	582
1616.14	540
1618.28	470
1620.42	442
1622.55	436
1624.69	420
1626.82	374
1628.96	366
1631.09	378
1633.22	380
1635.36	366
1637.49	368
1639.62	350
1641.75	390
1643.88	396
1646	384
1648.13	370
1650.26	366
1652.39	362
1654.51	370
1656.64	350
1658.76	334
1660.89	338
1663.01	330
1665.13	330
1667.26	352
1669.38	316
1671.5	320
1673.62	336
1675.74	336
1677.86	334
1679.97	326
1682.09	338
1684.21	332
1686.33	326
1688.44	334
1690.56	330
1692.67	334
1694.78	328
1696.9	348
1699.01	342
1701.12	336
1703.23	340
1705.34	302
1707.45	318
1709.56	316
1711.67	300
1713.78	314
1715.88	330
1717.99	320
1720.1	322
1722.2	314
1724.31	302
1726.41	340
1728.51	328
1730.62	308
1732.72	308
1734.82	316
1736.92	324
1739.02	334
1741.12	314
1743.22	334
1745.32	300
1747.42	306
1749.51	302
1751.61	330
1753.7	316
1755.8	318
1757.89	336
1759.99	332
1762.08	316
1764.17	312
1766.26	316
1768.36	326
1770.45	326
1772.54	324
1774.62	306
1776.71	312
1778.8	334
1780.89	338
1782.98	314
1785.06	316
1787.15	320
1789.23	344
1791.32	330
1793.4	332
1795.48	316
1797.56	328
1799.65	318
1801.73	336
1803.81	332
1805.89	312
1807.97	330
1810.04	332
1812.12	340
1814.2	304
1816.28	350
1818.35	326
1820.43	350
1822.5	332
1824.58	330
1826.65	322
1828.72	334
1830.79	336
1832.86	328
1834.94	348
1837.01	334
1839.08	334
1841.15	328
1843.21	340
1845.28	340
1847.35	320
1849.41	336
1851.48	308
1853.55	322
1855.61	312
1857.67	338
1859.74	344
1861.8	322
1863.86	330
1865.92	344
1867.98	332
1870.05	340
1872.1	340
1874.16	328
1876.22	336
1878.28	334
1880.34	330
1882.39	338
1884.45	334
1886.5	322
1888.56	322
1890.61	344
1892.67	324
1894.72	332
1896.77	334
1898.82	342
1900.87	322
1902.92	340
1904.97	356
1907.02	342
1909.07	324
1911.12	342
1913.17	356
1915.21	344
1917.26	370
1919.3	356
1921.35	334
1923.39	338
1925.43	352
1927.48	336
1929.52	364
1931.56	322
1933.6	370
1935.64	340
1937.68	340
1939.72	342
1941.76	332
1943.8	332
1945.83	330
1947.87	346
1949.91	350
1951.94	346
1953.98	334
1956.01	348
1958.05	336
1960.08	348
1962.11	328
1964.14	330
1966.17	342
1968.2	338
1970.23	330
1972.26	358
1974.29	338
1976.32	338
1978.35	334
1980.37	338
1982.4	350
1984.43	346
1986.45	312
1988.48	346
1990.5	330
1992.52	336
1994.55	344
1996.57	352
1998.59	352
2000.61	358
2002.63	340
2004.65	354
2006.67	340
2008.69	354
2010.7	354
2012.72	350
2014.74	332
2016.75	332
2018.77	318
2020.78	372
2022.8	350
2024.81	356
2026.83	332
2028.84	348
2030.85	358
2032.86	344
2034.87	344
2036.88	336
2038.89	332
2040.9	346
2042.91	322
2044.91	338
2046.92	334
2048.93	364
2050.93	340
2052.94	346
2054.94	354
2056.95	354
2058.95	348
2060.95	352
2062.95	342
2064.96	354
2066.96	346
2068.96	370
2070.96	356
2072.96	364
2074.95	348
2076.95	322
2078.95	364
2080.95	354
2082.94	346
2084.94	348
2086.93	338
2088.93	348
2090.92	342
2092.91	328
2094.91	370
2096.9	332
2098.89	342
2100.88	338
2102.87	340
2104.86	348
2106.85	330
2108.84	350
2110.83	342
2112.81	358
2114.8	344
2116.78	344
2118.77	352
2120.75	356
2122.74	346
2124.72	356
2126.71	354
2128.69	366
2130.67	354
2132.65	362
2134.63	354
2136.61	354
2138.59	356
2140.57	370
2142.55	346
2144.53	358
2146.5	340
2148.48	346
2150.46	342
2152.43	340
2154.41	372
2156.38	344
2158.35	352
2160.33	334
2162.3	346
2164.27	342
2166.24	346
2168.21	346
2170.18	352
2172.15	340
2174.12	356
2176.09	352
2178.06	376
2180.03	360
2181.99	354
2183.96	368
2185.92	336
2187.89	342
2189.85	348
2191.82	350
2193.78	354
2195.74	362
2197.7	356
2199.67	366
2201.63	352
2203.59	354
2205.55	360
2207.51	370
2209.46	350
2211.42	356
2213.38	352
2215.34	338
2217.29	358
2219.25	344
2221.2	346
2223.16	334
2225.11	356
2227.06	334
2229.02	364
2230.97	342
2232.92	366
2234.87	360
2236.82	352
2238.77	362
2240.72	356
2242.67	360
2244.62	370
2246.57	352
2248.51	356
2250.46	354
2252.4	344
2254.35	352
2256.29	354
2258.24	342
2260.18	358
2262.13	362
2264.07	360
2266.01	358
2267.95	344
2269.89	342
2271.83	340
2273.77	364
2275.71	352
2277.65	342
2279.58	362
2281.52	346
2283.46	352
2285.4	352
2287.33	352
2289.27	360
2291.2	370
2293.13	362
2295.07	372
2297	342
2298.93	336
2300.86	362
2302.79	350
2304.72	360
2306.65	372
2308.58	346
2310.51	376
2312.44	370
2314.37	376
2316.29	366
2318.22	364
2320.15	358
2322.07	378
2324	364
2325.92	358
2327.84	366
2329.77	344
2331.69	372
2333.61	362
2335.53	350
2337.45	372
2339.37	364
2341.29	376
2343.21	350
2345.13	358
2347.05	364
2348.97	366
2350.88	360
2352.8	350
2354.71	348
2356.63	368
2358.54	360
2360.46	396
2362.37	366
2364.28	376
2366.2	356
2368.11	348
2370.02	366
2371.93	364
2373.84	336
2375.75	372
2377.66	342
2379.57	348
2381.47	366
2383.38	372
2385.29	362
2387.2	346
2389.1	354
2391.01	360
2392.91	362
2394.81	344
2396.72	354
2398.62	350
2400.52	346
2402.42	360
2404.33	364
2406.23	368
2408.13	350
2410.03	360
2411.92	374
2413.82	368
2415.72	356
2417.62	326
2419.51	358
2421.41	376
2423.31	366
2425.2	366
2427.1	374
2428.99	378
2430.88	358
2432.78	380
2434.67	358
2436.56	360
2438.45	346
2440.34	384
2442.23	368
2444.12	342
2446.01	382
2447.9	366
2449.79	378