File: Jesse_Dataset_v2/Pure Raman/Polystyrene/633nm/ps-ppo-7jan25-1,0000-map3_Y04_X07.txt
182.393	1024
184.993	1010
187.593	978
190.193	954
192.79	954
195.387	910
197.983	940
200.578	946
203.174	946
205.766	952
208.36	962
210.951	1038
213.542	1032
216.131	1064
218.721	1094
221.309	1114
223.897	1070
226.483	1012
229.069	1028
231.654	902
234.238	854
236.821	768
239.404	684
241.984	602
244.566	524
247.145	478
249.723	414
252.302	406
254.878	406
257.455	372
260.03	370
262.604	346
265.178	342
267.75	330
270.322	336
272.893	332
275.463	344
278.032	340
280.601	298
283.168	290
285.734	306
288.301	260
290.866	266
293.429	248
295.992	244
298.556	236
301.117	242
303.677	238
306.236	244
308.795	238
311.354	224
313.911	232
316.467	236
319.022	240
321.577	232
324.13	234
326.684	238
329.236	246
331.787	236
334.337	240
336.887	248
339.435	244
341.983	244
344.529	240
347.075	236
349.621	224
352.165	210
354.708	240
357.251	226
359.793	236
362.334	216
364.874	224
367.413	236
369.951	224
372.489	222
375.026	238
377.562	242
380.097	254
382.631	258
385.164	280
387.697	278
390.229	262
392.76	300
395.29	280
397.819	280
400.346	298
402.873	324
405.4	352
407.926	344
410.451	360
412.976	350
415.499	300
418.02	298
420.542	276
423.063	272
425.583	268
428.101	258
430.619	244
433.137	244
435.654	216
438.169	230
440.684	232
443.198	234
445.712	236
448.223	224
450.735	224
453.246	212
455.755	202
458.264	184
460.771	198
463.279	188
465.786	180
468.291	200
470.796	192
473.301	196
475.803	180
478.306	188
480.807	184
483.308	196
485.807	198
488.307	186
490.804	178
493.302	184
495.798	164
498.294	186
500.788	184
503.283	216
505.775	198
508.269	212
510.759	216
513.251	208
515.74	208
518.23	202
520.718	222
523.204	198
525.692	214
528.177	234
530.663	232
533.147	254
535.629	258
538.113	266
540.594	260
543.074	266
545.555	286
548.034	280
550.512	290
552.989	260
555.467	246
557.942	272
560.417	256
562.892	262
565.365	278
567.838	268
570.309	274
572.78	268
575.251	266
577.72	264
580.189	244
582.656	242
585.123	242
587.589	228
590.055	244
592.52	228
594.983	246
597.446	220
599.908	246
602.369	230
604.829	244
607.289	280
609.747	292
612.205	296
614.663	330
617.119	454
619.574	694
622.029	1134
624.483	1018
626.936	536
629.389	360
631.84	290
634.291	260
636.741	234
639.19	232
641.639	222
644.086	188
646.533	192
648.979	190
651.424	190
653.869	186
656.313	182
658.754	192
661.196	184
663.638	184
666.078	182
668.518	196
670.957	200
673.394	178
675.831	196
678.268	182
680.703	194
683.137	202
685.571	204
688.005	192
690.437	202
692.868	190
695.299	210
697.729	198
700.159	228
702.586	214
705.014	246
707.441	250
709.866	234
712.292	232
714.716	248
717.14	240
719.563	254
721.984	278
724.406	324
726.825	320
729.246	304
731.665	284
734.082	294
736.5	316
738.916	358
741.332	386
743.746	394
746.161	404
748.574	418
750.987	426
753.398	462
755.81	478
758.219	480
760.629	514
763.037	508
765.445	496
767.852	480
770.258	462
772.664	452
775.068	434
777.472	436
779.876	452
782.278	478
784.679	522
787.08	556
789.48	622
791.879	668
794.278	732
796.675	732
799.072	728
801.467	646
803.864	578
806.258	466
808.651	444
811.044	408
813.437	404
815.828	366
818.218	360
820.608	314
822.997	314
825.385	280
827.773	290
830.16	288
832.546	314
834.931	338
837.315	334
839.699	368
842.081	410
844.463	380
846.844	400
849.226	352
851.606	334
853.985	322
856.363	332
858.741	308
861.117	310
863.493	302
865.868	318
868.243	312
870.616	338
872.989	324
875.36	326
877.731	326
880.102	308
882.472	334
884.841	296
887.209	286
889.577	298
891.944	298
894.31	294
896.674	306
899.039	314
901.403	322
903.766	352
906.128	398
908.49	396
910.849	374
913.209	326
915.569	330
917.927	296
920.284	278
922.641	276
924.997	280
927.353	274
929.707	272
932.061	280
934.414	286
936.765	282
939.117	286
941.469	278
943.818	280
946.167	288
948.515	268
950.863	286
953.211	288
955.556	292
957.902	306
960.246	294
962.59	330
964.933	360
967.276	366
969.617	350
971.958	350
974.298	354
976.638	384
978.976	424
981.314	480
983.651	534
985.988	656
988.323	778
990.659	1228
992.992	1772
995.325	1962
997.658	2376
999.99	4202
1002.32	6630
1004.65	6046
1006.98	3412
1009.31	1566
1011.64	840
1013.97	612
1016.29	490
1018.62	472
1020.94	528
1023.27	612
1025.59	846
1027.91	1206
1030.24	1658
1032.56	1978
1034.88	1888
1037.2	1470
1039.52	992
1041.84	708
1044.15	596
1046.47	478
1048.79	472
1051.1	444
1053.42	418
1055.73	400
1058.04	410
1060.36	424
1062.67	428
1064.98	438
1067.29	460
1069.6	446
1071.91	430
1074.22	440
1076.52	432
1078.83	454
1081.14	442
1083.44	428
1085.75	424
1088.05	434
1090.35	436
1092.65	418
1094.95	416
1097.26	438
1099.56	430
1101.86	440
1104.15	416
1106.45	424
1108.75	386
1111.05	340
1113.34	368
1115.64	340
1117.93	322
1120.22	324
1122.52	310
1124.81	308
1127.1	282
1129.39	284
1131.68	282
1133.97	298
1136.26	296
1138.54	292
1140.83	328
1143.12	350
1145.4	364
1147.69	398
1149.97	494
1152.25	666
1154.54	868
1156.82	940
1159.1	904
1161.38	684
1163.66	578
1165.94	528
1168.22	478
1170.49	528
1172.77	570
1175.05	626
1177.32	768
1179.6	968
1181.87	1186
1184.14	1214
1186.42	1130
1188.69	1044
1190.96	1058
1193.23	1136
1195.5	1204
1197.77	1192
1200.03	1238
1202.3	1166
1204.57	1108
1206.83	968
1209.1	856
1211.36	714
1213.63	642
1215.89	566
1218.15	506
1220.41	486
1222.67	454
1224.93	468
1227.19	464
1229.45	438
1231.71	414
1233.97	400
1236.22	378
1238.48	368
1240.73	370
1242.99	388
1245.24	368
1247.5	372
1249.75	366
1252	364
1254.25	332
1256.5	370
1258.75	340
1261	372
1263.25	362
1265.49	342
1267.74	342
1269.99	358
1272.23	338
1274.48	336
1276.72	354
1278.96	346
1281.21	346
1283.45	346
1285.69	338
1287.93	370
1290.17	376
1292.41	372
1294.64	380
1296.88	390
1299.12	408
1301.36	406
1303.59	412
1305.82	400
1308.06	428
1310.29	432
1312.52	442
1314.76	438
1316.99	464
1319.22	488
1321.45	464
1323.68	522
1325.9	530
1328.13	538
1330.36	530
1332.58	518
1334.81	494
1337.04	486
1339.26	462
1341.48	468
1343.71	430
1345.93	384
1348.15	386
1350.37	374
1352.59	358
1354.81	358
1357.03	366
1359.24	368
1361.46	360
1363.68	364
1365.89	376
1368.11	380
1370.32	394
1372.54	366
1374.75	384
1376.96	372
1379.17	362
1381.38	348
1383.59	308
1385.8	304
1388.01	282
1390.22	264
1392.43	268
1394.63	260
1396.84	286
1399.05	272
1401.25	288
1403.45	282
1405.66	276
1407.86	258
1410.06	260
1412.26	262
1414.46	264
1416.66	258
1418.86	260
1421.06	252
1423.26	266
1425.46	268
1427.65	254
1429.85	282
1432.04	294
1434.24	320
1436.43	350
1438.62	412
1440.82	410
1443.01	502
1445.2	540
1447.39	570
1449.58	618
1451.77	606
1453.95	594
1456.14	522
1458.33	456
1460.52	390
1462.7	346
1464.89	300
1467.07	298
1469.25	280
1471.44	280
1473.62	286
1475.8	268
1477.98	284
1480.16	258
1482.34	278
1484.52	288
1486.7	266
1488.87	278
1491.05	278
1493.23	308
1495.4	292
1497.58	288
1499.75	286
1501.92	262
1504.1	270
1506.27	264
1508.44	270
1510.61	268
1512.78	274
1514.95	270
1517.12	274
1519.28	254
1521.45	276
1523.62	268
1525.78	268
1527.95	256
1530.11	268
1532.28	264
1534.44	274
1536.6	260
1538.76	246
1540.93	276
1543.09	270
1545.25	276
1547.41	262
1549.56	292
1551.72	276
1553.88	288
1556.03	290
1558.19	252
1560.35	286
1562.5	292
1564.65	298
1566.81	316
1568.96	326
1571.11	336
1573.26	374
1575.41	392
1577.56	468
1579.71	606
1581.86	776
1584.01	986
1586.15	918
1588.3	718
1590.45	582
1592.59	624
1594.74	682
1596.88	864
1599.02	1214
1601.17	1654
1603.31	1872
1605.45	1704
1607.59	1268
1609.73	916
1611.87	658
1614.01	536
1616.14	474
1618.28	414
1620.42	408
1622.55	358
1624.69	362
1626.82	324
1628.96	340
1631.09	310
1633.22	320
1635.36	328
1637.49	310
1639.62	306
1641.75	322
1643.88	342
1646	338
1648.13	332
1650.26	332
1652.39	332
1654.51	302
1656.64	296
1658.76	282
1660.89	274
1663.01	282
1665.13	288
1667.26	272
1669.38	286
1671.5	294
1673.62	280
1675.74	294
1677.86	286
1679.97	276
1682.09	292
1684.21	270
1686.33	300
1688.44	284
1690.56	306
1692.67	280
1694.78	274
1696.9	266
1699.01	282
1701.12	286
1703.23	280
1705.34	280
1707.45	280
1709.56	278
1711.67	280
1713.78	284
1715.88	276
1717.99	262
1720.1	280
1722.2	290
1724.31	274
1726.41	266
1728.51	286
1730.62	286
1732.72	278
1734.82	286
1736.92	292
1739.02	274
1741.12	270
1743.22	284
1745.32	276
1747.42	278
1749.51	284
1751.61	286
1753.7	270
1755.8	284
1757.89	272
1759.99	294
1762.08	272
1764.17	258
1766.26	274
1768.36	266
1770.45	274
1772.54	292
1774.62	292
1776.71	272
1778.8	278
1780.89	284
1782.98	278
1785.06	292
1787.15	272
1789.23	274
1791.32	256
1793.4	284
1795.48	286
1797.56	280
1799.65	292
1801.73	288
1803.81	284
1805.89	290
1807.97	302
1810.04	274
1812.12	300
1814.2	294
1816.28	296
1818.35	300
1820.43	272
1822.5	292
1824.58	290
1826.65	324
1828.72	290
1830.79	298
1832.86	298
1834.94	284
1837.01	308
1839.08	286
1841.15	282
1843.21	270
1845.28	304
1847.35	258
1849.41	288
1851.48	276
1853.55	294
1855.61	290
1857.67	302
1859.74	282
1861.8	292
1863.86	288
1865.92	316
1867.98	288
1870.05	282
1872.1	298
1874.16	296
1876.22	290
1878.28	292
1880.34	284
1882.39	302
1884.45	292
1886.5	294
1888.56	306
1890.61	296
1892.67	284
1894.72	288
1896.77	302
1898.82	308
1900.87	306
1902.92	300
1904.97	304
1907.02	304
1909.07	308
1911.12	328
1913.17	314
1915.21	310
1917.26	290
1919.3	296
1921.35	292
1923.39	326
1925.43	306
1927.48	314
1929.52	320
1931.56	300
1933.6	310
1935.64	310
1937.68	308
1939.72	296
1941.76	292
1943.8	312
1945.83	308
1947.87	324
1949.91	306
1951.94	312
1953.98	316
1956.01	314
1958.05	298
1960.08	308
1962.11	324
1964.14	310
1966.17	304
1968.2	308
1970.23	300
1972.26	306
1974.29	322
1976.32	310
1978.35	308
1980.37	304
1982.4	302
1984.43	310
1986.45	304
1988.48	312
1990.5	310
1992.52	304
1994.55	300
1996.57	304
1998.59	320
2000.61	326
2002.63	284
2004.65	316
2006.67	314
2008.69	308
2010.7	308
2012.72	308
2014.74	318
2016.75	324
2018.77	310
2020.78	314
2022.8	308
2024.81	292
2026.83	304
2028.84	316
2030.85	334
2032.86	322
2034.87	328
2036.88	330
2038.89	320
2040.9	318
2042.91	312
2044.91	318
2046.92	338
2048.93	316
2050.93	308
2052.94	312
2054.94	320
2056.95	324
2058.95	332
2060.95	314
2062.95	310
2064.96	326
2066.96	318
2068.96	318
2070.96	324
2072.96	338
2074.95	308
2076.95	332
2078.95	332
2080.95	328
2082.94	308
2084.94	320
2086.93	318
2088.93	322
2090.92	318
2092.91	330
2094.91	330
2096.9	320
2098.89	308
2100.88	326
2102.87	318
2104.86	330
2106.85	322
2108.84	352
2110.83	326
2112.81	310
2114.8	334
2116.78	328
2118.77	330
2120.75	304
2122.74	332
2124.72	324
2126.71	326
2128.69	326
2130.67	344
2132.65	336
2134.63	346
2136.61	350
2138.59	322
2140.57	326
2142.55	332
2144.53	342
2146.5	318
2148.48	330
2150.46	336
2152.43	334
2154.41	320
2156.38	334
2158.35	326
2160.33	306
2162.3	332
2164.27	326
2166.24	318
2168.21	334
2170.18	332
2172.15	326
2174.12	326
2176.09	324
2178.06	346
2180.03	342
2181.99	320
2183.96	350
2185.92	332
2187.89	330
2189.85	336
2191.82	326
2193.78	336
2195.74	302
2197.7	338
2199.67	340
2201.63	344
2203.59	340
2205.55	338
2207.51	342
2209.46	346
2211.42	316
2213.38	320
2215.34	332
2217.29	330
2219.25	344
2221.2	336
2223.16	334
2225.11	336
2227.06	324
2229.02	332
2230.97	320
2232.92	344
2234.87	332
2236.82	352
2238.77	330
2240.72	334
2242.67	354
2244.62	332
2246.57	336
2248.51	334
2250.46	350
2252.4	340
2254.35	344
2256.29	330
2258.24	352
2260.18	334
2262.13	318
2264.07	326
2266.01	344
2267.95	348
2269.89	340
2271.83	328
2273.77	322
2275.71	346
2277.65	354
2279.58	352
2281.52	346
2283.46	358
2285.4	342
2287.33	342
2289.27	358
2291.2	320
2293.13	338
2295.07	334
2297	350
2298.93	350
2300.86	326
2302.79	350
2304.72	322
2306.65	346
2308.58	348
2310.51	344
2312.44	338
2314.37	366
2316.29	354
2318.22	352
2320.15	350
2322.07	356
2324	340
2325.92	338
2327.84	354
2329.77	356
2331.69	352
2333.61	348
2335.53	350
2337.45	354
2339.37	342
2341.29	344
2343.21	354
2345.13	354
2347.05	344
2348.97	344
2350.88	350
2352.8	326
2354.71	352
2356.63	354
2358.54	356
2360.46	346
2362.37	336
2364.28	368
2366.2	342
2368.11	350
2370.02	358
2371.93	352
2373.84	340
2375.75	364
2377.66	368
2379.57	350
2381.47	352
2383.38	338
2385.29	328
2387.2	348
2389.1	330
2391.01	352
2392.91	366
2394.81	348
2396.72	350
2398.62	358
2400.52	360
2402.42	356
2404.33	358
2406.23	354
2408.13	348
2410.03	336
2411.92	342
2413.82	364
2415.72	352
2417.62	346
2419.51	338
2421.41	360
2423.31	356
2425.2	360
2427.1	344
2428.99	356
2430.88	358
2432.78	376
2434.67	358
2436.56	364
2438.45	358
2440.34	336
2442.23	362
2444.12	372
2446.01	376
2447.9	364
2449.79	370