File: Jesse_Dataset_v2/Pure Raman/Polystyrene/633nm/ps-ppo-7jan25-1,0000-map3_Y04_X08.txt
182.393	1034
184.993	958
187.593	948
190.193	894
192.79	900
195.387	916
197.983	916
200.578	900
203.174	920
205.766	962
208.36	940
210.951	968
213.542	1004
216.131	1024
218.721	1056
221.309	1044
223.897	1000
226.483	1028
229.069	948
231.654	914
234.238	840
236.821	728
239.404	664
241.984	570
244.566	510
247.145	452
249.723	392
252.302	396
254.878	350
257.455	348
260.03	306
262.604	324
265.178	312
267.75	306
270.322	302
272.893	324
275.463	294
278.032	286
280.601	272
283.168	278
285.734	258
288.301	244
290.866	232
293.429	242
295.992	222
298.556	214
301.117	208
303.677	222
306.236	202
308.795	206
311.354	216
313.911	218
316.467	232
319.022	212
321.577	230
324.13	206
326.684	218
329.236	220
331.787	206
334.337	210
336.887	224
339.435	208
341.983	216
344.529	216
347.075	198
349.621	210
352.165	194
354.708	202
357.251	198
359.793	178
362.334	192
364.874	184
367.413	198
369.951	202
372.489	206
375.026	214
377.562	200
380.097	200
382.631	232
385.164	232
387.697	236
390.229	250
392.76	270
395.29	258
397.819	268
400.346	274
402.873	286
405.4	310
407.926	332
410.451	312
412.976	300
415.499	276
418.02	254
420.542	254
423.063	238
425.583	226
428.101	226
430.619	222
433.137	206
435.654	206
438.169	206
440.684	194
443.198	210
445.712	200
448.223	184
450.735	182
453.246	172
455.755	172
458.264	172
460.771	166
463.279	152
465.786	170
468.291	158
470.796	166
473.301	154
475.803	164
478.306	160
480.807	150
483.308	154
485.807	158
488.307	148
490.804	164
493.302	164
495.798	164
498.294	170
500.788	168
503.283	164
505.775	176
508.269	168
510.759	170
513.251	168
515.74	170
518.23	178
520.718	174
523.204	186
525.692	180
528.177	194
530.663	202
533.147	214
535.629	230
538.113	224
540.594	238
543.074	234
545.555	246
548.034	248
550.512	230
552.989	232
555.467	224
557.942	210
560.417	230
562.892	218
565.365	222
567.838	242
570.309	238
572.78	232
575.251	236
577.72	226
580.189	200
582.656	210
585.123	208
587.589	198
590.055	190
592.52	184
594.983	192
597.446	204
599.908	214
602.369	206
604.829	234
607.289	240
609.747	262
612.205	258
614.663	298
617.119	406
619.574	676
622.029	1042
624.483	954
626.936	508
629.389	304
631.84	256
634.291	222
636.741	194
639.19	192
641.639	168
644.086	170
646.533	156
648.979	148
651.424	152
653.869	150
656.313	150
658.754	152
661.196	152
663.638	156
666.078	148
668.518	142
670.957	150
673.394	146
675.831	152
678.268	142
680.703	154
683.137	142
685.571	158
688.005	140
690.437	154
692.868	150
695.299	152
697.729	166
700.159	170
702.586	190
705.014	208
707.441	196
709.866	196
712.292	192
714.716	182
717.14	198
719.563	200
721.984	234
724.406	254
726.825	286
729.246	262
731.665	248
734.082	256
736.5	276
738.916	302
741.332	330
743.746	354
746.161	356
748.574	366
750.987	376
753.398	396
755.81	428
758.219	448
760.629	442
763.037	440
765.445	452
767.852	422
770.258	424
772.664	408
775.068	402
777.472	410
779.876	402
782.278	434
784.679	472
787.08	520
789.48	580
791.879	600
794.278	674
796.675	676
799.072	650
801.467	588
803.864	522
806.258	434
808.651	394
811.044	378
813.437	342
815.828	322
818.218	278
820.608	258
822.997	248
825.385	236
827.773	234
830.16	256
832.546	250
834.931	272
837.315	292
839.699	316
842.081	336
844.463	356
846.844	332
849.226	334
851.606	298
853.985	270
856.363	276
858.741	266
861.117	260
863.493	272
865.868	276
868.243	262
870.616	276
872.989	262
875.36	272
877.731	286
880.102	254
882.472	274
884.841	248
887.209	252
889.577	264
891.944	258
894.31	264
896.674	274
899.039	280
901.403	294
903.766	312
906.128	314
908.49	346
910.849	318
913.209	290
915.569	292
917.927	272
920.284	252
922.641	252
924.997	236
927.353	222
929.707	228
932.061	232
934.414	218
936.765	232
939.117	230
941.469	234
943.818	226
946.167	226
948.515	236
950.863	246
953.211	234
955.556	262
957.902	256
960.246	256
962.59	278
964.933	292
967.276	296
969.617	300
971.958	302
974.298	318
976.638	338
978.976	380
981.314	416
983.651	480
985.988	594
988.323	720
990.659	1144
992.992	1718
995.325	1838
997.658	2368
999.99	4172
1002.32	6490
1004.65	6146
1006.98	3382
1009.31	1528
1011.64	820
1013.97	568
1016.29	466
1018.62	452
1020.94	496
1023.27	624
1025.59	822
1027.91	1154
1030.24	1608
1032.56	1928
1034.88	1826
1037.2	1398
1039.52	946
1041.84	708
1044.15	536
1046.47	430
1048.79	426
1051.1	374
1053.42	374
1055.73	390
1058.04	380
1060.36	366
1062.67	380
1064.98	396
1067.29	404
1069.6	416
1071.91	400
1074.22	408
1076.52	408
1078.83	404
1081.14	396
1083.44	410
1085.75	390
1088.05	402
1090.35	386
1092.65	408
1094.95	398
1097.26	410
1099.56	402
1101.86	404
1104.15	380
1106.45	368
1108.75	318
1111.05	334
1113.34	306
1115.64	322
1117.93	294
1120.22	288
1122.52	252
1124.81	274
1127.1	256
1129.39	246
1131.68	260
1133.97	272
1136.26	252
1138.54	282
1140.83	294
1143.12	308
1145.4	362
1147.69	366
1149.97	496
1152.25	638
1154.54	854
1156.82	980
1159.1	856
1161.38	678
1163.66	552
1165.94	504
1168.22	474
1170.49	512
1172.77	540
1175.05	602
1177.32	710
1179.6	940
1181.87	1162
1184.14	1196
1186.42	1138
1188.69	1034
1190.96	1032
1193.23	1114
1195.5	1174
1197.77	1172
1200.03	1186
1202.3	1118
1204.57	1048
1206.83	940
1209.1	816
1211.36	690
1213.63	606
1215.89	530
1218.15	490
1220.41	466
1222.67	444
1224.93	432
1227.19	422
1229.45	400
1231.71	400
1233.97	378
1236.22	354
1238.48	334
1240.73	360
1242.99	336
1245.24	356
1247.5	334
1249.75	334
1252	342
1254.25	320
1256.5	342
1258.75	338
1261	332
1263.25	322
1265.49	340
1267.74	332
1269.99	346
1272.23	336
1274.48	322
1276.72	338
1278.96	324
1281.21	326
1283.45	338
1285.69	318
1287.93	348
1290.17	352
1292.41	358
1294.64	370
1296.88	382
1299.12	364
1301.36	382
1303.59	392
1305.82	394
1308.06	408
1310.29	412
1312.52	406
1314.76	430
1316.99	444
1319.22	474
1321.45	498
1323.68	504
1325.9	518
1328.13	516
1330.36	484
1332.58	504
1334.81	502
1337.04	478
1339.26	454
1341.48	418
1343.71	390
1345.93	380
1348.15	360
1350.37	364
1352.59	388
1354.81	340
1357.03	368
1359.24	358
1361.46	366
1363.68	350
1365.89	366
1368.11	346
1370.32	348
1372.54	372
1374.75	380
1376.96	358
1379.17	338
1381.38	342
1383.59	314
1385.8	304
1388.01	272
1390.22	266
1392.43	274
1394.63	266
1396.84	266
1399.05	268
1401.25	270
1403.45	266
1405.66	264
1407.86	268
1410.06	266
1412.26	262
1414.46	256
1416.66	264
1418.86	254
1421.06	242
1423.26	256
1425.46	252
1427.65	272
1429.85	256
1432.04	280
1434.24	328
1436.43	350
1438.62	400
1440.82	436
1443.01	482
1445.2	514
1447.39	584
1449.58	574
1451.77	578
1453.95	578
1456.14	504
1458.33	434
1460.52	352
1462.7	336
1464.89	304
1467.07	284
1469.25	272
1471.44	280
1473.62	256
1475.8	272
1477.98	280
1480.16	276
1482.34	268
1484.52	254
1486.7	258
1488.87	252
1491.05	274
1493.23	292
1495.4	296
1497.58	298
1499.75	262
1501.92	264
1504.1	250
1506.27	268
1508.44	258
1510.61	282
1512.78	256
1514.95	264
1517.12	252
1519.28	248
1521.45	262
1523.62	274
1525.78	270
1527.95	262
1530.11	258
1532.28	262
1534.44	272
1536.6	260
1538.76	280
1540.93	272
1543.09	278
1545.25	278
1547.41	264
1549.56	282
1551.72	264
1553.88	270
1556.03	282
1558.19	276
1560.35	284
1562.5	290
1564.65	312
1566.81	310
1568.96	316
1571.11	338
1573.26	370
1575.41	400
1577.56	484
1579.71	568
1581.86	800
1584.01	956
1586.15	912
1588.3	690
1590.45	590
1592.59	618
1594.74	698
1596.88	884
1599.02	1228
1601.17	1628
1603.31	1900
1605.45	1686
1607.59	1258
1609.73	902
1611.87	692
1614.01	530
1616.14	470
1618.28	432
1620.42	392
1622.55	390
1624.69	362
1626.82	336
1628.96	336
1631.09	326
1633.22	322
1635.36	338
1637.49	308
1639.62	316
1641.75	330
1643.88	328
1646	346
1648.13	342
1650.26	338
1652.39	322
1654.51	308
1656.64	316
1658.76	312
1660.89	294
1663.01	302
1665.13	294
1667.26	296
1669.38	300
1671.5	290
1673.62	286
1675.74	276
1677.86	300
1679.97	298
1682.09	280
1684.21	288
1686.33	286
1688.44	302
1690.56	292
1692.67	292
1694.78	294
1696.9	284
1699.01	288
1701.12	280
1703.23	302
1705.34	282
1707.45	272
1709.56	288
1711.67	286
1713.78	280
1715.88	288
1717.99	276
1720.1	284
1722.2	274
1724.31	288
1726.41	292
1728.51	270
1730.62	288
1732.72	284
1734.82	290
1736.92	272
1739.02	298
1741.12	274
1743.22	280
1745.32	286
1747.42	260
1749.51	286
1751.61	294
1753.7	292
1755.8	286
1757.89	292
1759.99	290
1762.08	270
1764.17	290
1766.26	284
1768.36	288
1770.45	294
1772.54	282
1774.62	294
1776.71	288
1778.8	286
1780.89	282
1782.98	300
1785.06	292
1787.15	268
1789.23	294
1791.32	288
1793.4	294
1795.48	302
1797.56	296
1799.65	294
1801.73	304
1803.81	288
1805.89	290
1807.97	308
1810.04	292
1812.12	304
1814.2	316
1816.28	296
1818.35	292
1820.43	314
1822.5	288
1824.58	284
1826.65	288
1828.72	300
1830.79	300
1832.86	304
1834.94	304
1837.01	296
1839.08	302
1841.15	304
1843.21	304
1845.28	294
1847.35	310
1849.41	294
1851.48	272
1853.55	302
1855.61	300
1857.67	306
1859.74	312
1861.8	310
1863.86	298
1865.92	288
1867.98	302
1870.05	294
1872.1	290
1874.16	302
1876.22	292
1878.28	304
1880.34	298
1882.39	322
1884.45	298
1886.5	294
1888.56	314
1890.61	304
1892.67	302
1894.72	304
1896.77	292
1898.82	312
1900.87	312
1902.92	302
1904.97	320
1907.02	316
1909.07	320
1911.12	312
1913.17	318
1915.21	290
1917.26	310
1919.3	332
1921.35	312
1923.39	326
1925.43	310
1927.48	326
1929.52	318
1931.56	304
1933.6	338
1935.64	322
1937.68	318
1939.72	316
1941.76	310
1943.8	316
1945.83	310
1947.87	304
1949.91	310
1951.94	308
1953.98	304
1956.01	316
1958.05	320
1960.08	324
1962.11	316
1964.14	308
1966.17	318
1968.2	310
1970.23	322
1972.26	312
1974.29	312
1976.32	296
1978.35	316
1980.37	320
1982.4	322
1984.43	314
1986.45	322
1988.48	322
1990.5	304
1992.52	306
1994.55	318
1996.57	306
1998.59	304
2000.61	308
2002.63	324
2004.65	314
2006.67	320
2008.69	316
2010.7	320
2012.72	304
2014.74	328
2016.75	314
2018.77	314
2020.78	310
2022.8	314
2024.81	334
2026.83	340
2028.84	320
2030.85	308
2032.86	324
2034.87	336
2036.88	308
2038.89	308
2040.9	320
2042.91	336
2044.91	322
2046.92	330
2048.93	334
2050.93	316
2052.94	320
2054.94	314
2056.95	332
2058.95	314
2060.95	324
2062.95	324
2064.96	334
2066.96	314
2068.96	320
2070.96	328
2072.96	320
2074.95	324
2076.95	326
2078.95	316
2080.95	318
2082.94	328
2084.94	334
2086.93	316
2088.93	332
2090.92	340
2092.91	320
2094.91	326
2096.9	330
2098.89	328
2100.88	306
2102.87	320
2104.86	334
2106.85	328
2108.84	338
2110.83	324
2112.81	330
2114.8	330
2116.78	334
2118.77	326
2120.75	334
2122.74	340
2124.72	348
2126.71	334
2128.69	334
2130.67	318
2132.65	318
2134.63	336
2136.61	314
2138.59	334
2140.57	336
2142.55	348
2144.53	324
2146.5	348
2148.48	350
2150.46	322
2152.43	344
2154.41	322
2156.38	318
2158.35	314
2160.33	332
2162.3	340
2164.27	342
2166.24	328
2168.21	332
2170.18	322
2172.15	344
2174.12	354
2176.09	334
2178.06	322
2180.03	340
2181.99	342
2183.96	312
2185.92	322
2187.89	344
2189.85	348
2191.82	334
2193.78	336
2195.74	328
2197.7	314
2199.67	348
2201.63	352
2203.59	338
2205.55	342
2207.51	320
2209.46	336
2211.42	332
2213.38	338
2215.34	334
2217.29	334
2219.25	328
2221.2	352
2223.16	334
2225.11	328
2227.06	334
2229.02	346
2230.97	334
2232.92	328
2234.87	336
2236.82	320
2238.77	338
2240.72	332
2242.67	340
2244.62	324
2246.57	328
2248.51	336
2250.46	334
2252.4	334
2254.35	312
2256.29	330
2258.24	328
2260.18	330
2262.13	332
2264.07	332
2266.01	318
2267.95	342
2269.89	340
2271.83	332
2273.77	338
2275.71	322
2277.65	342
2279.58	344
2281.52	340
2283.46	338
2285.4	344
2287.33	344
2289.27	332
2291.2	336
2293.13	360
2295.07	318
2297	322
2298.93	346
2300.86	346
2302.79	326
2304.72	332
2306.65	350
2308.58	342
2310.51	350
2312.44	342
2314.37	354
2316.29	366
2318.22	344
2320.15	344
2322.07	352
2324	340
2325.92	340
2327.84	360
2329.77	334
2331.69	324
2333.61	360
2335.53	342
2337.45	338
2339.37	340
2341.29	320
2343.21	362
2345.13	362
2347.05	332
2348.97	338
2350.88	322
2352.8	360
2354.71	348
2356.63	358
2358.54	348
2360.46	338
2362.37	356
2364.28	354
2366.2	354
2368.11	338
2370.02	354
2371.93	352
2373.84	344
2375.75	348
2377.66	358
2379.57	334
2381.47	334
2383.38	356
2385.29	336
2387.2	360
2389.1	330
2391.01	342
2392.91	344
2394.81	352
2396.72	350
2398.62	338
2400.52	358
2402.42	352
2404.33	344
2406.23	356
2408.13	370
2410.03	360
2411.92	342
2413.82	360
2415.72	352
2417.62	354
2419.51	352
2421.41	336
2423.31	368
2425.2	342
2427.1	348
2428.99	360
2430.88	348
2432.78	352
2434.67	358
2436.56	366
2438.45	366
2440.34	374
2442.23	364
2444.12	358
2446.01	364
2447.9	364
2449.79	360