File: Jesse_Dataset_v2/Pure Raman/Polystyrene/633nm/ps-ppo-7jan25-1,0000-map3_Y01_X02.txt
182.393	1154
184.993	1104
187.593	1122
190.193	1100
192.79	1056
195.387	1064
197.983	1050
200.578	1076
203.174	1042
205.766	1080
208.36	1110
210.951	1100
213.542	1136
216.131	1156
218.721	1236
221.309	1208
223.897	1192
226.483	1154
229.069	1098
231.654	1040
234.238	956
236.821	886
239.404	800
241.984	718
244.566	636
247.145	568
249.723	546
252.302	526
254.878	480
257.455	462
260.03	476
262.604	452
265.178	454
267.75	432
270.322	420
272.893	442
275.463	430
278.032	424
280.601	402
283.168	422
285.734	380
288.301	398
290.866	376
293.429	356
295.992	346
298.556	348
301.117	342
303.677	340
306.236	352
308.795	360
311.354	338
313.911	346
316.467	342
319.022	338
321.577	326
324.13	322
326.684	346
329.236	326
331.787	338
334.337	332
336.887	310
339.435	324
341.983	342
344.529	324
347.075	324
349.621	324
352.165	326
354.708	310
357.251	312
359.793	296
362.334	296
364.874	298
367.413	320
369.951	318
372.489	316
375.026	308
377.562	326
380.097	332
382.631	342
385.164	342
387.697	356
390.229	344
392.76	356
395.29	370
397.819	366
400.346	372
402.873	386
405.4	388
407.926	432
410.451	434
412.976	376
415.499	380
418.02	380
420.542	326
423.063	336
425.583	314
428.101	332
430.619	316
433.137	310
435.654	306
438.169	304
440.684	304
443.198	300
445.712	312
448.223	296
450.735	268
453.246	266
455.755	258
458.264	262
460.771	260
463.279	252
465.786	254
468.291	256
470.796	256
473.301	240
475.803	256
478.306	262
480.807	242
483.308	244
485.807	234
488.307	244
490.804	256
493.302	234
495.798	268
498.294	260
500.788	240
503.283	270
505.775	280
508.269	286
510.759	270
513.251	264
515.74	256
518.23	236
520.718	268
523.204	252
525.692	266
528.177	282
530.663	288
533.147	292
535.629	288
538.113	314
540.594	322
543.074	338
545.555	318
548.034	330
550.512	334
552.989	316
555.467	308
557.942	322
560.417	308
562.892	304
565.365	304
567.838	292
570.309	320
572.78	310
575.251	306
577.72	298
580.189	292
582.656	284
585.123	274
587.589	252
590.055	268
592.52	268
594.983	272
597.446	274
599.908	268
602.369	290
604.829	294
607.289	306
609.747	336
612.205	352
614.663	372
617.119	474
619.574	772
622.029	1124
624.483	1050
626.936	598
629.389	406
631.84	350
634.291	298
636.741	264
639.19	262
641.639	250
644.086	258
646.533	228
648.979	224
651.424	228
653.869	218
656.313	222
658.754	202
661.196	220
663.638	226
666.078	214
668.518	220
670.957	208
673.394	220
675.831	204
678.268	224
680.703	224
683.137	216
685.571	218
688.005	218
690.437	226
692.868	222
695.299	226
697.729	224
700.159	256
702.586	268
705.014	250
707.441	260
709.866	252
712.292	258
714.716	252
717.14	258
719.563	258
721.984	290
724.406	352
726.825	364
729.246	334
731.665	330
734.082	304
736.5	344
738.916	366
741.332	396
743.746	434
746.161	460
748.574	436
750.987	442
753.398	452
755.81	484
758.219	506
760.629	512
763.037	518
765.445	504
767.852	464
770.258	466
772.664	462
775.068	442
777.472	452
779.876	444
782.278	506
784.679	536
787.08	592
789.48	628
791.879	696
794.278	728
796.675	738
799.072	730
801.467	652
803.864	612
806.258	522
808.651	482
811.044	442
813.437	416
815.828	400
818.218	372
820.608	322
822.997	332
825.385	316
827.773	308
830.16	296
832.546	326
834.931	340
837.315	382
839.699	368
842.081	388
844.463	406
846.844	414
849.226	382
851.606	366
853.985	342
856.363	364
858.741	330
861.117	348
863.493	340
865.868	356
868.243	350
870.616	332
872.989	336
875.36	324
877.731	326
880.102	334
882.472	328
884.841	322
887.209	324
889.577	334
891.944	326
894.31	328
896.674	344
899.039	348
901.403	378
903.766	398
906.128	418
908.49	414
910.849	376
913.209	380
915.569	336
917.927	342
920.284	320
922.641	308
924.997	292
927.353	310
929.707	302
932.061	304
934.414	318
936.765	310
939.117	308
941.469	302
943.818	308
946.167	320
948.515	316
950.863	310
953.211	332
955.556	320
957.902	320
960.246	326
962.59	336
964.933	364
967.276	390
969.617	392
971.958	368
974.298	408
976.638	404
978.976	462
981.314	520
983.651	578
985.988	668
988.323	858
990.659	1228
992.992	1782
995.325	1942
997.658	2412
999.99	4228
1002.32	6620
1004.65	6128
1006.98	3462
1009.31	1642
1011.64	892
1013.97	614
1016.29	538
1018.62	532
1020.94	550
1023.27	694
1025.59	926
1027.91	1230
1030.24	1726
1032.56	2038
1034.88	1906
1037.2	1492
1039.52	1026
1041.84	772
1044.15	628
1046.47	540
1048.79	478
1051.1	468
1053.42	454
1055.73	482
1058.04	462
1060.36	462
1062.67	484
1064.98	472
1067.29	502
1069.6	524
1071.91	498
1074.22	486
1076.52	496
1078.83	514
1081.14	482
1083.44	508
1085.75	500
1088.05	510
1090.35	496
1092.65	506
1094.95	486
1097.26	506
1099.56	530
1101.86	500
1104.15	474
1106.45	458
1108.75	426
1111.05	434
1113.34	414
1115.64	386
1117.93	394
1120.22	382
1122.52	372
1124.81	350
1127.1	344
1129.39	334
1131.68	336
1133.97	346
1136.26	370
1138.54	366
1140.83	388
1143.12	430
1145.4	434
1147.69	466
1149.97	572
1152.25	718
1154.54	948
1156.82	1030
1159.1	958
1161.38	784
1163.66	654
1165.94	580
1168.22	554
1170.49	584
1172.77	590
1175.05	688
1177.32	846
1179.6	1034
1181.87	1258
1184.14	1284
1186.42	1184
1188.69	1100
1190.96	1164
1193.23	1224
1195.5	1258
1197.77	1260
1200.03	1292
1202.3	1240
1204.57	1174
1206.83	1014
1209.1	902
1211.36	794
1213.63	704
1215.89	614
1218.15	586
1220.41	538
1222.67	532
1224.93	532
1227.19	530
1229.45	516
1231.71	506
1233.97	470
1236.22	448
1238.48	454
1240.73	418
1242.99	436
1245.24	446
1247.5	436
1249.75	436
1252	416
1254.25	410
1256.5	422
1258.75	422
1261	402
1263.25	418
1265.49	410
1267.74	422
1269.99	430
1272.23	426
1274.48	406
1276.72	416
1278.96	408
1281.21	410
1283.45	404
1285.69	408
1287.93	430
1290.17	430
1292.41	442
1294.64	430
1296.88	436
1299.12	476
1301.36	472
1303.59	482
1305.82	490
1308.06	474
1310.29	500
1312.52	496
1314.76	504
1316.99	518
1319.22	530
1321.45	566
1323.68	578
1325.9	594
1328.13	592
1330.36	590
1332.58	588
1334.81	544
1337.04	548
1339.26	538
1341.48	490
1343.71	462
1345.93	454
1348.15	448
1350.37	430
1352.59	436
1354.81	444
1357.03	426
1359.24	452
1361.46	414
1363.68	430
1365.89	434
1368.11	424
1370.32	424
1372.54	450
1374.75	428
1376.96	424
1379.17	424
1381.38	398
1383.59	372
1385.8	364
1388.01	352
1390.22	330
1392.43	310
1394.63	338
1396.84	334
1399.05	336
1401.25	328
1403.45	328
1405.66	332
1407.86	312
1410.06	326
1412.26	316
1414.46	320
1416.66	304
1418.86	312
1421.06	302
1423.26	300
1425.46	324
1427.65	322
1429.85	318
1432.04	344
1434.24	384
1436.43	404
1438.62	452
1440.82	480
1443.01	516
1445.2	592
1447.39	622
1449.58	656
1451.77	656
1453.95	642
1456.14	590
1458.33	498
1460.52	420
1462.7	378
1464.89	358
1467.07	364
1469.25	320
1471.44	328
1473.62	330
1475.8	328
1477.98	326
1480.16	328
1482.34	314
1484.52	336
1486.7	316
1488.87	314
1491.05	316
1493.23	326
1495.4	352
1497.58	334
1499.75	300
1501.92	310
1504.1	302
1506.27	308
1508.44	308
1510.61	300
1512.78	294
1514.95	308
1517.12	302
1519.28	298
1521.45	304
1523.62	318
1525.78	326
1527.95	308
1530.11	308
1532.28	292
1534.44	314
1536.6	318
1538.76	310
1540.93	320
1543.09	308
1545.25	312
1547.41	298
1549.56	306
1551.72	314
1553.88	334
1556.03	328
1558.19	324
1560.35	330
1562.5	340
1564.65	360
1566.81	356
1568.96	372
1571.11	384
1573.26	414
1575.41	436
1577.56	502
1579.71	618
1581.86	850
1584.01	1042
1586.15	904
1588.3	754
1590.45	620
1592.59	652
1594.74	706
1596.88	868
1599.02	1268
1601.17	1696
1603.31	1902
1605.45	1746
1607.59	1330
1609.73	962
1611.87	710
1614.01	544
1616.14	492
1618.28	466
1620.42	450
1622.55	404
1624.69	414
1626.82	388
1628.96	364
1631.09	388
1633.22	344
1635.36	358
1637.49	352
1639.62	354
1641.75	360
1643.88	376
1646	366
1648.13	376
1650.26	388
1652.39	380
1654.51	340
1656.64	310
1658.76	328
1660.89	330
1663.01	310
1665.13	328
1667.26	328
1669.38	294
1671.5	312
1673.62	328
1675.74	324
1677.86	334
1679.97	328
1682.09	326
1684.21	318
1686.33	300
1688.44	308
1690.56	318
1692.67	316
1694.78	302
1696.9	322
1699.01	326
1701.12	312
1703.23	310
1705.34	310
1707.45	324
1709.56	288
1711.67	286
1713.78	312
1715.88	316
1717.99	312
1720.1	288
1722.2	312
1724.31	298
1726.41	316
1728.51	312
1730.62	328
1732.72	314
1734.82	304
1736.92	308
1739.02	298
1741.12	304
1743.22	304
1745.32	288
1747.42	308
1749.51	332
1751.61	300
1753.7	298
1755.8	314
1757.89	290
1759.99	324
1762.08	298
1764.17	294
1766.26	304
1768.36	292
1770.45	310
1772.54	306
1774.62	306
1776.71	324
1778.8	318
1780.89	306
1782.98	298
1785.06	312
1787.15	322
1789.23	290
1791.32	282
1793.4	308
1795.48	316
1797.56	306
1799.65	304
1801.73	292
1803.81	308
1805.89	314
1807.97	300
1810.04	330
1812.12	318
1814.2	306
1816.28	304
1818.35	316
1820.43	320
1822.5	318
1824.58	314
1826.65	318
1828.72	296
1830.79	308
1832.86	286
1834.94	316
1837.01	302
1839.08	296
1841.15	320
1843.21	328
1845.28	272
1847.35	316
1849.41	338
1851.48	286
1853.55	308
1855.61	304
1857.67	308
1859.74	296
1861.8	292
1863.86	304
1865.92	318
1867.98	304
1870.05	308
1872.1	322
1874.16	310
1876.22	314
1878.28	310
1880.34	302
1882.39	304
1884.45	306
1886.5	316
1888.56	306
1890.61	296
1892.67	316
1894.72	318
1896.77	314
1898.82	296
1900.87	332
1902.92	312
1904.97	308
1907.02	316
1909.07	312
1911.12	306
1913.17	302
1915.21	306
1917.26	298
1919.3	324
1921.35	314
1923.39	326
1925.43	334
1927.48	318
1929.52	322
1931.56	324
1933.6	318
1935.64	322
1937.68	332
1939.72	306
1941.76	330
1943.8	314
1945.83	308
1947.87	320
1949.91	320
1951.94	326
1953.98	352
1956.01	320
1958.05	316
1960.08	326
1962.11	330
1964.14	340
1966.17	314
1968.2	314
1970.23	318
1972.26	330
1974.29	306
1976.32	324
1978.35	316
1980.37	316
1982.4	300
1984.43	332
1986.45	320
1988.48	312
1990.5	314
1992.52	328
1994.55	334
1996.57	330
1998.59	334
2000.61	322
2002.63	332
2004.65	346
2006.67	322
2008.69	326
2010.7	314
2012.72	318
2014.74	328
2016.75	320
2018.77	312
2020.78	334
2022.8	320
2024.81	334
2026.83	306
2028.84	338
2030.85	312
2032.86	314
2034.87	346
2036.88	304
2038.89	346
2040.9	336
2042.91	318
2044.91	324
2046.92	332
2048.93	310
2050.93	326
2052.94	314
2054.94	300
2056.95	324
2058.95	332
2060.95	326
2062.95	356
2064.96	306
2066.96	340
2068.96	342
2070.96	344
2072.96	344
2074.95	338
2076.95	338
2078.95	334
2080.95	326
2082.94	334
2084.94	334
2086.93	332
2088.93	334
2090.92	348
2092.91	338
2094.91	338
2096.9	332
2098.89	334
2100.88	330
2102.87	336
2104.86	332
2106.85	322
2108.84	328
2110.83	338
2112.81	330
2114.8	342
2116.78	332
2118.77	342
2120.75	330
2122.74	332
2124.72	336
2126.71	334
2128.69	326
2130.67	338
2132.65	338
2134.63	326
2136.61	334
2138.59	314
2140.57	330
2142.55	342
2144.53	328
2146.5	340
2148.48	332
2150.46	318
2152.43	314
2154.41	324
2156.38	348
2158.35	336
2160.33	354
2162.3	324
2164.27	338
2166.24	346
2168.21	344
2170.18	346
2172.15	344
2174.12	332
2176.09	330
2178.06	346
2180.03	328
2181.99	320
2183.96	348
2185.92	348
2187.89	326
2189.85	344
2191.82	328
2193.78	344
2195.74	362
2197.7	338
2199.67	352
2201.63	346
2203.59	348
2205.55	346
2207.51	342
2209.46	340
2211.42	328
2213.38	324
2215.34	344
2217.29	364
2219.25	342
2221.2	348
2223.16	336
2225.11	342
2227.06	346
2229.02	358
2230.97	346
2232.92	364
2234.87	336
2236.82	340
2238.77	318
2240.72	332
2242.67	354
2244.62	324
2246.57	342
2248.51	340
2250.46	336
2252.4	348
2254.35	324
2256.29	336
2258.24	338
2260.18	344
2262.13	352
2264.07	348
2266.01	338
2267.95	322
2269.89	362
2271.83	348
2273.77	362
2275.71	350
2277.65	346
2279.58	346
2281.52	350
2283.46	344
2285.4	342
2287.33	330
2289.27	332
2291.2	346
2293.13	332
2295.07	342
2297	346
2298.93	330
2300.86	346
2302.79	342
2304.72	342
2306.65	354
2308.58	372
2310.51	358
2312.44	372
2314.37	332
2316.29	358
2318.22	344
2320.15	358
2322.07	340
2324	342
2325.92	342
2327.84	350
2329.77	352
2331.69	346
2333.61	352
2335.53	348
2337.45	340
2339.37	350
2341.29	332
2343.21	356
2345.13	358
2347.05	336
2348.97	338
2350.88	362
2352.8	368
2354.71	344
2356.63	362
2358.54	356
2360.46	360
2362.37	368
2364.28	358
2366.2	352
2368.11	350
2370.02	364
2371.93	378
2373.84	372
2375.75	366
2377.66	364
2379.57	352
2381.47	336
2383.38	352
2385.29	354
2387.2	344
2389.1	366
2391.01	350
2392.91	374
2394.81	344
2396.72	384
2398.62	366
2400.52	344
2402.42	350
2404.33	378
2406.23	340
2408.13	338
2410.03	362
2411.92	350
2413.82	350
2415.72	344
2417.62	364
2419.51	352
2421.41	366
2423.31	356
2425.2	358
2427.1	354
2428.99	364
2430.88	360
2432.78	372
2434.67	366
2436.56	366
2438.45	366
2440.34	356
2442.23	354
2444.12	358
2446.01	370
2447.9	382
2449.79	376