File: Jesse_Dataset_v2/Pure Raman/Polystyrene/633nm/ps-ppo-7jan25-1,0000-map3_Y06_X07.txt
182.393	1068
184.993	1052
187.593	1010
190.193	1004
192.79	988
195.387	966
197.983	1014
200.578	964
203.174	980
205.766	996
208.36	1038
210.951	1048
213.542	1064
216.131	1070
218.721	1098
221.309	1146
223.897	1104
226.483	1082
229.069	1052
231.654	966
234.238	898
236.821	800
239.404	736
241.984	666
244.566	558
247.145	518
249.723	452
252.302	408
254.878	428
257.455	412
260.03	378
262.604	396
265.178	386
267.75	376
270.322	376
272.893	382
275.463	342
278.032	364
280.601	334
283.168	322
285.734	320
288.301	310
290.866	288
293.429	284
295.992	276
298.556	264
301.117	270
303.677	270
306.236	284
308.795	290
311.354	290
313.911	250
316.467	258
319.022	274
321.577	276
324.13	286
326.684	276
329.236	280
331.787	290
334.337	270
336.887	286
339.435	258
341.983	282
344.529	256
347.075	258
349.621	264
352.165	266
354.708	238
357.251	274
359.793	262
362.334	274
364.874	270
367.413	240
369.951	262
372.489	264
375.026	250
377.562	282
380.097	272
382.631	274
385.164	302
387.697	288
390.229	302
392.76	302
395.29	328
397.819	332
400.346	348
402.873	358
405.4	382
407.926	398
410.451	392
412.976	358
415.499	338
418.02	326
420.542	324
423.063	288
425.583	298
428.101	294
430.619	288
433.137	276
435.654	274
438.169	262
440.684	256
443.198	240
445.712	268
448.223	262
450.735	248
453.246	240
455.755	228
458.264	236
460.771	238
463.279	234
465.786	202
468.291	226
470.796	230
473.301	206
475.803	212
478.306	222
480.807	224
483.308	222
485.807	222
488.307	222
490.804	214
493.302	210
495.798	216
498.294	228
500.788	238
503.283	240
505.775	254
508.269	240
510.759	256
513.251	230
515.74	242
518.23	240
520.718	250
523.204	236
525.692	254
528.177	266
530.663	250
533.147	278
535.629	286
538.113	294
540.594	308
543.074	308
545.555	312
548.034	290
550.512	274
552.989	292
555.467	304
557.942	294
560.417	294
562.892	298
565.365	284
567.838	288
570.309	266
572.78	306
575.251	318
577.72	296
580.189	262
582.656	270
585.123	260
587.589	266
590.055	256
592.52	278
594.983	254
597.446	258
599.908	256
602.369	276
604.829	278
607.289	304
609.747	324
612.205	330
614.663	366
617.119	450
619.574	734
622.029	1116
624.483	1018
626.936	584
629.389	360
631.84	306
634.291	306
636.741	260
639.19	254
641.639	244
644.086	242
646.533	210
648.979	224
651.424	222
653.869	222
656.313	204
658.754	206
661.196	206
663.638	216
666.078	200
668.518	224
670.957	208
673.394	216
675.831	200
678.268	200
680.703	220
683.137	220
685.571	206
688.005	212
690.437	202
692.868	216
695.299	210
697.729	254
700.159	246
702.586	244
705.014	250
707.441	264
709.866	256
712.292	238
714.716	256
717.14	248
719.563	254
721.984	292
724.406	316
726.825	380
729.246	340
731.665	318
734.082	308
736.5	304
738.916	390
741.332	394
743.746	438
746.161	422
748.574	436
750.987	462
753.398	462
755.81	466
758.219	512
760.629	500
763.037	530
765.445	522
767.852	484
770.258	466
772.664	458
775.068	456
777.472	452
779.876	466
782.278	486
784.679	566
787.08	616
789.48	632
791.879	680
794.278	726
796.675	724
799.072	726
801.467	660
803.864	592
806.258	500
808.651	466
811.044	448
813.437	416
815.828	382
818.218	362
820.608	334
822.997	322
825.385	296
827.773	288
830.16	298
832.546	314
834.931	310
837.315	346
839.699	368
842.081	402
844.463	390
846.844	394
849.226	380
851.606	350
853.985	346
856.363	328
858.741	310
861.117	344
863.493	356
865.868	338
868.243	344
870.616	314
872.989	326
875.36	352
877.731	332
880.102	334
882.472	332
884.841	310
887.209	316
889.577	324
891.944	322
894.31	310
896.674	322
899.039	354
901.403	356
903.766	382
906.128	390
908.49	378
910.849	378
913.209	376
915.569	328
917.927	332
920.284	312
922.641	296
924.997	278
927.353	294
929.707	298
932.061	294
934.414	280
936.765	284
939.117	312
941.469	298
943.818	288
946.167	290
948.515	310
950.863	306
953.211	314
955.556	306
957.902	320
960.246	328
962.59	344
964.933	338
967.276	364
969.617	368
971.958	336
974.298	354
976.638	414
978.976	458
981.314	490
983.651	574
985.988	668
988.323	814
990.659	1218
992.992	1740
995.325	1956
997.658	2362
999.99	4188
1002.32	6606
1004.65	6118
1006.98	3454
1009.31	1610
1011.64	870
1013.97	620
1016.29	550
1018.62	514
1020.94	540
1023.27	670
1025.59	860
1027.91	1222
1030.24	1642
1032.56	1956
1034.88	1868
1037.2	1482
1039.52	1026
1041.84	740
1044.15	592
1046.47	528
1048.79	496
1051.1	444
1053.42	436
1055.73	460
1058.04	444
1060.36	422
1062.67	426
1064.98	464
1067.29	480
1069.6	488
1071.91	480
1074.22	480
1076.52	458
1078.83	484
1081.14	450
1083.44	490
1085.75	446
1088.05	474
1090.35	452
1092.65	462
1094.95	442
1097.26	466
1099.56	482
1101.86	462
1104.15	450
1106.45	422
1108.75	414
1111.05	408
1113.34	354
1115.64	352
1117.93	356
1120.22	356
1122.52	322
1124.81	332
1127.1	312
1129.39	318
1131.68	318
1133.97	318
1136.26	314
1138.54	320
1140.83	368
1143.12	392
1145.4	422
1147.69	470
1149.97	540
1152.25	688
1154.54	904
1156.82	970
1159.1	924
1161.38	744
1163.66	610
1165.94	556
1168.22	536
1170.49	568
1172.77	604
1175.05	668
1177.32	784
1179.6	1030
1181.87	1208
1184.14	1224
1186.42	1140
1188.69	1070
1190.96	1072
1193.23	1166
1195.5	1230
1197.77	1270
1200.03	1238
1202.3	1214
1204.57	1128
1206.83	1012
1209.1	860
1211.36	744
1213.63	698
1215.89	574
1218.15	552
1220.41	530
1222.67	514
1224.93	478
1227.19	492
1229.45	454
1231.71	440
1233.97	420
1236.22	424
1238.48	402
1240.73	398
1242.99	404
1245.24	426
1247.5	396
1249.75	406
1252	402
1254.25	370
1256.5	390
1258.75	380
1261	382
1263.25	384
1265.49	376
1267.74	390
1269.99	378
1272.23	394
1274.48	374
1276.72	390
1278.96	388
1281.21	374
1283.45	392
1285.69	400
1287.93	396
1290.17	384
1292.41	426
1294.64	398
1296.88	420
1299.12	444
1301.36	448
1303.59	440
1305.82	434
1308.06	464
1310.29	454
1312.52	460
1314.76	478
1316.99	490
1319.22	504
1321.45	526
1323.68	538
1325.9	538
1328.13	584
1330.36	582
1332.58	550
1334.81	518
1337.04	516
1339.26	492
1341.48	448
1343.71	456
1345.93	422
1348.15	420
1350.37	396
1352.59	404
1354.81	398
1357.03	408
1359.24	410
1361.46	410
1363.68	408
1365.89	402
1368.11	406
1370.32	414
1372.54	412
1374.75	402
1376.96	414
1379.17	418
1381.38	366
1383.59	368
1385.8	324
1388.01	320
1390.22	308
1392.43	330
1394.63	294
1396.84	312
1399.05	304
1401.25	318
1403.45	290
1405.66	298
1407.86	310
1410.06	306
1412.26	290
1414.46	284
1416.66	292
1418.86	290
1421.06	268
1423.26	298
1425.46	290
1427.65	312
1429.85	334
1432.04	332
1434.24	344
1436.43	398
1438.62	436
1440.82	452
1443.01	548
1445.2	568
1447.39	598
1449.58	636
1451.77	632
1453.95	636
1456.14	554
1458.33	482
1460.52	412
1462.7	368
1464.89	336
1467.07	324
1469.25	318
1471.44	290
1473.62	306
1475.8	320
1477.98	288
1480.16	310
1482.34	296
1484.52	316
1486.7	310
1488.87	300
1491.05	320
1493.23	320
1495.4	338
1497.58	320
1499.75	302
1501.92	310
1504.1	286
1506.27	270
1508.44	306
1510.61	294
1512.78	300
1514.95	286
1517.12	290
1519.28	282
1521.45	300
1523.62	308
1525.78	300
1527.95	274
1530.11	308
1532.28	300
1534.44	306
1536.6	304
1538.76	302
1540.93	300
1543.09	296
1545.25	312
1547.41	308
1549.56	304
1551.72	306
1553.88	328
1556.03	316
1558.19	322
1560.35	320
1562.5	334
1564.65	334
1566.81	372
1568.96	354
1571.11	368
1573.26	394
1575.41	430
1577.56	464
1579.71	624
1581.86	830
1584.01	1002
1586.15	964
1588.3	720
1590.45	632
1592.59	612
1594.74	704
1596.88	910
1599.02	1266
1601.17	1692
1603.31	1928
1605.45	1734
1607.59	1310
1609.73	960
1611.87	688
1614.01	576
1616.14	510
1618.28	450
1620.42	418
1622.55	392
1624.69	402
1626.82	374
1628.96	332
1631.09	360
1633.22	350
1635.36	348
1637.49	356
1639.62	346
1641.75	350
1643.88	354
1646	364
1648.13	362
1650.26	366
1652.39	344
1654.51	318
1656.64	336
1658.76	304
1660.89	302
1663.01	324
1665.13	322
1667.26	320
1669.38	312
1671.5	294
1673.62	322
1675.74	314
1677.86	310
1679.97	290
1682.09	288
1684.21	334
1686.33	302
1688.44	334
1690.56	298
1692.67	316
1694.78	304
1696.9	300
1699.01	296
1701.12	304
1703.23	302
1705.34	306
1707.45	312
1709.56	310
1711.67	308
1713.78	320
1715.88	290
1717.99	286
1720.1	296
1722.2	310
1724.31	296
1726.41	306
1728.51	320
1730.62	298
1732.72	306
1734.82	306
1736.92	298
1739.02	288
1741.12	290
1743.22	290
1745.32	316
1747.42	300
1749.51	296
1751.61	296
1753.7	290
1755.8	310
1757.89	300
1759.99	304
1762.08	288
1764.17	322
1766.26	304
1768.36	280
1770.45	290
1772.54	308
1774.62	308
1776.71	292
1778.8	318
1780.89	308
1782.98	312
1785.06	296
1787.15	292
1789.23	310
1791.32	306
1793.4	322
1795.48	316
1797.56	310
1799.65	328
1801.73	322
1803.81	304
1805.89	316
1807.97	294
1810.04	306
1812.12	312
1814.2	300
1816.28	310
1818.35	304
1820.43	310
1822.5	304
1824.58	306
1826.65	316
1828.72	312
1830.79	316
1832.86	320
1834.94	304
1837.01	316
1839.08	306
1841.15	306
1843.21	318
1845.28	304
1847.35	308
1849.41	324
1851.48	298
1853.55	312
1855.61	316
1857.67	304
1859.74	304
1861.8	318
1863.86	320
1865.92	312
1867.98	328
1870.05	292
1872.1	312
1874.16	300
1876.22	308
1878.28	304
1880.34	300
1882.39	298
1884.45	330
1886.5	316
1888.56	310
1890.61	298
1892.67	320
1894.72	312
1896.77	296
1898.82	314
1900.87	304
1902.92	330
1904.97	334
1907.02	326
1909.07	300
1911.12	316
1913.17	330
1915.21	330
1917.26	342
1919.3	308
1921.35	336
1923.39	338
1925.43	350
1927.48	326
1929.52	326
1931.56	336
1933.6	340
1935.64	322
1937.68	320
1939.72	306
1941.76	308
1943.8	330
1945.83	344
1947.87	324
1949.91	308
1951.94	330
1953.98	332
1956.01	324
1958.05	330
1960.08	324
1962.11	336
1964.14	332
1966.17	318
1968.2	336
1970.23	314
1972.26	304
1974.29	334
1976.32	302
1978.35	328
1980.37	330
1982.4	332
1984.43	324
1986.45	318
1988.48	310
1990.5	312
1992.52	332
1994.55	318
1996.57	324
1998.59	334
2000.61	308
2002.63	324
2004.65	316
2006.67	328
2008.69	320
2010.7	332
2012.72	326
2014.74	320
2016.75	318
2018.77	332
2020.78	326
2022.8	328
2024.81	314
2026.83	320
2028.84	330
2030.85	348
2032.86	334
2034.87	336
2036.88	336
2038.89	328
2040.9	338
2042.91	330
2044.91	330
2046.92	314
2048.93	318
2050.93	324
2052.94	322
2054.94	342
2056.95	304
2058.95	336
2060.95	330
2062.95	316
2064.96	346
2066.96	332
2068.96	330
2070.96	350
2072.96	334
2074.95	354
2076.95	324
2078.95	336
2080.95	332
2082.94	328
2084.94	334
2086.93	324
2088.93	318
2090.92	322
2092.91	318
2094.91	330
2096.9	318
2098.89	322
2100.88	354
2102.87	330
2104.86	320
2106.85	318
2108.84	312
2110.83	328
2112.81	326
2114.8	328
2116.78	338
2118.77	350
2120.75	352
2122.74	334
2124.72	338
2126.71	332
2128.69	328
2130.67	354
2132.65	336
2134.63	348
2136.61	340
2138.59	346
2140.57	334
2142.55	348
2144.53	322
2146.5	330
2148.48	318
2150.46	344
2152.43	328
2154.41	338
2156.38	332
2158.35	338
2160.33	334
2162.3	338
2164.27	352
2166.24	368
2168.21	350
2170.18	324
2172.15	342
2174.12	352
2176.09	326
2178.06	360
2180.03	336
2181.99	334
2183.96	328
2185.92	336
2187.89	350
2189.85	354
2191.82	322
2193.78	346
2195.74	368
2197.7	344
2199.67	350
2201.63	326
2203.59	332
2205.55	330
2207.51	336
2209.46	346
2211.42	334
2213.38	318
2215.34	348
2217.29	340
2219.25	330
2221.2	354
2223.16	354
2225.11	326
2227.06	342
2229.02	334
2230.97	352
2232.92	322
2234.87	324
2236.82	328
2238.77	354
2240.72	334
2242.67	358
2244.62	346
2246.57	346
2248.51	336
2250.46	346
2252.4	346
2254.35	352
2256.29	340
2258.24	342
2260.18	344
2262.13	358
2264.07	340
2266.01	342
2267.95	330
2269.89	352
2271.83	350
2273.77	352
2275.71	344
2277.65	340
2279.58	354
2281.52	332
2283.46	340
2285.4	352
2287.33	352
2289.27	358
2291.2	340
2293.13	344
2295.07	346
2297	350
2298.93	346
2300.86	368
2302.79	352
2304.72	368
2306.65	340
2308.58	370
2310.51	348
2312.44	350
2314.37	354
2316.29	354
2318.22	368
2320.15	332
2322.07	356
2324	352
2325.92	350
2327.84	350
2329.77	360
2331.69	348
2333.61	348
2335.53	368
2337.45	352
2339.37	352
2341.29	360
2343.21	340
2345.13	364
2347.05	374
2348.97	350
2350.88	358
2352.8	330
2354.71	346
2356.63	362
2358.54	366
2360.46	366
2362.37	342
2364.28	358
2366.2	374
2368.11	348
2370.02	378
2371.93	358
2373.84	372
2375.75	362
2377.66	356
2379.57	334
2381.47	360
2383.38	364
2385.29	362
2387.2	360
2389.1	352
2391.01	354
2392.91	362
2394.81	348
2396.72	342
2398.62	352
2400.52	358
2402.42	350
2404.33	350
2406.23	370
2408.13	358
2410.03	358
2411.92	342
2413.82	358
2415.72	376
2417.62	344
2419.51	338
2421.41	350
2423.31	340
2425.2	360
2427.1	358
2428.99	352
2430.88	370
2432.78	358
2434.67	364
2436.56	352
2438.45	366
2440.34	358
2442.23	374
2444.12	370
2446.01	374
2447.9	372
2449.79	370