File: Jesse_Dataset_v2/Pure Raman/Polystyrene/633nm/ps-ppo-7jan25-1,0000-map3_Y01_X09.txt
182.393	1002
184.993	994
187.593	992
190.193	952
192.79	952
195.387	932
197.983	930
200.578	926
203.174	976
205.766	996
208.36	986
210.951	1014
213.542	1016
216.131	1078
218.721	1062
221.309	1090
223.897	1072
226.483	1052
229.069	976
231.654	892
234.238	842
236.821	754
239.404	686
241.984	608
244.566	518
247.145	452
249.723	420
252.302	394
254.878	388
257.455	368
260.03	334
262.604	336
265.178	322
267.75	334
270.322	328
272.893	328
275.463	340
278.032	322
280.601	296
283.168	286
285.734	284
288.301	278
290.866	266
293.429	252
295.992	260
298.556	250
301.117	242
303.677	240
306.236	250
308.795	242
311.354	228
313.911	224
316.467	230
319.022	242
321.577	262
324.13	240
326.684	248
329.236	246
331.787	244
334.337	242
336.887	238
339.435	238
341.983	242
344.529	230
347.075	224
349.621	236
352.165	210
354.708	208
357.251	216
359.793	212
362.334	220
364.874	212
367.413	220
369.951	240
372.489	228
375.026	234
377.562	234
380.097	244
382.631	232
385.164	266
387.697	278
390.229	266
392.76	282
395.29	290
397.819	284
400.346	294
402.873	310
405.4	346
407.926	358
410.451	362
412.976	332
415.499	292
418.02	276
420.542	278
423.063	250
425.583	254
428.101	256
430.619	244
433.137	244
435.654	234
438.169	234
440.684	224
443.198	222
445.712	214
448.223	212
450.735	204
453.246	196
455.755	180
458.264	186
460.771	188
463.279	184
465.786	198
468.291	158
470.796	180
473.301	180
475.803	190
478.306	174
480.807	184
483.308	168
485.807	176
488.307	192
490.804	174
493.302	176
495.798	182
498.294	184
500.788	194
503.283	186
505.775	200
508.269	204
510.759	220
513.251	180
515.74	184
518.23	198
520.718	184
523.204	214
525.692	206
528.177	212
530.663	222
533.147	242
535.629	214
538.113	260
540.594	270
543.074	274
545.555	262
548.034	256
550.512	266
552.989	252
555.467	246
557.942	248
560.417	252
562.892	256
565.365	252
567.838	258
570.309	232
572.78	258
575.251	246
577.72	260
580.189	260
582.656	238
585.123	206
587.589	214
590.055	208
592.52	200
594.983	226
597.446	210
599.908	232
602.369	238
604.829	222
607.289	262
609.747	286
612.205	272
614.663	316
617.119	428
619.574	684
622.029	1068
624.483	956
626.936	542
629.389	346
631.84	270
634.291	248
636.741	216
639.19	202
641.639	200
644.086	180
646.533	184
648.979	176
651.424	170
653.869	180
656.313	182
658.754	180
661.196	182
663.638	166
666.078	176
668.518	170
670.957	174
673.394	178
675.831	166
678.268	160
680.703	170
683.137	184
685.571	178
688.005	176
690.437	188
692.868	184
695.299	178
697.729	194
700.159	202
702.586	214
705.014	220
707.441	224
709.866	214
712.292	216
714.716	224
717.14	228
719.563	230
721.984	252
724.406	280
726.825	296
729.246	300
731.665	244
734.082	280
736.5	304
738.916	328
741.332	354
743.746	360
746.161	394
748.574	382
750.987	394
753.398	392
755.81	414
758.219	474
760.629	472
763.037	462
765.445	472
767.852	464
770.258	432
772.664	420
775.068	404
777.472	426
779.876	414
782.278	446
784.679	520
787.08	536
789.48	572
791.879	638
794.278	690
796.675	676
799.072	666
801.467	636
803.864	574
806.258	462
808.651	422
811.044	382
813.437	370
815.828	340
818.218	334
820.608	298
822.997	286
825.385	272
827.773	260
830.16	272
832.546	282
834.931	296
837.315	318
839.699	370
842.081	370
844.463	390
846.844	360
849.226	344
851.606	312
853.985	300
856.363	280
858.741	308
861.117	292
863.493	314
865.868	314
868.243	282
870.616	302
872.989	312
875.36	310
877.731	298
880.102	294
882.472	290
884.841	268
887.209	282
889.577	278
891.944	282
894.31	266
896.674	288
899.039	316
901.403	324
903.766	336
906.128	372
908.49	372
910.849	332
913.209	324
915.569	304
917.927	298
920.284	262
922.641	278
924.997	256
927.353	274
929.707	284
932.061	260
934.414	266
936.765	256
939.117	266
941.469	268
943.818	264
946.167	276
948.515	270
950.863	252
953.211	282
955.556	266
957.902	286
960.246	288
962.59	296
964.933	314
967.276	340
969.617	322
971.958	334
974.298	346
976.638	380
978.976	404
981.314	464
983.651	544
985.988	628
988.323	762
990.659	1192
992.992	1694
995.325	1896
997.658	2322
999.99	4234
1002.32	6530
1004.65	6084
1006.98	3400
1009.31	1582
1011.64	854
1013.97	584
1016.29	470
1018.62	456
1020.94	526
1023.27	620
1025.59	856
1027.91	1184
1030.24	1654
1032.56	1936
1034.88	1868
1037.2	1452
1039.52	972
1041.84	722
1044.15	580
1046.47	506
1048.79	440
1051.1	436
1053.42	410
1055.73	390
1058.04	396
1060.36	418
1062.67	422
1064.98	402
1067.29	474
1069.6	464
1071.91	454
1074.22	466
1076.52	456
1078.83	430
1081.14	442
1083.44	430
1085.75	416
1088.05	422
1090.35	434
1092.65	454
1094.95	430
1097.26	434
1099.56	424
1101.86	422
1104.15	450
1106.45	396
1108.75	380
1111.05	370
1113.34	336
1115.64	340
1117.93	348
1120.22	312
1122.52	292
1124.81	310
1127.1	268
1129.39	306
1131.68	288
1133.97	288
1136.26	310
1138.54	306
1140.83	316
1143.12	356
1145.4	380
1147.69	436
1149.97	512
1152.25	706
1154.54	886
1156.82	964
1159.1	890
1161.38	704
1163.66	578
1165.94	508
1168.22	514
1170.49	516
1172.77	578
1175.05	630
1177.32	760
1179.6	970
1181.87	1184
1184.14	1230
1186.42	1134
1188.69	1054
1190.96	1092
1193.23	1146
1195.5	1210
1197.77	1258
1200.03	1250
1202.3	1164
1204.57	1112
1206.83	932
1209.1	888
1211.36	764
1213.63	644
1215.89	586
1218.15	520
1220.41	484
1222.67	502
1224.93	468
1227.19	468
1229.45	442
1231.71	434
1233.97	444
1236.22	398
1238.48	392
1240.73	404
1242.99	380
1245.24	378
1247.5	362
1249.75	374
1252	378
1254.25	364
1256.5	384
1258.75	386
1261	372
1263.25	376
1265.49	370
1267.74	362
1269.99	360
1272.23	378
1274.48	348
1276.72	374
1278.96	346
1281.21	376
1283.45	354
1285.69	374
1287.93	376
1290.17	418
1292.41	392
1294.64	400
1296.88	424
1299.12	400
1301.36	424
1303.59	436
1305.82	450
1308.06	418
1310.29	426
1312.52	488
1314.76	460
1316.99	478
1319.22	486
1321.45	494
1323.68	530
1325.9	536
1328.13	544
1330.36	556
1332.58	562
1334.81	550
1337.04	502
1339.26	482
1341.48	488
1343.71	436
1345.93	442
1348.15	406
1350.37	412
1352.59	400
1354.81	400
1357.03	384
1359.24	380
1361.46	410
1363.68	398
1365.89	422
1368.11	420
1370.32	402
1372.54	404
1374.75	408
1376.96	376
1379.17	384
1381.38	368
1383.59	344
1385.8	340
1388.01	304
1390.22	282
1392.43	302
1394.63	278
1396.84	314
1399.05	282
1401.25	284
1403.45	302
1405.66	304
1407.86	302
1410.06	284
1412.26	294
1414.46	298
1416.66	286
1418.86	282
1421.06	268
1423.26	296
1425.46	286
1427.65	294
1429.85	290
1432.04	304
1434.24	324
1436.43	368
1438.62	440
1440.82	460
1443.01	502
1445.2	558
1447.39	584
1449.58	626
1451.77	636
1453.95	594
1456.14	552
1458.33	476
1460.52	414
1462.7	344
1464.89	338
1467.07	300
1469.25	296
1471.44	310
1473.62	294
1475.8	286
1477.98	296
1480.16	322
1482.34	304
1484.52	288
1486.7	288
1488.87	306
1491.05	294
1493.23	312
1495.4	330
1497.58	308
1499.75	310
1501.92	298
1504.1	292
1506.27	298
1508.44	288
1510.61	282
1512.78	294
1514.95	282
1517.12	308
1519.28	288
1521.45	274
1523.62	306
1525.78	290
1527.95	294
1530.11	288
1532.28	288
1534.44	298
1536.6	288
1538.76	292
1540.93	292
1543.09	292
1545.25	302
1547.41	292
1549.56	282
1551.72	290
1553.88	314
1556.03	302
1558.19	316
1560.35	320
1562.5	324
1564.65	328
1566.81	346
1568.96	368
1571.11	346
1573.26	398
1575.41	452
1577.56	502
1579.71	620
1581.86	808
1584.01	1000
1586.15	910
1588.3	696
1590.45	594
1592.59	632
1594.74	740
1596.88	886
1599.02	1228
1601.17	1630
1603.31	1918
1605.45	1758
1607.59	1340
1609.73	936
1611.87	716
1614.01	584
1616.14	518
1618.28	454
1620.42	424
1622.55	398
1624.69	388
1626.82	372
1628.96	334
1631.09	342
1633.22	334
1635.36	340
1637.49	342
1639.62	362
1641.75	328
1643.88	344
1646	364
1648.13	380
1650.26	354
1652.39	336
1654.51	334
1656.64	324
1658.76	332
1660.89	332
1663.01	314
1665.13	286
1667.26	314
1669.38	314
1671.5	306
1673.62	280
1675.74	318
1677.86	310
1679.97	300
1682.09	312
1684.21	306
1686.33	290
1688.44	336
1690.56	332
1692.67	312
1694.78	310
1696.9	306
1699.01	298
1701.12	290
1703.23	304
1705.34	300
1707.45	310
1709.56	292
1711.67	306
1713.78	296
1715.88	306
1717.99	302
1720.1	316
1722.2	308
1724.31	302
1726.41	294
1728.51	302
1730.62	312
1732.72	330
1734.82	308
1736.92	302
1739.02	326
1741.12	308
1743.22	310
1745.32	292
1747.42	296
1749.51	304
1751.61	312
1753.7	302
1755.8	318
1757.89	314
1759.99	316
1762.08	308
1764.17	312
1766.26	322
1768.36	312
1770.45	292
1772.54	300
1774.62	318
1776.71	310
1778.8	306
1780.89	302
1782.98	322
1785.06	296
1787.15	310
1789.23	322
1791.32	310
1793.4	312
1795.48	308
1797.56	312
1799.65	308
1801.73	318
1803.81	312
1805.89	298
1807.97	324
1810.04	316
1812.12	322
1814.2	326
1816.28	318
1818.35	312
1820.43	314
1822.5	320
1824.58	332
1826.65	322
1828.72	306
1830.79	312
1832.86	288
1834.94	306
1837.01	300
1839.08	302
1841.15	328
1843.21	312
1845.28	292
1847.35	320
1849.41	312
1851.48	296
1853.55	308
1855.61	320
1857.67	322
1859.74	300
1861.8	320
1863.86	326
1865.92	324
1867.98	312
1870.05	308
1872.1	326
1874.16	314
1876.22	302
1878.28	330
1880.34	314
1882.39	318
1884.45	308
1886.5	322
1888.56	306
1890.61	318
1892.67	336
1894.72	316
1896.77	314
1898.82	308
1900.87	318
1902.92	326
1904.97	324
1907.02	324
1909.07	310
1911.12	312
1913.17	336
1915.21	312
1917.26	312
1919.3	334
1921.35	338
1923.39	332
1925.43	342
1927.48	318
1929.52	338
1931.56	338
1933.6	320
1935.64	332
1937.68	330
1939.72	308
1941.76	324
1943.8	310
1945.83	318
1947.87	338
1949.91	326
1951.94	326
1953.98	316
1956.01	326
1958.05	354
1960.08	342
1962.11	324
1964.14	326
1966.17	326
1968.2	336
1970.23	328
1972.26	338
1974.29	302
1976.32	330
1978.35	316
1980.37	336
1982.4	340
1984.43	346
1986.45	324
1988.48	342
1990.5	334
1992.52	334
1994.55	306
1996.57	338
1998.59	348
2000.61	334
2002.63	332
2004.65	350
2006.67	338
2008.69	342
2010.7	326
2012.72	334
2014.74	324
2016.75	364
2018.77	316
2020.78	324
2022.8	340
2024.81	338
2026.83	328
2028.84	330
2030.85	322
2032.86	340
2034.87	324
2036.88	328
2038.89	334
2040.9	326
2042.91	332
2044.91	346
2046.92	324
2048.93	340
2050.93	328
2052.94	326
2054.94	340
2056.95	328
2058.95	336
2060.95	338
2062.95	326
2064.96	328
2066.96	340
2068.96	342
2070.96	320
2072.96	348
2074.95	334
2076.95	338
2078.95	354
2080.95	332
2082.94	344
2084.94	336
2086.93	340
2088.93	330
2090.92	342
2092.91	358
2094.91	350
2096.9	350
2098.89	342
2100.88	350
2102.87	358
2104.86	358
2106.85	320
2108.84	344
2110.83	334
2112.81	338
2114.8	346
2116.78	344
2118.77	346
2120.75	348
2122.74	330
2124.72	346
2126.71	362
2128.69	352
2130.67	362
2132.65	336
2134.63	354
2136.61	336
2138.59	324
2140.57	354
2142.55	348
2144.53	342
2146.5	348
2148.48	362
2150.46	330
2152.43	352
2154.41	354
2156.38	356
2158.35	356
2160.33	362
2162.3	328
2164.27	326
2166.24	342
2168.21	350
2170.18	338
2172.15	350
2174.12	332
2176.09	334
2178.06	364
2180.03	348
2181.99	360
2183.96	330
2185.92	354
2187.89	336
2189.85	346
2191.82	354
2193.78	338
2195.74	368
2197.7	338
2199.67	356
2201.63	364
2203.59	346
2205.55	352
2207.51	342
2209.46	354
2211.42	352
2213.38	352
2215.34	334
2217.29	348
2219.25	362
2221.2	324
2223.16	352
2225.11	364
2227.06	342
2229.02	368
2230.97	342
2232.92	356
2234.87	352
2236.82	338
2238.77	354
2240.72	344
2242.67	356
2244.62	350
2246.57	328
2248.51	358
2250.46	354
2252.4	368
2254.35	346
2256.29	356
2258.24	350
2260.18	352
2262.13	370
2264.07	354
2266.01	336
2267.95	340
2269.89	368
2271.83	338
2273.77	344
2275.71	354
2277.65	368
2279.58	356
2281.52	356
2283.46	354
2285.4	356
2287.33	352
2289.27	344
2291.2	378
2293.13	372
2295.07	358
2297	352
2298.93	354
2300.86	360
2302.79	352
2304.72	374
2306.65	372
2308.58	372
2310.51	370
2312.44	350
2314.37	378
2316.29	378
2318.22	362
2320.15	360
2322.07	362
2324	370
2325.92	356
2327.84	368
2329.77	356
2331.69	352
2333.61	348
2335.53	354
2337.45	368
2339.37	362
2341.29	364
2343.21	358
2345.13	352
2347.05	360
2348.97	370
2350.88	352
2352.8	362
2354.71	358
2356.63	368
2358.54	360
2360.46	358
2362.37	370
2364.28	372
2366.2	376
2368.11	382
2370.02	364
2371.93	372
2373.84	348
2375.75	372
2377.66	354
2379.57	364
2381.47	356
2383.38	380
2385.29	358
2387.2	360
2389.1	368
2391.01	368
2392.91	348
2394.81	342
2396.72	370
2398.62	390
2400.52	376
2402.42	364
2404.33	364
2406.23	368
2408.13	356
2410.03	364
2411.92	382
2413.82	390
2415.72	390
2417.62	362
2419.51	358
2421.41	382
2423.31	370
2425.2	352
2427.1	376
2428.99	370
2430.88	372
2432.78	368
2434.67	370
2436.56	380
2438.45	386
2440.34	360
2442.23	372
2444.12	386
2446.01	372
2447.9	398
2449.79	394