File: Jesse_Dataset_v2/Pure Raman/Polystyrene/633nm/ps-ppo-7jan25-1,0000-map3_Y08_X03.txt
182.393	1034
184.993	978
187.593	994
190.193	986
192.79	912
195.387	948
197.983	956
200.578	932
203.174	946
205.766	974
208.36	1002
210.951	1040
213.542	1032
216.131	1080
218.721	1070
221.309	1064
223.897	1076
226.483	1052
229.069	1012
231.654	936
234.238	828
236.821	744
239.404	678
241.984	596
244.566	522
247.145	468
249.723	402
252.302	394
254.878	402
257.455	374
260.03	362
262.604	350
265.178	354
267.75	332
270.322	330
272.893	312
275.463	328
278.032	326
280.601	306
283.168	292
285.734	284
288.301	272
290.866	274
293.429	256
295.992	260
298.556	246
301.117	242
303.677	242
306.236	246
308.795	230
311.354	228
313.911	248
316.467	226
319.022	244
321.577	260
324.13	236
326.684	240
329.236	242
331.787	248
334.337	260
336.887	240
339.435	224
341.983	230
344.529	240
347.075	246
349.621	220
352.165	238
354.708	224
357.251	220
359.793	228
362.334	216
364.874	230
367.413	216
369.951	212
372.489	230
375.026	238
377.562	236
380.097	248
382.631	256
385.164	272
387.697	262
390.229	274
392.76	260
395.29	296
397.819	288
400.346	290
402.873	320
405.4	342
407.926	366
410.451	358
412.976	328
415.499	298
418.02	278
420.542	276
423.063	258
425.583	260
428.101	244
430.619	254
433.137	228
435.654	220
438.169	222
440.684	238
443.198	230
445.712	218
448.223	220
450.735	220
453.246	198
455.755	194
458.264	198
460.771	174
463.279	182
465.786	194
468.291	180
470.796	198
473.301	174
475.803	180
478.306	166
480.807	178
483.308	184
485.807	188
488.307	168
490.804	172
493.302	186
495.798	178
498.294	180
500.788	194
503.283	188
505.775	188
508.269	210
510.759	198
513.251	194
515.74	184
518.23	198
520.718	204
523.204	188
525.692	206
528.177	228
530.663	226
533.147	214
535.629	244
538.113	254
540.594	278
543.074	268
545.555	268
548.034	260
550.512	268
552.989	274
555.467	246
557.942	268
560.417	240
562.892	232
565.365	244
567.838	244
570.309	250
572.78	252
575.251	252
577.72	262
580.189	250
582.656	238
585.123	222
587.589	206
590.055	212
592.52	216
594.983	218
597.446	214
599.908	214
602.369	230
604.829	230
607.289	268
609.747	280
612.205	276
614.663	310
617.119	412
619.574	704
622.029	1132
624.483	962
626.936	522
629.389	344
631.84	276
634.291	256
636.741	234
639.19	208
641.639	194
644.086	186
646.533	192
648.979	166
651.424	176
653.869	178
656.313	182
658.754	172
661.196	174
663.638	166
666.078	178
668.518	162
670.957	174
673.394	162
675.831	176
678.268	174
680.703	164
683.137	166
685.571	164
688.005	174
690.437	174
692.868	184
695.299	178
697.729	188
700.159	202
702.586	192
705.014	212
707.441	212
709.866	206
712.292	216
714.716	202
717.14	204
719.563	202
721.984	238
724.406	274
726.825	308
729.246	288
731.665	276
734.082	272
736.5	294
738.916	324
741.332	356
743.746	384
746.161	374
748.574	382
750.987	390
753.398	430
755.81	432
758.219	474
760.629	478
763.037	488
765.445	474
767.852	458
770.258	438
772.664	424
775.068	416
777.472	428
779.876	438
782.278	464
784.679	500
787.08	554
789.48	566
791.879	636
794.278	682
796.675	692
799.072	644
801.467	620
803.864	562
806.258	470
808.651	424
811.044	386
813.437	360
815.828	328
818.218	300
820.608	294
822.997	270
825.385	268
827.773	264
830.16	254
832.546	278
834.931	290
837.315	312
839.699	344
842.081	370
844.463	354
846.844	344
849.226	320
851.606	310
853.985	300
856.363	300
858.741	282
861.117	310
863.493	294
865.868	276
868.243	296
870.616	278
872.989	292
875.36	300
877.731	292
880.102	282
882.472	292
884.841	266
887.209	272
889.577	274
891.944	256
894.31	296
896.674	276
899.039	290
901.403	318
903.766	338
906.128	346
908.49	340
910.849	334
913.209	324
915.569	300
917.927	288
920.284	266
922.641	268
924.997	252
927.353	242
929.707	238
932.061	236
934.414	252
936.765	248
939.117	236
941.469	242
943.818	260
946.167	270
948.515	238
950.863	262
953.211	282
955.556	272
957.902	268
960.246	268
962.59	300
964.933	304
967.276	320
969.617	312
971.958	304
974.298	338
976.638	352
978.976	378
981.314	458
983.651	514
985.988	604
988.323	764
990.659	1160
992.992	1734
995.325	1906
997.658	2328
999.99	4190
1002.32	6592
1004.65	6122
1006.98	3434
1009.31	1518
1011.64	820
1013.97	568
1016.29	496
1018.62	450
1020.94	498
1023.27	634
1025.59	812
1027.91	1158
1030.24	1656
1032.56	1934
1034.88	1906
1037.2	1398
1039.52	974
1041.84	660
1044.15	536
1046.47	460
1048.79	452
1051.1	384
1053.42	412
1055.73	384
1058.04	368
1060.36	390
1062.67	396
1064.98	394
1067.29	404
1069.6	436
1071.91	434
1074.22	430
1076.52	428
1078.83	414
1081.14	414
1083.44	400
1085.75	420
1088.05	416
1090.35	400
1092.65	418
1094.95	422
1097.26	424
1099.56	422
1101.86	418
1104.15	406
1106.45	390
1108.75	352
1111.05	336
1113.34	322
1115.64	326
1117.93	328
1120.22	286
1122.52	286
1124.81	278
1127.1	270
1129.39	260
1131.68	270
1133.97	266
1136.26	270
1138.54	280
1140.83	312
1143.12	324
1145.4	360
1147.69	392
1149.97	478
1152.25	640
1154.54	858
1156.82	946
1159.1	874
1161.38	688
1163.66	564
1165.94	484
1168.22	502
1170.49	486
1172.77	540
1175.05	624
1177.32	766
1179.6	962
1181.87	1108
1184.14	1208
1186.42	1108
1188.69	1018
1190.96	1048
1193.23	1136
1195.5	1208
1197.77	1234
1200.03	1178
1202.3	1146
1204.57	1086
1206.83	952
1209.1	804
1211.36	712
1213.63	614
1215.89	532
1218.15	464
1220.41	478
1222.67	450
1224.93	456
1227.19	430
1229.45	418
1231.71	390
1233.97	370
1236.22	358
1238.48	374
1240.73	350
1242.99	346
1245.24	348
1247.5	346
1249.75	354
1252	346
1254.25	348
1256.5	346
1258.75	354
1261	332
1263.25	346
1265.49	348
1267.74	328
1269.99	330
1272.23	330
1274.48	324
1276.72	330
1278.96	352
1281.21	330
1283.45	350
1285.69	334
1287.93	342
1290.17	350
1292.41	346
1294.64	376
1296.88	394
1299.12	366
1301.36	406
1303.59	412
1305.82	400
1308.06	406
1310.29	418
1312.52	422
1314.76	436
1316.99	450
1319.22	454
1321.45	494
1323.68	496
1325.9	524
1328.13	538
1330.36	518
1332.58	498
1334.81	500
1337.04	478
1339.26	456
1341.48	432
1343.71	390
1345.93	398
1348.15	380
1350.37	364
1352.59	352
1354.81	348
1357.03	342
1359.24	328
1361.46	342
1363.68	368
1365.89	376
1368.11	358
1370.32	364
1372.54	384
1374.75	378
1376.96	366
1379.17	342
1381.38	328
1383.59	294
1385.8	324
1388.01	270
1390.22	274
1392.43	274
1394.63	266
1396.84	264
1399.05	264
1401.25	266
1403.45	266
1405.66	274
1407.86	254
1410.06	258
1412.26	254
1414.46	256
1416.66	258
1418.86	258
1421.06	258
1423.26	254
1425.46	270
1427.65	272
1429.85	276
1432.04	276
1434.24	316
1436.43	344
1438.62	378
1440.82	420
1443.01	478
1445.2	526
1447.39	562
1449.58	606
1451.77	580
1453.95	606
1456.14	518
1458.33	454
1460.52	362
1462.7	332
1464.89	298
1467.07	290
1469.25	268
1471.44	286
1473.62	270
1475.8	262
1477.98	268
1480.16	266
1482.34	282
1484.52	280
1486.7	256
1488.87	264
1491.05	268
1493.23	282
1495.4	280
1497.58	292
1499.75	276
1501.92	270
1504.1	248
1506.27	256
1508.44	250
1510.61	248
1512.78	264
1514.95	252
1517.12	262
1519.28	256
1521.45	268
1523.62	244
1525.78	266
1527.95	262
1530.11	282
1532.28	248
1534.44	270
1536.6	260
1538.76	272
1540.93	268
1543.09	288
1545.25	288
1547.41	260
1549.56	276
1551.72	268
1553.88	272
1556.03	274
1558.19	280
1560.35	286
1562.5	304
1564.65	304
1566.81	298
1568.96	312
1571.11	336
1573.26	362
1575.41	414
1577.56	480
1579.71	568
1581.86	802
1584.01	1000
1586.15	904
1588.3	690
1590.45	590
1592.59	564
1594.74	670
1596.88	866
1599.02	1196
1601.17	1656
1603.31	1876
1605.45	1710
1607.59	1308
1609.73	900
1611.87	656
1614.01	532
1616.14	476
1618.28	394
1620.42	382
1622.55	382
1624.69	346
1626.82	332
1628.96	314
1631.09	298
1633.22	304
1635.36	302
1637.49	318
1639.62	292
1641.75	324
1643.88	324
1646	330
1648.13	348
1650.26	344
1652.39	332
1654.51	316
1656.64	288
1658.76	280
1660.89	286
1663.01	290
1665.13	284
1667.26	282
1669.38	272
1671.5	280
1673.62	278
1675.74	286
1677.86	280
1679.97	284
1682.09	298
1684.21	276
1686.33	274
1688.44	296
1690.56	298
1692.67	284
1694.78	272
1696.9	274
1699.01	268
1701.12	282
1703.23	270
1705.34	274
1707.45	272
1709.56	286
1711.67	264
1713.78	268
1715.88	266
1717.99	268
1720.1	276
1722.2	284
1724.31	266
1726.41	266
1728.51	278
1730.62	272
1732.72	268
1734.82	272
1736.92	288
1739.02	292
1741.12	274
1743.22	278
1745.32	262
1747.42	280
1749.51	288
1751.61	282
1753.7	276
1755.8	270
1757.89	276
1759.99	266
1762.08	262
1764.17	272
1766.26	282
1768.36	284
1770.45	272
1772.54	278
1774.62	280
1776.71	276
1778.8	266
1780.89	274
1782.98	284
1785.06	282
1787.15	266
1789.23	270
1791.32	268
1793.4	286
1795.48	280
1797.56	292
1799.65	282
1801.73	292
1803.81	286
1805.89	282
1807.97	284
1810.04	298
1812.12	292
1814.2	304
1816.28	286
1818.35	284
1820.43	300
1822.5	286
1824.58	280
1826.65	260
1828.72	272
1830.79	292
1832.86	290
1834.94	284
1837.01	274
1839.08	280
1841.15	266
1843.21	282
1845.28	270
1847.35	302
1849.41	282
1851.48	286
1853.55	290
1855.61	272
1857.67	288
1859.74	306
1861.8	286
1863.86	270
1865.92	282
1867.98	278
1870.05	268
1872.1	284
1874.16	276
1876.22	292
1878.28	290
1880.34	280
1882.39	290
1884.45	304
1886.5	286
1888.56	294
1890.61	284
1892.67	268
1894.72	286
1896.77	302
1898.82	274
1900.87	300
1902.92	282
1904.97	280
1907.02	288
1909.07	296
1911.12	302
1913.17	312
1915.21	298
1917.26	304
1919.3	308
1921.35	304
1923.39	306
1925.43	308
1927.48	282
1929.52	300
1931.56	306
1933.6	300
1935.64	294
1937.68	296
1939.72	290
1941.76	300
1943.8	302
1945.83	290
1947.87	302
1949.91	296
1951.94	304
1953.98	304
1956.01	310
1958.05	286
1960.08	294
1962.11	308
1964.14	302
1966.17	310
1968.2	284
1970.23	310
1972.26	292
1974.29	284
1976.32	286
1978.35	296
1980.37	302
1982.4	292
1984.43	306
1986.45	286
1988.48	292
1990.5	298
1992.52	302
1994.55	302
1996.57	306
1998.59	308
2000.61	288
2002.63	300
2004.65	306
2006.67	312
2008.69	300
2010.7	306
2012.72	310
2014.74	304
2016.75	298
2018.77	294
2020.78	318
2022.8	300
2024.81	302
2026.83	302
2028.84	298
2030.85	306
2032.86	294
2034.87	304
2036.88	324
2038.89	320
2040.9	310
2042.91	308
2044.91	306
2046.92	298
2048.93	304
2050.93	312
2052.94	310
2054.94	312
2056.95	318
2058.95	306
2060.95	310
2062.95	314
2064.96	324
2066.96	316
2068.96	314
2070.96	306
2072.96	316
2074.95	308
2076.95	282
2078.95	314
2080.95	302
2082.94	312
2084.94	308
2086.93	312
2088.93	296
2090.92	322
2092.91	318
2094.91	314
2096.9	306
2098.89	308
2100.88	310
2102.87	322
2104.86	308
2106.85	308
2108.84	312
2110.83	306
2112.81	318
2114.8	318
2116.78	324
2118.77	316
2120.75	292
2122.74	314
2124.72	284
2126.71	310
2128.69	328
2130.67	300
2132.65	322
2134.63	316
2136.61	336
2138.59	322
2140.57	310
2142.55	308
2144.53	298
2146.5	324
2148.48	330
2150.46	316
2152.43	334
2154.41	314
2156.38	302
2158.35	330
2160.33	322
2162.3	326
2164.27	316
2166.24	304
2168.21	336
2170.18	314
2172.15	326
2174.12	302
2176.09	324
2178.06	310
2180.03	298
2181.99	318
2183.96	316
2185.92	326
2187.89	324
2189.85	316
2191.82	324
2193.78	330
2195.74	330
2197.7	342
2199.67	334
2201.63	334
2203.59	334
2205.55	324
2207.51	322
2209.46	326
2211.42	318
2213.38	330
2215.34	316
2217.29	322
2219.25	324
2221.2	330
2223.16	320
2225.11	328
2227.06	326
2229.02	332
2230.97	310
2232.92	322
2234.87	326
2236.82	328
2238.77	320
2240.72	334
2242.67	334
2244.62	320
2246.57	322
2248.51	324
2250.46	330
2252.4	332
2254.35	312
2256.29	308
2258.24	328
2260.18	328
2262.13	334
2264.07	308
2266.01	326
2267.95	350
2269.89	314
2271.83	336
2273.77	334
2275.71	334
2277.65	346
2279.58	332
2281.52	330
2283.46	314
2285.4	326
2287.33	332
2289.27	324
2291.2	322
2293.13	326
2295.07	324
2297	324
2298.93	338
2300.86	332
2302.79	342
2304.72	332
2306.65	340
2308.58	350
2310.51	332
2312.44	336
2314.37	338
2316.29	348
2318.22	340
2320.15	340
2322.07	330
2324	328
2325.92	322
2327.84	310
2329.77	336
2331.69	330
2333.61	328
2335.53	340
2337.45	340
2339.37	350
2341.29	326
2343.21	346
2345.13	322
2347.05	318
2348.97	344
2350.88	322
2352.8	332
2354.71	328
2356.63	318
2358.54	332
2360.46	334
2362.37	350
2364.28	334
2366.2	348
2368.11	328
2370.02	344
2371.93	328
2373.84	338
2375.75	320
2377.66	334
2379.57	332
2381.47	328
2383.38	330
2385.29	340
2387.2	350
2389.1	326
2391.01	326
2392.91	352
2394.81	320
2396.72	336
2398.62	334
2400.52	336
2402.42	340
2404.33	342
2406.23	332
2408.13	332
2410.03	350
2411.92	332
2413.82	326
2415.72	336
2417.62	360
2419.51	340
2421.41	340
2423.31	352
2425.2	346
2427.1	352
2428.99	350
2430.88	340
2432.78	340
2434.67	364
2436.56	326
2438.45	340
2440.34	344
2442.23	344
2444.12	342
2446.01	352
2447.9	350
2449.79	370