File: Jesse_Dataset_v2/Pure Raman/Polystyrene/633nm/ps-ppo-7jan25-1,0000-map3_Y05_X02.txt
182.393	1046
184.993	986
187.593	942
190.193	974
192.79	924
195.387	940
197.983	920
200.578	930
203.174	894
205.766	950
208.36	968
210.951	1012
213.542	1010
216.131	1056
218.721	1078
221.309	1080
223.897	1056
226.483	1010
229.069	1000
231.654	906
234.238	832
236.821	764
239.404	674
241.984	592
244.566	518
247.145	470
249.723	428
252.302	378
254.878	360
257.455	328
260.03	354
262.604	336
265.178	354
267.75	322
270.322	336
272.893	312
275.463	318
278.032	308
280.601	300
283.168	298
285.734	270
288.301	262
290.866	252
293.429	236
295.992	200
298.556	248
301.117	238
303.677	234
306.236	220
308.795	210
311.354	226
313.911	210
316.467	246
319.022	222
321.577	244
324.13	218
326.684	244
329.236	232
331.787	230
334.337	234
336.887	234
339.435	230
341.983	218
344.529	212
347.075	208
349.621	222
352.165	212
354.708	220
357.251	220
359.793	212
362.334	208
364.874	212
367.413	208
369.951	220
372.489	220
375.026	222
377.562	234
380.097	228
382.631	242
385.164	250
387.697	254
390.229	258
392.76	262
395.29	268
397.819	272
400.346	276
402.873	318
405.4	326
407.926	340
410.451	324
412.976	310
415.499	306
418.02	288
420.542	262
423.063	260
425.583	252
428.101	238
430.619	228
433.137	244
435.654	210
438.169	212
440.684	210
443.198	226
445.712	208
448.223	204
450.735	180
453.246	192
455.755	182
458.264	180
460.771	180
463.279	172
465.786	174
468.291	180
470.796	170
473.301	176
475.803	162
478.306	168
480.807	166
483.308	156
485.807	160
488.307	162
490.804	166
493.302	172
495.798	178
498.294	170
500.788	164
503.283	198
505.775	180
508.269	180
510.759	172
513.251	176
515.74	194
518.23	186
520.718	188
523.204	196
525.692	190
528.177	200
530.663	216
533.147	214
535.629	224
538.113	248
540.594	254
543.074	248
545.555	258
548.034	250
550.512	272
552.989	256
555.467	246
557.942	244
560.417	244
562.892	222
565.365	230
567.838	238
570.309	252
572.78	244
575.251	256
577.72	238
580.189	214
582.656	208
585.123	216
587.589	194
590.055	208
592.52	198
594.983	206
597.446	206
599.908	210
602.369	206
604.829	220
607.289	236
609.747	284
612.205	266
614.663	296
617.119	398
619.574	682
622.029	1126
624.483	968
626.936	538
629.389	340
631.84	262
634.291	250
636.741	202
639.19	188
641.639	196
644.086	166
646.533	184
648.979	170
651.424	162
653.869	160
656.313	170
658.754	152
661.196	158
663.638	164
666.078	166
668.518	172
670.957	142
673.394	150
675.831	180
678.268	162
680.703	158
683.137	172
685.571	168
688.005	170
690.437	176
692.868	164
695.299	160
697.729	180
700.159	178
702.586	196
705.014	210
707.441	206
709.866	200
712.292	194
714.716	210
717.14	200
719.563	198
721.984	246
724.406	268
726.825	312
729.246	296
731.665	258
734.082	266
736.5	286
738.916	318
741.332	342
743.746	370
746.161	386
748.574	388
750.987	368
753.398	428
755.81	456
758.219	460
760.629	462
763.037	462
765.445	454
767.852	444
770.258	442
772.664	420
775.068	420
777.472	432
779.876	414
782.278	452
784.679	480
787.08	538
789.48	600
791.879	620
794.278	662
796.675	698
799.072	648
801.467	604
803.864	546
806.258	470
808.651	418
811.044	384
813.437	374
815.828	344
818.218	314
820.608	294
822.997	278
825.385	258
827.773	234
830.16	268
832.546	260
834.931	284
837.315	314
839.699	354
842.081	336
844.463	372
846.844	368
849.226	338
851.606	308
853.985	302
856.363	286
858.741	280
861.117	274
863.493	294
865.868	292
868.243	298
870.616	296
872.989	300
875.36	274
877.731	266
880.102	282
882.472	262
884.841	260
887.209	280
889.577	268
891.944	250
894.31	264
896.674	264
899.039	274
901.403	292
903.766	336
906.128	358
908.49	360
910.849	326
913.209	296
915.569	308
917.927	276
920.284	234
922.641	254
924.997	248
927.353	244
929.707	254
932.061	230
934.414	242
936.765	222
939.117	248
941.469	228
943.818	270
946.167	266
948.515	276
950.863	264
953.211	248
955.556	266
957.902	276
960.246	280
962.59	296
964.933	316
967.276	326
969.617	326
971.958	336
974.298	334
976.638	350
978.976	404
981.314	442
983.651	526
985.988	582
988.323	758
990.659	1194
992.992	1732
995.325	1904
997.658	2330
999.99	4164
1002.32	6602
1004.65	6132
1006.98	3344
1009.31	1548
1011.64	798
1013.97	566
1016.29	468
1018.62	448
1020.94	504
1023.27	630
1025.59	840
1027.91	1214
1030.24	1626
1032.56	1948
1034.88	1920
1037.2	1394
1039.52	968
1041.84	708
1044.15	576
1046.47	478
1048.79	418
1051.1	406
1053.42	390
1055.73	392
1058.04	386
1060.36	382
1062.67	404
1064.98	422
1067.29	418
1069.6	438
1071.91	436
1074.22	428
1076.52	436
1078.83	434
1081.14	404
1083.44	422
1085.75	404
1088.05	432
1090.35	416
1092.65	424
1094.95	408
1097.26	444
1099.56	428
1101.86	424
1104.15	404
1106.45	380
1108.75	350
1111.05	362
1113.34	320
1115.64	324
1117.93	294
1120.22	308
1122.52	296
1124.81	264
1127.1	258
1129.39	276
1131.68	266
1133.97	284
1136.26	258
1138.54	294
1140.83	324
1143.12	318
1145.4	372
1147.69	410
1149.97	502
1152.25	684
1154.54	862
1156.82	956
1159.1	856
1161.38	668
1163.66	584
1165.94	490
1168.22	482
1170.49	478
1172.77	552
1175.05	600
1177.32	760
1179.6	948
1181.87	1188
1184.14	1194
1186.42	1102
1188.69	1028
1190.96	1064
1193.23	1136
1195.5	1184
1197.77	1246
1200.03	1182
1202.3	1136
1204.57	1042
1206.83	958
1209.1	854
1211.36	702
1213.63	624
1215.89	556
1218.15	502
1220.41	486
1222.67	456
1224.93	458
1227.19	450
1229.45	426
1231.71	418
1233.97	386
1236.22	364
1238.48	358
1240.73	358
1242.99	350
1245.24	356
1247.5	382
1249.75	376
1252	368
1254.25	360
1256.5	358
1258.75	344
1261	358
1263.25	358
1265.49	342
1267.74	366
1269.99	328
1272.23	342
1274.48	344
1276.72	350
1278.96	340
1281.21	320
1283.45	332
1285.69	330
1287.93	348
1290.17	352
1292.41	378
1294.64	392
1296.88	394
1299.12	398
1301.36	402
1303.59	416
1305.82	434
1308.06	418
1310.29	436
1312.52	422
1314.76	424
1316.99	438
1319.22	454
1321.45	496
1323.68	510
1325.9	524
1328.13	548
1330.36	538
1332.58	532
1334.81	532
1337.04	498
1339.26	462
1341.48	430
1343.71	400
1345.93	396
1348.15	368
1350.37	380
1352.59	360
1354.81	370
1357.03	378
1359.24	378
1361.46	374
1363.68	380
1365.89	370
1368.11	372
1370.32	376
1372.54	380
1374.75	372
1376.96	404
1379.17	342
1381.38	346
1383.59	334
1385.8	312
1388.01	266
1390.22	292
1392.43	284
1394.63	260
1396.84	272
1399.05	284
1401.25	292
1403.45	280
1405.66	280
1407.86	260
1410.06	272
1412.26	290
1414.46	262
1416.66	280
1418.86	254
1421.06	250
1423.26	264
1425.46	288
1427.65	284
1429.85	282
1432.04	276
1434.24	316
1436.43	376
1438.62	404
1440.82	436
1443.01	482
1445.2	534
1447.39	600
1449.58	602
1451.77	596
1453.95	582
1456.14	550
1458.33	434
1460.52	394
1462.7	346
1464.89	314
1467.07	290
1469.25	282
1471.44	274
1473.62	282
1475.8	278
1477.98	282
1480.16	284
1482.34	276
1484.52	258
1486.7	282
1488.87	274
1491.05	294
1493.23	294
1495.4	284
1497.58	296
1499.75	288
1501.92	262
1504.1	268
1506.27	282
1508.44	248
1510.61	256
1512.78	282
1514.95	258
1517.12	272
1519.28	264
1521.45	268
1523.62	262
1525.78	270
1527.95	260
1530.11	280
1532.28	272
1534.44	276
1536.6	270
1538.76	272
1540.93	274
1543.09	292
1545.25	264
1547.41	252
1549.56	284
1551.72	280
1553.88	276
1556.03	298
1558.19	250
1560.35	302
1562.5	298
1564.65	312
1566.81	318
1568.96	318
1571.11	362
1573.26	400
1575.41	422
1577.56	466
1579.71	598
1581.86	812
1584.01	1024
1586.15	864
1588.3	702
1590.45	598
1592.59	634
1594.74	702
1596.88	860
1599.02	1232
1601.17	1636
1603.31	1912
1605.45	1694
1607.59	1282
1609.73	910
1611.87	666
1614.01	558
1616.14	500
1618.28	454
1620.42	398
1622.55	390
1624.69	358
1626.82	360
1628.96	352
1631.09	318
1633.22	328
1635.36	304
1637.49	330
1639.62	324
1641.75	320
1643.88	338
1646	338
1648.13	352
1650.26	358
1652.39	350
1654.51	310
1656.64	298
1658.76	304
1660.89	308
1663.01	296
1665.13	284
1667.26	282
1669.38	310
1671.5	290
1673.62	294
1675.74	304
1677.86	280
1679.97	300
1682.09	298
1684.21	260
1686.33	302
1688.44	298
1690.56	306
1692.67	286
1694.78	320
1696.9	290
1699.01	280
1701.12	272
1703.23	294
1705.34	288
1707.45	290
1709.56	282
1711.67	290
1713.78	280
1715.88	292
1717.99	284
1720.1	272
1722.2	280
1724.31	298
1726.41	278
1728.51	296
1730.62	310
1732.72	302
1734.82	292
1736.92	294
1739.02	278
1741.12	280
1743.22	286
1745.32	296
1747.42	284
1749.51	282
1751.61	288
1753.7	288
1755.8	266
1757.89	300
1759.99	306
1762.08	276
1764.17	282
1766.26	282
1768.36	292
1770.45	282
1772.54	294
1774.62	290
1776.71	294
1778.8	282
1780.89	288
1782.98	288
1785.06	278
1787.15	284
1789.23	288
1791.32	280
1793.4	274
1795.48	306
1797.56	296
1799.65	286
1801.73	292
1803.81	292
1805.89	286
1807.97	320
1810.04	290
1812.12	298
1814.2	286
1816.28	284
1818.35	306
1820.43	290
1822.5	292
1824.58	308
1826.65	292
1828.72	302
1830.79	292
1832.86	284
1834.94	300
1837.01	288
1839.08	280
1841.15	312
1843.21	286
1845.28	296
1847.35	296
1849.41	300
1851.48	278
1853.55	290
1855.61	304
1857.67	306
1859.74	282
1861.8	300
1863.86	296
1865.92	292
1867.98	286
1870.05	290
1872.1	276
1874.16	302
1876.22	314
1878.28	294
1880.34	288
1882.39	308
1884.45	300
1886.5	286
1888.56	292
1890.61	310
1892.67	294
1894.72	264
1896.77	308
1898.82	312
1900.87	304
1902.92	290
1904.97	302
1907.02	304
1909.07	306
1911.12	310
1913.17	314
1915.21	304
1917.26	298
1919.3	318
1921.35	294
1923.39	322
1925.43	298
1927.48	300
1929.52	310
1931.56	288
1933.6	300
1935.64	300
1937.68	314
1939.72	310
1941.76	302
1943.8	312
1945.83	326
1947.87	316
1949.91	324
1951.94	308
1953.98	300
1956.01	340
1958.05	328
1960.08	290
1962.11	324
1964.14	312
1966.17	324
1968.2	326
1970.23	332
1972.26	318
1974.29	308
1976.32	312
1978.35	292
1980.37	310
1982.4	322
1984.43	294
1986.45	290
1988.48	312
1990.5	308
1992.52	312
1994.55	292
1996.57	318
1998.59	322
2000.61	310
2002.63	316
2004.65	314
2006.67	312
2008.69	300
2010.7	314
2012.72	302
2014.74	308
2016.75	316
2018.77	314
2020.78	314
2022.8	322
2024.81	314
2026.83	336
2028.84	308
2030.85	304
2032.86	322
2034.87	336
2036.88	330
2038.89	316
2040.9	310
2042.91	312
2044.91	332
2046.92	306
2048.93	326
2050.93	334
2052.94	324
2054.94	318
2056.95	328
2058.95	326
2060.95	330
2062.95	322
2064.96	320
2066.96	336
2068.96	336
2070.96	314
2072.96	320
2074.95	344
2076.95	324
2078.95	318
2080.95	322
2082.94	330
2084.94	332
2086.93	322
2088.93	310
2090.92	328
2092.91	330
2094.91	312
2096.9	342
2098.89	314
2100.88	330
2102.87	310
2104.86	312
2106.85	310
2108.84	314
2110.83	340
2112.81	318
2114.8	334
2116.78	342
2118.77	332
2120.75	324
2122.74	332
2124.72	310
2126.71	314
2128.69	328
2130.67	336
2132.65	330
2134.63	322
2136.61	326
2138.59	338
2140.57	342
2142.55	350
2144.53	336
2146.5	320
2148.48	326
2150.46	308
2152.43	348
2154.41	346
2156.38	344
2158.35	338
2160.33	340
2162.3	322
2164.27	336
2166.24	340
2168.21	352
2170.18	334
2172.15	346
2174.12	316
2176.09	326
2178.06	344
2180.03	324
2181.99	328
2183.96	340
2185.92	300
2187.89	334
2189.85	340
2191.82	348
2193.78	334
2195.74	312
2197.7	316
2199.67	346
2201.63	332
2203.59	332
2205.55	332
2207.51	346
2209.46	332
2211.42	336
2213.38	322
2215.34	336
2217.29	340
2219.25	332
2221.2	334
2223.16	340
2225.11	346
2227.06	320
2229.02	340
2230.97	324
2232.92	332
2234.87	350
2236.82	326
2238.77	350
2240.72	360
2242.67	342
2244.62	314
2246.57	348
2248.51	336
2250.46	346
2252.4	354
2254.35	348
2256.29	350
2258.24	318
2260.18	320
2262.13	342
2264.07	340
2266.01	342
2267.95	324
2269.89	328
2271.83	342
2273.77	338
2275.71	334
2277.65	348
2279.58	334
2281.52	336
2283.46	332
2285.4	326
2287.33	348
2289.27	338
2291.2	334
2293.13	354
2295.07	360
2297	356
2298.93	344
2300.86	346
2302.79	358
2304.72	344
2306.65	354
2308.58	354
2310.51	356
2312.44	358
2314.37	358
2316.29	346
2318.22	338
2320.15	338
2322.07	342
2324	334
2325.92	366
2327.84	338
2329.77	352
2331.69	358
2333.61	356
2335.53	336
2337.45	330
2339.37	362
2341.29	332
2343.21	358
2345.13	346
2347.05	332
2348.97	362
2350.88	352
2352.8	342
2354.71	364
2356.63	350
2358.54	352
2360.46	356
2362.37	358
2364.28	322
2366.2	366
2368.11	366
2370.02	348
2371.93	356
2373.84	354
2375.75	340
2377.66	370
2379.57	356
2381.47	346
2383.38	354
2385.29	332
2387.2	322
2389.1	346
2391.01	324
2392.91	348
2394.81	358
2396.72	340
2398.62	332
2400.52	324
2402.42	348
2404.33	338
2406.23	340
2408.13	350
2410.03	346
2411.92	368
2413.82	348
2415.72	342
2417.62	350
2419.51	340
2421.41	346
2423.31	358
2425.2	342
2427.1	342
2428.99	376
2430.88	340
2432.78	364
2434.67	350
2436.56	352
2438.45	344
2440.34	366
2442.23	362
2444.12	378
2446.01	354
2447.9	372
2449.79	364