File: Jesse_Dataset_v2/Pure Raman/Polystyrene/633nm/ps-ppo-7jan25-1,0000-map3_Y00_X01.txt
182.393	1040
184.993	1010
187.593	986
190.193	1002
192.79	974
195.387	952
197.983	1014
200.578	962
203.174	968
205.766	964
208.36	998
210.951	1026
213.542	1090
216.131	1066
218.721	1070
221.309	1122
223.897	1090
226.483	1042
229.069	1038
231.654	954
234.238	868
236.821	800
239.404	700
241.984	602
244.566	536
247.145	488
249.723	448
252.302	424
254.878	412
257.455	380
260.03	388
262.604	366
265.178	374
267.75	350
270.322	350
272.893	354
275.463	348
278.032	322
280.601	328
283.168	316
285.734	300
288.301	322
290.866	290
293.429	286
295.992	278
298.556	250
301.117	272
303.677	248
306.236	250
308.795	258
311.354	244
313.911	240
316.467	280
319.022	256
321.577	280
324.13	276
326.684	270
329.236	258
331.787	268
334.337	276
336.887	266
339.435	258
341.983	256
344.529	254
347.075	238
349.621	242
352.165	246
354.708	242
357.251	216
359.793	236
362.334	228
364.874	254
367.413	250
369.951	270
372.489	256
375.026	262
377.562	244
380.097	278
382.631	280
385.164	300
387.697	290
390.229	280
392.76	298
395.29	306
397.819	314
400.346	324
402.873	336
405.4	366
407.926	372
410.451	360
412.976	356
415.499	326
418.02	322
420.542	306
423.063	280
425.583	294
428.101	258
430.619	266
433.137	260
435.654	252
438.169	258
440.684	262
443.198	272
445.712	242
448.223	238
450.735	246
453.246	242
455.755	216
458.264	212
460.771	202
463.279	198
465.786	220
468.291	198
470.796	216
473.301	208
475.803	216
478.306	212
480.807	192
483.308	198
485.807	200
488.307	196
490.804	214
493.302	212
495.798	210
498.294	210
500.788	212
503.283	230
505.775	228
508.269	214
510.759	218
513.251	216
515.74	228
518.23	206
520.718	214
523.204	222
525.692	232
528.177	244
530.663	234
533.147	242
535.629	276
538.113	278
540.594	296
543.074	294
545.555	288
548.034	274
550.512	286
552.989	280
555.467	266
557.942	264
560.417	280
562.892	270
565.365	290
567.838	292
570.309	264
572.78	266
575.251	280
577.72	286
580.189	284
582.656	236
585.123	256
587.589	240
590.055	240
592.52	244
594.983	250
597.446	242
599.908	244
602.369	248
604.829	272
607.289	292
609.747	310
612.205	318
614.663	334
617.119	440
619.574	722
622.029	1112
624.483	1002
626.936	582
629.389	360
631.84	296
634.291	278
636.741	254
639.19	240
641.639	232
644.086	220
646.533	218
648.979	208
651.424	206
653.869	204
656.313	214
658.754	184
661.196	202
663.638	198
666.078	196
668.518	214
670.957	210
673.394	188
675.831	200
678.268	194
680.703	208
683.137	190
685.571	200
688.005	196
690.437	194
692.868	210
695.299	208
697.729	212
700.159	250
702.586	232
705.014	242
707.441	226
709.866	228
712.292	252
714.716	228
717.14	242
719.563	266
721.984	282
724.406	320
726.825	326
729.246	322
731.665	308
734.082	296
736.5	298
738.916	358
741.332	400
743.746	404
746.161	402
748.574	444
750.987	430
753.398	432
755.81	464
758.219	516
760.629	490
763.037	508
765.445	492
767.852	504
770.258	458
772.664	422
775.068	434
777.472	470
779.876	464
782.278	494
784.679	516
787.08	592
789.48	628
791.879	678
794.278	712
796.675	710
799.072	700
801.467	666
803.864	562
806.258	524
808.651	462
811.044	430
813.437	410
815.828	374
818.218	338
820.608	320
822.997	302
825.385	288
827.773	264
830.16	304
832.546	304
834.931	306
837.315	332
839.699	368
842.081	380
844.463	364
846.844	380
849.226	382
851.606	344
853.985	318
856.363	314
858.741	306
861.117	310
863.493	310
865.868	340
868.243	322
870.616	322
872.989	324
875.36	346
877.731	310
880.102	308
882.472	314
884.841	292
887.209	312
889.577	308
891.944	310
894.31	322
896.674	292
899.039	334
901.403	350
903.766	346
906.128	396
908.49	374
910.849	342
913.209	354
915.569	340
917.927	306
920.284	308
922.641	302
924.997	292
927.353	272
929.707	262
932.061	264
934.414	258
936.765	284
939.117	276
941.469	298
943.818	298
946.167	286
948.515	310
950.863	284
953.211	290
955.556	322
957.902	290
960.246	276
962.59	338
964.933	348
967.276	366
969.617	354
971.958	356
974.298	344
976.638	362
978.976	408
981.314	474
983.651	542
985.988	620
988.323	814
990.659	1188
992.992	1790
995.325	1908
997.658	2356
999.99	4176
1002.32	6694
1004.65	6100
1006.98	3470
1009.31	1592
1011.64	888
1013.97	594
1016.29	508
1018.62	468
1020.94	532
1023.27	684
1025.59	872
1027.91	1212
1030.24	1666
1032.56	2014
1034.88	1962
1037.2	1474
1039.52	1022
1041.84	730
1044.15	578
1046.47	520
1048.79	478
1051.1	434
1053.42	406
1055.73	416
1058.04	418
1060.36	412
1062.67	432
1064.98	458
1067.29	450
1069.6	476
1071.91	480
1074.22	490
1076.52	448
1078.83	456
1081.14	442
1083.44	436
1085.75	452
1088.05	448
1090.35	426
1092.65	446
1094.95	450
1097.26	436
1099.56	462
1101.86	470
1104.15	436
1106.45	420
1108.75	392
1111.05	386
1113.34	364
1115.64	352
1117.93	360
1120.22	352
1122.52	304
1124.81	312
1127.1	304
1129.39	306
1131.68	314
1133.97	300
1136.26	306
1138.54	322
1140.83	330
1143.12	366
1145.4	386
1147.69	424
1149.97	510
1152.25	664
1154.54	894
1156.82	1004
1159.1	902
1161.38	756
1163.66	608
1165.94	558
1168.22	512
1170.49	518
1172.77	574
1175.05	642
1177.32	812
1179.6	962
1181.87	1226
1184.14	1220
1186.42	1140
1188.69	1076
1190.96	1100
1193.23	1176
1195.5	1226
1197.77	1276
1200.03	1216
1202.3	1172
1204.57	1084
1206.83	982
1209.1	868
1211.36	762
1213.63	678
1215.89	564
1218.15	526
1220.41	482
1222.67	476
1224.93	488
1227.19	502
1229.45	464
1231.71	424
1233.97	418
1236.22	406
1238.48	392
1240.73	402
1242.99	414
1245.24	388
1247.5	386
1249.75	406
1252	392
1254.25	372
1256.5	402
1258.75	394
1261	368
1263.25	374
1265.49	360
1267.74	378
1269.99	352
1272.23	372
1274.48	376
1276.72	374
1278.96	362
1281.21	358
1283.45	366
1285.69	384
1287.93	382
1290.17	354
1292.41	408
1294.64	418
1296.88	424
1299.12	428
1301.36	420
1303.59	430
1305.82	450
1308.06	438
1310.29	438
1312.52	432
1314.76	446
1316.99	512
1319.22	492
1321.45	506
1323.68	546
1325.9	550
1328.13	552
1330.36	570
1332.58	562
1334.81	536
1337.04	516
1339.26	486
1341.48	464
1343.71	460
1345.93	436
1348.15	416
1350.37	406
1352.59	408
1354.81	380
1357.03	400
1359.24	398
1361.46	396
1363.68	390
1365.89	368
1368.11	410
1370.32	426
1372.54	404
1374.75	418
1376.96	394
1379.17	400
1381.38	376
1383.59	372
1385.8	312
1388.01	326
1390.22	292
1392.43	300
1394.63	300
1396.84	290
1399.05	298
1401.25	302
1403.45	280
1405.66	294
1407.86	300
1410.06	310
1412.26	300
1414.46	294
1416.66	302
1418.86	272
1421.06	292
1423.26	300
1425.46	292
1427.65	294
1429.85	292
1432.04	314
1434.24	364
1436.43	406
1438.62	426
1440.82	466
1443.01	522
1445.2	560
1447.39	608
1449.58	634
1451.77	632
1453.95	614
1456.14	568
1458.33	506
1460.52	402
1462.7	362
1464.89	340
1467.07	338
1469.25	332
1471.44	324
1473.62	334
1475.8	292
1477.98	300
1480.16	296
1482.34	294
1484.52	292
1486.7	300
1488.87	286
1491.05	306
1493.23	324
1495.4	328
1497.58	324
1499.75	290
1501.92	290
1504.1	288
1506.27	284
1508.44	280
1510.61	280
1512.78	304
1514.95	294
1517.12	314
1519.28	298
1521.45	284
1523.62	290
1525.78	314
1527.95	302
1530.11	290
1532.28	306
1534.44	310
1536.6	288
1538.76	320
1540.93	286
1543.09	302
1545.25	296
1547.41	322
1549.56	296
1551.72	312
1553.88	320
1556.03	306
1558.19	316
1560.35	330
1562.5	318
1564.65	344
1566.81	336
1568.96	360
1571.11	364
1573.26	398
1575.41	436
1577.56	490
1579.71	620
1581.86	836
1584.01	1018
1586.15	948
1588.3	758
1590.45	632
1592.59	614
1594.74	730
1596.88	910
1599.02	1196
1601.17	1696
1603.31	1974
1605.45	1776
1607.59	1324
1609.73	916
1611.87	696
1614.01	546
1616.14	492
1618.28	440
1620.42	418
1622.55	396
1624.69	404
1626.82	362
1628.96	372
1631.09	378
1633.22	366
1635.36	362
1637.49	356
1639.62	350
1641.75	346
1643.88	342
1646	368
1648.13	372
1650.26	350
1652.39	364
1654.51	334
1656.64	342
1658.76	316
1660.89	326
1663.01	348
1665.13	322
1667.26	292
1669.38	320
1671.5	296
1673.62	326
1675.74	316
1677.86	304
1679.97	310
1682.09	312
1684.21	318
1686.33	320
1688.44	302
1690.56	302
1692.67	322
1694.78	322
1696.9	298
1699.01	304
1701.12	318
1703.23	322
1705.34	290
1707.45	310
1709.56	294
1711.67	316
1713.78	310
1715.88	318
1717.99	334
1720.1	302
1722.2	304
1724.31	312
1726.41	348
1728.51	314
1730.62	314
1732.72	320
1734.82	304
1736.92	304
1739.02	296
1741.12	302
1743.22	320
1745.32	304
1747.42	304
1749.51	302
1751.61	294
1753.7	298
1755.8	306
1757.89	304
1759.99	308
1762.08	302
1764.17	320
1766.26	306
1768.36	308
1770.45	298
1772.54	308
1774.62	316
1776.71	314
1778.8	322
1780.89	306
1782.98	296
1785.06	286
1787.15	294
1789.23	320
1791.32	312
1793.4	328
1795.48	332
1797.56	314
1799.65	320
1801.73	306
1803.81	310
1805.89	314
1807.97	314
1810.04	320
1812.12	332
1814.2	316
1816.28	322
1818.35	330
1820.43	326
1822.5	326
1824.58	332
1826.65	332
1828.72	334
1830.79	318
1832.86	314
1834.94	304
1837.01	294
1839.08	324
1841.15	334
1843.21	300
1845.28	352
1847.35	326
1849.41	328
1851.48	310
1853.55	326
1855.61	314
1857.67	312
1859.74	306
1861.8	322
1863.86	304
1865.92	298
1867.98	322
1870.05	298
1872.1	318
1874.16	324
1876.22	314
1878.28	324
1880.34	340
1882.39	304
1884.45	312
1886.5	306
1888.56	352
1890.61	314
1892.67	294
1894.72	318
1896.77	320
1898.82	336
1900.87	320
1902.92	306
1904.97	336
1907.02	346
1909.07	334
1911.12	336
1913.17	328
1915.21	334
1917.26	340
1919.3	328
1921.35	314
1923.39	338
1925.43	328
1927.48	354
1929.52	318
1931.56	330
1933.6	312
1935.64	324
1937.68	334
1939.72	344
1941.76	346
1943.8	330
1945.83	348
1947.87	328
1949.91	320
1951.94	332
1953.98	320
1956.01	334
1958.05	306
1960.08	328
1962.11	334
1964.14	320
1966.17	342
1968.2	320
1970.23	332
1972.26	310
1974.29	356
1976.32	324
1978.35	336
1980.37	312
1982.4	320
1984.43	324
1986.45	308
1988.48	308
1990.5	318
1992.52	314
1994.55	324
1996.57	316
1998.59	332
2000.61	330
2002.63	326
2004.65	334
2006.67	342
2008.69	324
2010.7	334
2012.72	328
2014.74	334
2016.75	324
2018.77	342
2020.78	348
2022.8	356
2024.81	328
2026.83	354
2028.84	330
2030.85	358
2032.86	330
2034.87	336
2036.88	310
2038.89	346
2040.9	334
2042.91	346
2044.91	354
2046.92	354
2048.93	344
2050.93	344
2052.94	334
2054.94	338
2056.95	332
2058.95	354
2060.95	352
2062.95	346
2064.96	320
2066.96	344
2068.96	330
2070.96	344
2072.96	344
2074.95	336
2076.95	348
2078.95	344
2080.95	342
2082.94	330
2084.94	352
2086.93	340
2088.93	356
2090.92	360
2092.91	312
2094.91	326
2096.9	352
2098.89	362
2100.88	356
2102.87	340
2104.86	348
2106.85	354
2108.84	332
2110.83	338
2112.81	344
2114.8	326
2116.78	378
2118.77	362
2120.75	362
2122.74	336
2124.72	358
2126.71	348
2128.69	330
2130.67	330
2132.65	350
2134.63	336
2136.61	360
2138.59	328
2140.57	376
2142.55	346
2144.53	330
2146.5	336
2148.48	336
2150.46	336
2152.43	324
2154.41	348
2156.38	354
2158.35	350
2160.33	362
2162.3	356
2164.27	356
2166.24	340
2168.21	352
2170.18	350
2172.15	342
2174.12	332
2176.09	352
2178.06	348
2180.03	368
2181.99	336
2183.96	344
2185.92	344
2187.89	360
2189.85	352
2191.82	340
2193.78	364
2195.74	344
2197.7	354
2199.67	352
2201.63	364
2203.59	332
2205.55	358
2207.51	348
2209.46	372
2211.42	346
2213.38	362
2215.34	342
2217.29	354
2219.25	338
2221.2	332
2223.16	366
2225.11	362
2227.06	352
2229.02	348
2230.97	346
2232.92	342
2234.87	334
2236.82	366
2238.77	344
2240.72	372
2242.67	360
2244.62	354
2246.57	364
2248.51	374
2250.46	342
2252.4	342
2254.35	350
2256.29	358
2258.24	350
2260.18	346
2262.13	356
2264.07	372
2266.01	344
2267.95	360
2269.89	354
2271.83	350
2273.77	354
2275.71	346
2277.65	366
2279.58	342
2281.52	376
2283.46	362
2285.4	346
2287.33	332
2289.27	336
2291.2	346
2293.13	360
2295.07	360
2297	366
2298.93	346
2300.86	344
2302.79	350
2304.72	368
2306.65	360
2308.58	378
2310.51	358
2312.44	370
2314.37	364
2316.29	364
2318.22	370
2320.15	384
2322.07	354
2324	356
2325.92	364
2327.84	348
2329.77	352
2331.69	372
2333.61	352
2335.53	366
2337.45	358
2339.37	366
2341.29	336
2343.21	362
2345.13	390
2347.05	372
2348.97	346
2350.88	374
2352.8	366
2354.71	362
2356.63	350
2358.54	366
2360.46	368
2362.37	370
2364.28	368
2366.2	360
2368.11	382
2370.02	364
2371.93	382
2373.84	376
2375.75	364
2377.66	374
2379.57	360
2381.47	388
2383.38	360
2385.29	360
2387.2	370
2389.1	358
2391.01	356
2392.91	378
2394.81	354
2396.72	364
2398.62	370
2400.52	350
2402.42	394
2404.33	374
2406.23	352
2408.13	368
2410.03	366
2411.92	368
2413.82	370
2415.72	358
2417.62	386
2419.51	368
2421.41	380
2423.31	382
2425.2	338
2427.1	370
2428.99	366
2430.88	354
2432.78	358
2434.67	366
2436.56	368
2438.45	378
2440.34	396
2442.23	368
2444.12	358
2446.01	382
2447.9	372
2449.79	392