File: Jesse_Dataset_v2/Pure Raman/Polystyrene/633nm/ps-ppo-7jan25-1,0000-map3_Y03_X10.txt
182.393	1048
184.993	1034
187.593	998
190.193	958
192.79	966
195.387	954
197.983	968
200.578	990
203.174	1004
205.766	984
208.36	1020
210.951	1038
213.542	1068
216.131	1118
218.721	1120
221.309	1072
223.897	1106
226.483	1090
229.069	1050
231.654	970
234.238	884
236.821	786
239.404	698
241.984	642
244.566	554
247.145	492
249.723	444
252.302	416
254.878	404
257.455	386
260.03	380
262.604	380
265.178	370
267.75	358
270.322	364
272.893	364
275.463	352
278.032	340
280.601	332
283.168	320
285.734	308
288.301	314
290.866	314
293.429	282
295.992	264
298.556	266
301.117	272
303.677	256
306.236	258
308.795	272
311.354	262
313.911	246
316.467	274
319.022	246
321.577	272
324.13	278
326.684	272
329.236	270
331.787	256
334.337	264
336.887	256
339.435	266
341.983	264
344.529	268
347.075	264
349.621	258
352.165	248
354.708	248
357.251	248
359.793	240
362.334	242
364.874	244
367.413	228
369.951	250
372.489	252
375.026	236
377.562	252
380.097	262
382.631	294
385.164	282
387.697	288
390.229	300
392.76	318
395.29	294
397.819	324
400.346	318
402.873	336
405.4	362
407.926	376
410.451	378
412.976	350
415.499	336
418.02	312
420.542	296
423.063	288
425.583	282
428.101	272
430.619	270
433.137	260
435.654	250
438.169	242
440.684	258
443.198	232
445.712	228
448.223	236
450.735	252
453.246	244
455.755	228
458.264	232
460.771	210
463.279	218
465.786	212
468.291	198
470.796	204
473.301	206
475.803	214
478.306	214
480.807	204
483.308	210
485.807	210
488.307	198
490.804	212
493.302	208
495.798	210
498.294	218
500.788	198
503.283	224
505.775	230
508.269	232
510.759	216
513.251	212
515.74	230
518.23	234
520.718	220
523.204	228
525.692	228
528.177	222
530.663	252
533.147	258
535.629	260
538.113	276
540.594	280
543.074	308
545.555	296
548.034	284
550.512	272
552.989	296
555.467	288
557.942	290
560.417	282
562.892	290
565.365	280
567.838	288
570.309	270
572.78	266
575.251	280
577.72	284
580.189	256
582.656	252
585.123	232
587.589	228
590.055	246
592.52	236
594.983	234
597.446	240
599.908	242
602.369	262
604.829	252
607.289	272
609.747	296
612.205	330
614.663	334
617.119	416
619.574	746
622.029	1120
624.483	1000
626.936	544
629.389	366
631.84	284
634.291	266
636.741	268
639.19	230
641.639	236
644.086	216
646.533	216
648.979	204
651.424	204
653.869	190
656.313	206
658.754	190
661.196	186
663.638	188
666.078	192
668.518	196
670.957	182
673.394	192
675.831	182
678.268	192
680.703	194
683.137	188
685.571	196
688.005	186
690.437	200
692.868	198
695.299	206
697.729	216
700.159	240
702.586	244
705.014	240
707.441	234
709.866	244
712.292	252
714.716	222
717.14	250
719.563	246
721.984	272
724.406	336
726.825	334
729.246	304
731.665	290
734.082	280
736.5	304
738.916	366
741.332	382
743.746	398
746.161	424
748.574	414
750.987	410
753.398	446
755.81	470
758.219	486
760.629	498
763.037	500
765.445	454
767.852	480
770.258	456
772.664	444
775.068	430
777.472	422
779.876	456
782.278	490
784.679	530
787.08	562
789.48	632
791.879	682
794.278	680
796.675	730
799.072	698
801.467	662
803.864	544
806.258	502
808.651	448
811.044	404
813.437	388
815.828	358
818.218	320
820.608	304
822.997	308
825.385	304
827.773	284
830.16	288
832.546	294
834.931	322
837.315	314
839.699	358
842.081	366
844.463	370
846.844	376
849.226	364
851.606	326
853.985	306
856.363	324
858.741	294
861.117	288
863.493	314
865.868	310
868.243	318
870.616	306
872.989	328
875.36	304
877.731	310
880.102	310
882.472	292
884.841	312
887.209	306
889.577	302
891.944	302
894.31	302
896.674	296
899.039	324
901.403	334
903.766	370
906.128	374
908.49	368
910.849	362
913.209	344
915.569	312
917.927	306
920.284	272
922.641	288
924.997	266
927.353	254
929.707	272
932.061	258
934.414	242
936.765	282
939.117	260
941.469	300
943.818	282
946.167	290
948.515	282
950.863	284
953.211	306
955.556	296
957.902	302
960.246	298
962.59	320
964.933	336
967.276	346
969.617	356
971.958	336
974.298	368
976.638	382
978.976	418
981.314	456
983.651	550
985.988	624
988.323	780
990.659	1238
992.992	1738
995.325	1910
997.658	2390
999.99	4162
1002.32	6632
1004.65	6046
1006.98	3422
1009.31	1584
1011.64	874
1013.97	584
1016.29	502
1018.62	470
1020.94	522
1023.27	642
1025.59	862
1027.91	1198
1030.24	1652
1032.56	1984
1034.88	1864
1037.2	1466
1039.52	1020
1041.84	706
1044.15	584
1046.47	496
1048.79	500
1051.1	428
1053.42	434
1055.73	416
1058.04	412
1060.36	386
1062.67	422
1064.98	422
1067.29	452
1069.6	466
1071.91	444
1074.22	476
1076.52	446
1078.83	434
1081.14	434
1083.44	452
1085.75	430
1088.05	442
1090.35	432
1092.65	448
1094.95	434
1097.26	456
1099.56	434
1101.86	432
1104.15	414
1106.45	412
1108.75	382
1111.05	378
1113.34	342
1115.64	334
1117.93	340
1120.22	312
1122.52	340
1124.81	316
1127.1	304
1129.39	298
1131.68	288
1133.97	294
1136.26	282
1138.54	304
1140.83	322
1143.12	366
1145.4	366
1147.69	422
1149.97	506
1152.25	694
1154.54	890
1156.82	1004
1159.1	904
1161.38	698
1163.66	574
1165.94	546
1168.22	534
1170.49	518
1172.77	582
1175.05	630
1177.32	758
1179.6	990
1181.87	1192
1184.14	1210
1186.42	1136
1188.69	1092
1190.96	1090
1193.23	1164
1195.5	1212
1197.77	1270
1200.03	1264
1202.3	1190
1204.57	1112
1206.83	980
1209.1	840
1211.36	750
1213.63	640
1215.89	594
1218.15	514
1220.41	508
1222.67	470
1224.93	488
1227.19	474
1229.45	462
1231.71	424
1233.97	428
1236.22	406
1238.48	376
1240.73	396
1242.99	386
1245.24	388
1247.5	378
1249.75	374
1252	354
1254.25	390
1256.5	368
1258.75	358
1261	374
1263.25	358
1265.49	370
1267.74	374
1269.99	378
1272.23	380
1274.48	394
1276.72	348
1278.96	372
1281.21	354
1283.45	382
1285.69	356
1287.93	384
1290.17	382
1292.41	376
1294.64	412
1296.88	410
1299.12	426
1301.36	428
1303.59	448
1305.82	430
1308.06	446
1310.29	422
1312.52	430
1314.76	462
1316.99	466
1319.22	472
1321.45	506
1323.68	516
1325.9	540
1328.13	560
1330.36	550
1332.58	534
1334.81	546
1337.04	506
1339.26	492
1341.48	462
1343.71	438
1345.93	414
1348.15	404
1350.37	400
1352.59	378
1354.81	384
1357.03	402
1359.24	360
1361.46	386
1363.68	382
1365.89	396
1368.11	388
1370.32	382
1372.54	370
1374.75	378
1376.96	372
1379.17	384
1381.38	362
1383.59	344
1385.8	312
1388.01	302
1390.22	306
1392.43	282
1394.63	294
1396.84	292
1399.05	298
1401.25	294
1403.45	282
1405.66	282
1407.86	306
1410.06	294
1412.26	280
1414.46	288
1416.66	278
1418.86	292
1421.06	276
1423.26	294
1425.46	284
1427.65	290
1429.85	278
1432.04	306
1434.24	352
1436.43	370
1438.62	404
1440.82	438
1443.01	496
1445.2	552
1447.39	594
1449.58	632
1451.77	632
1453.95	606
1456.14	534
1458.33	454
1460.52	404
1462.7	356
1464.89	324
1467.07	312
1469.25	306
1471.44	292
1473.62	304
1475.8	280
1477.98	286
1480.16	304
1482.34	288
1484.52	298
1486.7	288
1488.87	278
1491.05	292
1493.23	308
1495.4	302
1497.58	314
1499.75	304
1501.92	284
1504.1	276
1506.27	260
1508.44	276
1510.61	276
1512.78	270
1514.95	294
1517.12	278
1519.28	296
1521.45	276
1523.62	294
1525.78	296
1527.95	280
1530.11	302
1532.28	284
1534.44	276
1536.6	278
1538.76	288
1540.93	286
1543.09	296
1545.25	300
1547.41	278
1549.56	300
1551.72	288
1553.88	312
1556.03	314
1558.19	316
1560.35	308
1562.5	326
1564.65	332
1566.81	326
1568.96	350
1571.11	342
1573.26	390
1575.41	416
1577.56	496
1579.71	604
1581.86	820
1584.01	1012
1586.15	908
1588.3	712
1590.45	622
1592.59	618
1594.74	710
1596.88	902
1599.02	1242
1601.17	1684
1603.31	1894
1605.45	1768
1607.59	1266
1609.73	960
1611.87	698
1614.01	568
1616.14	462
1618.28	430
1620.42	422
1622.55	408
1624.69	382
1626.82	370
1628.96	362
1631.09	342
1633.22	340
1635.36	330
1637.49	330
1639.62	332
1641.75	342
1643.88	358
1646	354
1648.13	366
1650.26	344
1652.39	352
1654.51	344
1656.64	308
1658.76	312
1660.89	316
1663.01	300
1665.13	296
1667.26	310
1669.38	318
1671.5	316
1673.62	286
1675.74	300
1677.86	290
1679.97	314
1682.09	312
1684.21	306
1686.33	308
1688.44	322
1690.56	308
1692.67	320
1694.78	296
1696.9	288
1699.01	296
1701.12	298
1703.23	290
1705.34	306
1707.45	302
1709.56	300
1711.67	302
1713.78	296
1715.88	280
1717.99	288
1720.1	298
1722.2	298
1724.31	298
1726.41	296
1728.51	296
1730.62	302
1732.72	294
1734.82	308
1736.92	306
1739.02	292
1741.12	282
1743.22	282
1745.32	320
1747.42	302
1749.51	302
1751.61	298
1753.7	292
1755.8	310
1757.89	300
1759.99	284
1762.08	294
1764.17	292
1766.26	304
1768.36	292
1770.45	288
1772.54	292
1774.62	306
1776.71	300
1778.8	278
1780.89	320
1782.98	292
1785.06	312
1787.15	292
1789.23	320
1791.32	314
1793.4	304
1795.48	298
1797.56	320
1799.65	314
1801.73	294
1803.81	306
1805.89	318
1807.97	312
1810.04	324
1812.12	314
1814.2	316
1816.28	308
1818.35	310
1820.43	314
1822.5	296
1824.58	324
1826.65	308
1828.72	304
1830.79	306
1832.86	304
1834.94	284
1837.01	296
1839.08	310
1841.15	296
1843.21	312
1845.28	318
1847.35	312
1849.41	294
1851.48	298
1853.55	298
1855.61	306
1857.67	294
1859.74	312
1861.8	310
1863.86	306
1865.92	314
1867.98	294
1870.05	308
1872.1	320
1874.16	296
1876.22	306
1878.28	314
1880.34	324
1882.39	300
1884.45	310
1886.5	310
1888.56	318
1890.61	306
1892.67	308
1894.72	312
1896.77	296
1898.82	320
1900.87	314
1902.92	304
1904.97	310
1907.02	318
1909.07	332
1911.12	328
1913.17	336
1915.21	312
1917.26	340
1919.3	322
1921.35	308
1923.39	318
1925.43	326
1927.48	310
1929.52	322
1931.56	338
1933.6	322
1935.64	330
1937.68	324
1939.72	344
1941.76	330
1943.8	322
1945.83	322
1947.87	312
1949.91	340
1951.94	330
1953.98	318
1956.01	326
1958.05	308
1960.08	320
1962.11	336
1964.14	338
1966.17	330
1968.2	296
1970.23	314
1972.26	314
1974.29	306
1976.32	318
1978.35	334
1980.37	338
1982.4	344
1984.43	328
1986.45	322
1988.48	320
1990.5	332
1992.52	332
1994.55	332
1996.57	326
1998.59	312
2000.61	336
2002.63	330
2004.65	338
2006.67	320
2008.69	328
2010.7	324
2012.72	334
2014.74	314
2016.75	324
2018.77	324
2020.78	326
2022.8	332
2024.81	332
2026.83	340
2028.84	334
2030.85	340
2032.86	332
2034.87	310
2036.88	344
2038.89	350
2040.9	330
2042.91	330
2044.91	314
2046.92	328
2048.93	350
2050.93	328
2052.94	340
2054.94	338
2056.95	322
2058.95	338
2060.95	322
2062.95	314
2064.96	314
2066.96	328
2068.96	324
2070.96	342
2072.96	348
2074.95	338
2076.95	332
2078.95	338
2080.95	340
2082.94	338
2084.94	322
2086.93	340
2088.93	346
2090.92	342
2092.91	304
2094.91	344
2096.9	338
2098.89	336
2100.88	346
2102.87	360
2104.86	324
2106.85	340
2108.84	354
2110.83	340
2112.81	322
2114.8	340
2116.78	336
2118.77	336
2120.75	322
2122.74	338
2124.72	346
2126.71	340
2128.69	356
2130.67	350
2132.65	352
2134.63	358
2136.61	348
2138.59	334
2140.57	330
2142.55	360
2144.53	348
2146.5	338
2148.48	344
2150.46	354
2152.43	344
2154.41	366
2156.38	326
2158.35	364
2160.33	312
2162.3	338
2164.27	344
2166.24	358
2168.21	360
2170.18	352
2172.15	350
2174.12	336
2176.09	352
2178.06	348
2180.03	354
2181.99	346
2183.96	338
2185.92	348
2187.89	328
2189.85	324
2191.82	362
2193.78	354
2195.74	364
2197.7	344
2199.67	356
2201.63	342
2203.59	334
2205.55	354
2207.51	332
2209.46	360
2211.42	330
2213.38	348
2215.34	346
2217.29	348
2219.25	340
2221.2	350
2223.16	358
2225.11	362
2227.06	362
2229.02	338
2230.97	360
2232.92	350
2234.87	354
2236.82	338
2238.77	332
2240.72	368
2242.67	342
2244.62	358
2246.57	346
2248.51	344
2250.46	340
2252.4	352
2254.35	352
2256.29	332
2258.24	336
2260.18	340
2262.13	360
2264.07	350
2266.01	366
2267.95	372
2269.89	362
2271.83	368
2273.77	346
2275.71	362
2277.65	350
2279.58	366
2281.52	364
2283.46	362
2285.4	352
2287.33	348
2289.27	376
2291.2	342
2293.13	350
2295.07	342
2297	358
2298.93	344
2300.86	336
2302.79	386
2304.72	338
2306.65	374
2308.58	348
2310.51	366
2312.44	364
2314.37	346
2316.29	366
2318.22	380
2320.15	376
2322.07	340
2324	366
2325.92	356
2327.84	362
2329.77	364
2331.69	372
2333.61	350
2335.53	378
2337.45	374
2339.37	342
2341.29	364
2343.21	340
2345.13	358
2347.05	354
2348.97	352
2350.88	366
2352.8	340
2354.71	356
2356.63	354
2358.54	378
2360.46	360
2362.37	374
2364.28	374
2366.2	368
2368.11	362
2370.02	370
2371.93	356
2373.84	372
2375.75	342
2377.66	348
2379.57	378
2381.47	366
2383.38	372
2385.29	350
2387.2	358
2389.1	364
2391.01	378
2392.91	368
2394.81	372
2396.72	368
2398.62	360
2400.52	354
2402.42	366
2404.33	374
2406.23	360
2408.13	380
2410.03	382
2411.92	356
2413.82	358
2415.72	370
2417.62	360
2419.51	378
2421.41	380
2423.31	368
2425.2	384
2427.1	366
2428.99	372
2430.88	374
2432.78	368
2434.67	372
2436.56	360
2438.45	374
2440.34	374
2442.23	396
2444.12	384
2446.01	392
2447.9	382
2449.79	372