File: Jesse_Dataset_v2/Pure Raman/Polystyrene/633nm/ps-ppo-7jan25-1,0000-map3_Y04_X10.txt
182.393	1026
184.993	980
187.593	940
190.193	914
192.79	932
195.387	926
197.983	936
200.578	920
203.174	920
205.766	960
208.36	978
210.951	1020
213.542	1044
216.131	1056
218.721	1050
221.309	1090
223.897	1086
226.483	1034
229.069	994
231.654	926
234.238	818
236.821	768
239.404	664
241.984	598
244.566	512
247.145	446
249.723	418
252.302	398
254.878	394
257.455	338
260.03	352
262.604	356
265.178	360
267.75	344
270.322	340
272.893	328
275.463	310
278.032	318
280.601	306
283.168	300
285.734	278
288.301	268
290.866	248
293.429	246
295.992	240
298.556	260
301.117	234
303.677	218
306.236	238
308.795	228
311.354	252
313.911	246
316.467	244
319.022	244
321.577	246
324.13	236
326.684	240
329.236	232
331.787	248
334.337	252
336.887	234
339.435	226
341.983	238
344.529	220
347.075	238
349.621	228
352.165	228
354.708	228
357.251	216
359.793	204
362.334	226
364.874	220
367.413	220
369.951	222
372.489	234
375.026	224
377.562	236
380.097	250
382.631	250
385.164	274
387.697	258
390.229	272
392.76	272
395.29	280
397.819	274
400.346	306
402.873	314
405.4	336
407.926	350
410.451	332
412.976	314
415.499	310
418.02	292
420.542	274
423.063	264
425.583	262
428.101	250
430.619	210
433.137	240
435.654	230
438.169	234
440.684	238
443.198	214
445.712	226
448.223	210
450.735	208
453.246	210
455.755	196
458.264	196
460.771	180
463.279	184
465.786	174
468.291	182
470.796	178
473.301	192
475.803	190
478.306	170
480.807	186
483.308	180
485.807	178
488.307	192
490.804	190
493.302	180
495.798	180
498.294	180
500.788	184
503.283	190
505.775	198
508.269	212
510.759	202
513.251	196
515.74	182
518.23	186
520.718	202
523.204	212
525.692	210
528.177	218
530.663	214
533.147	234
535.629	236
538.113	246
540.594	244
543.074	252
545.555	256
548.034	242
550.512	246
552.989	258
555.467	252
557.942	246
560.417	250
562.892	244
565.365	206
567.838	244
570.309	240
572.78	252
575.251	248
577.72	272
580.189	242
582.656	236
585.123	216
587.589	202
590.055	216
592.52	224
594.983	202
597.446	224
599.908	220
602.369	212
604.829	234
607.289	260
609.747	274
612.205	278
614.663	304
617.119	426
619.574	702
622.029	1086
624.483	938
626.936	548
629.389	328
631.84	286
634.291	250
636.741	240
639.19	190
641.639	200
644.086	188
646.533	184
648.979	192
651.424	168
653.869	168
656.313	170
658.754	164
661.196	162
663.638	172
666.078	178
668.518	156
670.957	168
673.394	168
675.831	170
678.268	174
680.703	180
683.137	176
685.571	168
688.005	178
690.437	168
692.868	168
695.299	162
697.729	198
700.159	190
702.586	216
705.014	224
707.441	226
709.866	210
712.292	218
714.716	220
717.14	218
719.563	218
721.984	254
724.406	272
726.825	304
729.246	278
731.665	286
734.082	286
736.5	292
738.916	334
741.332	360
743.746	394
746.161	400
748.574	370
750.987	386
753.398	440
755.81	422
758.219	450
760.629	470
763.037	492
765.445	462
767.852	468
770.258	424
772.664	426
775.068	418
777.472	430
779.876	412
782.278	452
784.679	478
787.08	536
789.48	594
791.879	636
794.278	674
796.675	698
799.072	692
801.467	630
803.864	534
806.258	466
808.651	406
811.044	402
813.437	378
815.828	350
818.218	306
820.608	284
822.997	260
825.385	274
827.773	242
830.16	262
832.546	258
834.931	258
837.315	290
839.699	348
842.081	362
844.463	366
846.844	346
849.226	354
851.606	316
853.985	306
856.363	280
858.741	296
861.117	290
863.493	280
865.868	300
868.243	296
870.616	304
872.989	294
875.36	302
877.731	284
880.102	294
882.472	288
884.841	278
887.209	260
889.577	274
891.944	272
894.31	278
896.674	284
899.039	290
901.403	304
903.766	334
906.128	376
908.49	348
910.849	348
913.209	320
915.569	306
917.927	274
920.284	266
922.641	254
924.997	252
927.353	242
929.707	256
932.061	244
934.414	232
936.765	252
939.117	262
941.469	238
943.818	260
946.167	250
948.515	266
950.863	254
953.211	262
955.556	278
957.902	272
960.246	294
962.59	308
964.933	312
967.276	332
969.617	306
971.958	332
974.298	322
976.638	354
978.976	400
981.314	436
983.651	520
985.988	610
988.323	798
990.659	1158
992.992	1718
995.325	1898
997.658	2342
999.99	4172
1002.32	6476
1004.65	6016
1006.98	3362
1009.31	1542
1011.64	808
1013.97	570
1016.29	492
1018.62	452
1020.94	502
1023.27	610
1025.59	832
1027.91	1216
1030.24	1606
1032.56	1910
1034.88	1874
1037.2	1422
1039.52	968
1041.84	718
1044.15	548
1046.47	480
1048.79	442
1051.1	412
1053.42	406
1055.73	382
1058.04	402
1060.36	396
1062.67	404
1064.98	416
1067.29	414
1069.6	430
1071.91	446
1074.22	442
1076.52	440
1078.83	428
1081.14	390
1083.44	436
1085.75	402
1088.05	424
1090.35	400
1092.65	406
1094.95	400
1097.26	410
1099.56	420
1101.86	418
1104.15	388
1106.45	346
1108.75	368
1111.05	352
1113.34	330
1115.64	334
1117.93	310
1120.22	314
1122.52	278
1124.81	262
1127.1	260
1129.39	282
1131.68	256
1133.97	282
1136.26	266
1138.54	282
1140.83	310
1143.12	332
1145.4	356
1147.69	398
1149.97	476
1152.25	630
1154.54	848
1156.82	950
1159.1	878
1161.38	702
1163.66	564
1165.94	516
1168.22	504
1170.49	506
1172.77	544
1175.05	638
1177.32	734
1179.6	968
1181.87	1156
1184.14	1172
1186.42	1072
1188.69	1060
1190.96	1036
1193.23	1096
1195.5	1194
1197.77	1186
1200.03	1180
1202.3	1152
1204.57	1058
1206.83	952
1209.1	860
1211.36	724
1213.63	590
1215.89	540
1218.15	482
1220.41	454
1222.67	468
1224.93	450
1227.19	452
1229.45	422
1231.71	406
1233.97	392
1236.22	366
1238.48	370
1240.73	376
1242.99	352
1245.24	358
1247.5	342
1249.75	356
1252	326
1254.25	330
1256.5	334
1258.75	358
1261	366
1263.25	334
1265.49	342
1267.74	342
1269.99	332
1272.23	354
1274.48	336
1276.72	350
1278.96	334
1281.21	336
1283.45	356
1285.69	344
1287.93	356
1290.17	374
1292.41	372
1294.64	378
1296.88	388
1299.12	380
1301.36	396
1303.59	408
1305.82	402
1308.06	420
1310.29	432
1312.52	446
1314.76	422
1316.99	446
1319.22	456
1321.45	488
1323.68	496
1325.9	482
1328.13	530
1330.36	516
1332.58	524
1334.81	504
1337.04	494
1339.26	478
1341.48	412
1343.71	386
1345.93	396
1348.15	384
1350.37	390
1352.59	394
1354.81	372
1357.03	358
1359.24	366
1361.46	366
1363.68	398
1365.89	372
1368.11	384
1370.32	368
1372.54	382
1374.75	366
1376.96	352
1379.17	368
1381.38	348
1383.59	330
1385.8	314
1388.01	280
1390.22	280
1392.43	264
1394.63	256
1396.84	268
1399.05	274
1401.25	278
1403.45	280
1405.66	274
1407.86	270
1410.06	270
1412.26	254
1414.46	268
1416.66	258
1418.86	258
1421.06	262
1423.26	258
1425.46	264
1427.65	272
1429.85	274
1432.04	300
1434.24	330
1436.43	364
1438.62	394
1440.82	434
1443.01	498
1445.2	546
1447.39	594
1449.58	592
1451.77	582
1453.95	590
1456.14	544
1458.33	440
1460.52	380
1462.7	348
1464.89	312
1467.07	310
1469.25	288
1471.44	306
1473.62	272
1475.8	272
1477.98	272
1480.16	288
1482.34	272
1484.52	280
1486.7	258
1488.87	254
1491.05	288
1493.23	276
1495.4	294
1497.58	300
1499.75	272
1501.92	262
1504.1	270
1506.27	266
1508.44	278
1510.61	252
1512.78	266
1514.95	278
1517.12	258
1519.28	254
1521.45	262
1523.62	266
1525.78	276
1527.95	278
1530.11	274
1532.28	268
1534.44	278
1536.6	278
1538.76	260
1540.93	282
1543.09	284
1545.25	270
1547.41	270
1549.56	290
1551.72	280
1553.88	274
1556.03	282
1558.19	304
1560.35	308
1562.5	316
1564.65	304
1566.81	326
1568.96	330
1571.11	358
1573.26	380
1575.41	432
1577.56	488
1579.71	614
1581.86	816
1584.01	1016
1586.15	920
1588.3	702
1590.45	610
1592.59	600
1594.74	688
1596.88	898
1599.02	1228
1601.17	1670
1603.31	1898
1605.45	1692
1607.59	1318
1609.73	932
1611.87	686
1614.01	558
1616.14	466
1618.28	446
1620.42	386
1622.55	380
1624.69	366
1626.82	320
1628.96	344
1631.09	304
1633.22	322
1635.36	322
1637.49	318
1639.62	310
1641.75	332
1643.88	322
1646	352
1648.13	352
1650.26	346
1652.39	344
1654.51	328
1656.64	314
1658.76	284
1660.89	258
1663.01	286
1665.13	306
1667.26	284
1669.38	278
1671.5	294
1673.62	290
1675.74	292
1677.86	276
1679.97	286
1682.09	302
1684.21	298
1686.33	292
1688.44	298
1690.56	280
1692.67	284
1694.78	282
1696.9	290
1699.01	286
1701.12	282
1703.23	278
1705.34	284
1707.45	288
1709.56	278
1711.67	290
1713.78	278
1715.88	282
1717.99	270
1720.1	282
1722.2	278
1724.31	296
1726.41	282
1728.51	274
1730.62	268
1732.72	292
1734.82	268
1736.92	286
1739.02	288
1741.12	278
1743.22	276
1745.32	260
1747.42	292
1749.51	276
1751.61	268
1753.7	292
1755.8	286
1757.89	284
1759.99	294
1762.08	274
1764.17	266
1766.26	268
1768.36	288
1770.45	286
1772.54	302
1774.62	262
1776.71	272
1778.8	290
1780.89	292
1782.98	292
1785.06	290
1787.15	282
1789.23	304
1791.32	306
1793.4	286
1795.48	302
1797.56	280
1799.65	298
1801.73	286
1803.81	300
1805.89	304
1807.97	294
1810.04	296
1812.12	298
1814.2	300
1816.28	302
1818.35	290
1820.43	290
1822.5	290
1824.58	274
1826.65	298
1828.72	300
1830.79	300
1832.86	304
1834.94	282
1837.01	300
1839.08	280
1841.15	308
1843.21	280
1845.28	310
1847.35	284
1849.41	286
1851.48	290
1853.55	282
1855.61	276
1857.67	300
1859.74	284
1861.8	302
1863.86	300
1865.92	284
1867.98	288
1870.05	298
1872.1	304
1874.16	306
1876.22	300
1878.28	292
1880.34	298
1882.39	290
1884.45	292
1886.5	294
1888.56	304
1890.61	296
1892.67	284
1894.72	296
1896.77	292
1898.82	300
1900.87	300
1902.92	290
1904.97	286
1907.02	294
1909.07	314
1911.12	304
1913.17	304
1915.21	294
1917.26	304
1919.3	290
1921.35	298
1923.39	316
1925.43	298
1927.48	322
1929.52	308
1931.56	324
1933.6	314
1935.64	320
1937.68	288
1939.72	300
1941.76	318
1943.8	314
1945.83	296
1947.87	324
1949.91	300
1951.94	308
1953.98	324
1956.01	300
1958.05	314
1960.08	308
1962.11	316
1964.14	306
1966.17	294
1968.2	300
1970.23	306
1972.26	302
1974.29	306
1976.32	294
1978.35	306
1980.37	304
1982.4	302
1984.43	314
1986.45	306
1988.48	296
1990.5	314
1992.52	292
1994.55	298
1996.57	298
1998.59	320
2000.61	292
2002.63	290
2004.65	304
2006.67	304
2008.69	318
2010.7	316
2012.72	314
2014.74	320
2016.75	306
2018.77	314
2020.78	318
2022.8	316
2024.81	312
2026.83	328
2028.84	324
2030.85	308
2032.86	318
2034.87	320
2036.88	338
2038.89	326
2040.9	316
2042.91	306
2044.91	324
2046.92	306
2048.93	328
2050.93	312
2052.94	318
2054.94	310
2056.95	296
2058.95	300
2060.95	318
2062.95	336
2064.96	330
2066.96	314
2068.96	340
2070.96	324
2072.96	328
2074.95	330
2076.95	318
2078.95	320
2080.95	306
2082.94	324
2084.94	322
2086.93	322
2088.93	318
2090.92	334
2092.91	330
2094.91	344
2096.9	310
2098.89	336
2100.88	306
2102.87	316
2104.86	312
2106.85	310
2108.84	310
2110.83	322
2112.81	322
2114.8	354
2116.78	330
2118.77	306
2120.75	322
2122.74	332
2124.72	320
2126.71	352
2128.69	344
2130.67	320
2132.65	310
2134.63	328
2136.61	322
2138.59	332
2140.57	326
2142.55	336
2144.53	324
2146.5	322
2148.48	330
2150.46	326
2152.43	330
2154.41	326
2156.38	348
2158.35	340
2160.33	322
2162.3	328
2164.27	322
2166.24	332
2168.21	332
2170.18	326
2172.15	338
2174.12	320
2176.09	340
2178.06	338
2180.03	342
2181.99	338
2183.96	334
2185.92	334
2187.89	334
2189.85	330
2191.82	344
2193.78	328
2195.74	338
2197.7	338
2199.67	322
2201.63	346
2203.59	314
2205.55	338
2207.51	318
2209.46	322
2211.42	332
2213.38	330
2215.34	346
2217.29	326
2219.25	338
2221.2	332
2223.16	344
2225.11	334
2227.06	332
2229.02	332
2230.97	344
2232.92	340
2234.87	366
2236.82	324
2238.77	314
2240.72	326
2242.67	362
2244.62	348
2246.57	348
2248.51	334
2250.46	350
2252.4	346
2254.35	336
2256.29	334
2258.24	336
2260.18	356
2262.13	344
2264.07	340
2266.01	316
2267.95	340
2269.89	340
2271.83	348
2273.77	334
2275.71	336
2277.65	350
2279.58	350
2281.52	362
2283.46	334
2285.4	332
2287.33	330
2289.27	340
2291.2	344
2293.13	338
2295.07	332
2297	336
2298.93	336
2300.86	342
2302.79	348
2304.72	326
2306.65	334
2308.58	346
2310.51	346
2312.44	362
2314.37	348
2316.29	352
2318.22	346
2320.15	360
2322.07	350
2324	342
2325.92	354
2327.84	338
2329.77	326
2331.69	354
2333.61	340
2335.53	342
2337.45	364
2339.37	346
2341.29	342
2343.21	360
2345.13	338
2347.05	332
2348.97	334
2350.88	348
2352.8	352
2354.71	348
2356.63	366
2358.54	344
2360.46	360
2362.37	356
2364.28	356
2366.2	350
2368.11	354
2370.02	358
2371.93	330
2373.84	358
2375.75	350
2377.66	342
2379.57	358
2381.47	358
2383.38	344
2385.29	356
2387.2	358
2389.1	352
2391.01	362
2392.91	340
2394.81	346
2396.72	360
2398.62	338
2400.52	368
2402.42	370
2404.33	338
2406.23	364
2408.13	326
2410.03	358
2411.92	362
2413.82	340
2415.72	352
2417.62	356
2419.51	344
2421.41	356
2423.31	350
2425.2	372
2427.1	370
2428.99	340
2430.88	352
2432.78	360
2434.67	374
2436.56	368
2438.45	360
2440.34	368
2442.23	382
2444.12	360
2446.01	370
2447.9	366
2449.79	374