File: Jesse_Dataset_v2/Pure Raman/Polystyrene/633nm/ps-ppo-7jan25-1,0000-map3_Y05_X06.txt
182.393	986
184.993	976
187.593	956
190.193	934
192.79	910
195.387	920
197.983	912
200.578	908
203.174	924
205.766	930
208.36	990
210.951	1012
213.542	1034
216.131	1022
218.721	1048
221.309	1058
223.897	1032
226.483	1016
229.069	932
231.654	858
234.238	816
236.821	720
239.404	642
241.984	586
244.566	504
247.145	454
249.723	392
252.302	376
254.878	340
257.455	342
260.03	322
262.604	346
265.178	318
267.75	310
270.322	316
272.893	298
275.463	286
278.032	296
280.601	280
283.168	290
285.734	248
288.301	260
290.866	252
293.429	226
295.992	234
298.556	226
301.117	216
303.677	200
306.236	220
308.795	202
311.354	214
313.911	204
316.467	222
319.022	220
321.577	218
324.13	238
326.684	212
329.236	206
331.787	222
334.337	220
336.887	224
339.435	218
341.983	216
344.529	186
347.075	208
349.621	206
352.165	180
354.708	198
357.251	206
359.793	192
362.334	186
364.874	182
367.413	200
369.951	206
372.489	210
375.026	208
377.562	204
380.097	204
382.631	226
385.164	228
387.697	230
390.229	252
392.76	248
395.29	282
397.819	250
400.346	270
402.873	274
405.4	304
407.926	320
410.451	332
412.976	294
415.499	288
418.02	258
420.542	250
423.063	242
425.583	226
428.101	214
430.619	214
433.137	214
435.654	188
438.169	200
440.684	208
443.198	196
445.712	200
448.223	172
450.735	190
453.246	170
455.755	170
458.264	172
460.771	154
463.279	162
465.786	162
468.291	158
470.796	144
473.301	168
475.803	160
478.306	150
480.807	152
483.308	156
485.807	148
488.307	150
490.804	152
493.302	158
495.798	146
498.294	152
500.788	170
503.283	172
505.775	174
508.269	170
510.759	174
513.251	154
515.74	176
518.23	172
520.718	184
523.204	168
525.692	188
528.177	176
530.663	182
533.147	200
535.629	220
538.113	218
540.594	232
543.074	250
545.555	244
548.034	244
550.512	204
552.989	226
555.467	226
557.942	228
560.417	226
562.892	228
565.365	216
567.838	230
570.309	218
572.78	224
575.251	224
577.72	228
580.189	220
582.656	212
585.123	194
587.589	190
590.055	182
592.52	184
594.983	192
597.446	182
599.908	182
602.369	194
604.829	210
607.289	232
609.747	262
612.205	250
614.663	284
617.119	400
619.574	670
622.029	1080
624.483	946
626.936	514
629.389	308
631.84	242
634.291	224
636.741	202
639.19	190
641.639	170
644.086	164
646.533	156
648.979	150
651.424	142
653.869	146
656.313	142
658.754	148
661.196	134
663.638	144
666.078	138
668.518	150
670.957	132
673.394	142
675.831	140
678.268	140
680.703	142
683.137	140
685.571	144
688.005	144
690.437	146
692.868	142
695.299	156
697.729	158
700.159	172
702.586	176
705.014	200
707.441	190
709.866	188
712.292	184
714.716	182
717.14	190
719.563	180
721.984	230
724.406	250
726.825	294
729.246	262
731.665	242
734.082	248
736.5	272
738.916	306
741.332	322
743.746	356
746.161	354
748.574	368
750.987	382
753.398	406
755.81	436
758.219	434
760.629	456
763.037	462
765.445	428
767.852	426
770.258	388
772.664	398
775.068	384
777.472	392
779.876	408
782.278	410
784.679	466
787.08	520
789.48	572
791.879	628
794.278	638
796.675	668
799.072	646
801.467	586
803.864	530
806.258	444
808.651	394
811.044	370
813.437	338
815.828	320
818.218	288
820.608	262
822.997	254
825.385	240
827.773	226
830.16	238
832.546	222
834.931	268
837.315	290
839.699	316
842.081	334
844.463	342
846.844	338
849.226	312
851.606	280
853.985	260
856.363	266
858.741	260
861.117	266
863.493	250
865.868	280
868.243	266
870.616	260
872.989	268
875.36	270
877.731	270
880.102	244
882.472	254
884.841	230
887.209	250
889.577	220
891.944	238
894.31	248
896.674	260
899.039	272
901.403	280
903.766	296
906.128	330
908.49	318
910.849	304
913.209	276
915.569	272
917.927	242
920.284	232
922.641	230
924.997	212
927.353	234
929.707	224
932.061	228
934.414	218
936.765	226
939.117	216
941.469	224
943.818	224
946.167	228
948.515	242
950.863	240
953.211	234
955.556	214
957.902	250
960.246	256
962.59	274
964.933	296
967.276	298
969.617	292
971.958	300
974.298	330
976.638	326
978.976	372
981.314	398
983.651	508
985.988	596
988.323	752
990.659	1164
992.992	1644
995.325	1916
997.658	2318
999.99	4162
1002.32	6466
1004.65	6156
1006.98	3418
1009.31	1530
1011.64	784
1013.97	538
1016.29	446
1018.62	430
1020.94	488
1023.27	576
1025.59	802
1027.91	1156
1030.24	1570
1032.56	1934
1034.88	1872
1037.2	1380
1039.52	968
1041.84	634
1044.15	534
1046.47	460
1048.79	396
1051.1	386
1053.42	374
1055.73	356
1058.04	378
1060.36	350
1062.67	394
1064.98	386
1067.29	408
1069.6	412
1071.91	416
1074.22	426
1076.52	382
1078.83	400
1081.14	392
1083.44	388
1085.75	400
1088.05	384
1090.35	384
1092.65	390
1094.95	402
1097.26	362
1099.56	386
1101.86	390
1104.15	380
1106.45	348
1108.75	338
1111.05	316
1113.34	310
1115.64	298
1117.93	270
1120.22	282
1122.52	258
1124.81	244
1127.1	248
1129.39	240
1131.68	244
1133.97	238
1136.26	260
1138.54	252
1140.83	290
1143.12	300
1145.4	352
1147.69	366
1149.97	458
1152.25	624
1154.54	834
1156.82	932
1159.1	844
1161.38	668
1163.66	538
1165.94	472
1168.22	466
1170.49	474
1172.77	540
1175.05	582
1177.32	728
1179.6	948
1181.87	1124
1184.14	1178
1186.42	1078
1188.69	1012
1190.96	1034
1193.23	1106
1195.5	1168
1197.77	1190
1200.03	1152
1202.3	1122
1204.57	1040
1206.83	926
1209.1	802
1211.36	688
1213.63	572
1215.89	516
1218.15	470
1220.41	436
1222.67	424
1224.93	416
1227.19	412
1229.45	386
1231.71	370
1233.97	360
1236.22	360
1238.48	338
1240.73	340
1242.99	340
1245.24	324
1247.5	316
1249.75	348
1252	328
1254.25	320
1256.5	326
1258.75	332
1261	338
1263.25	310
1265.49	330
1267.74	306
1269.99	312
1272.23	314
1274.48	318
1276.72	306
1278.96	308
1281.21	314
1283.45	314
1285.69	324
1287.93	320
1290.17	342
1292.41	346
1294.64	340
1296.88	372
1299.12	368
1301.36	370
1303.59	386
1305.82	380
1308.06	378
1310.29	404
1312.52	386
1314.76	412
1316.99	416
1319.22	454
1321.45	468
1323.68	490
1325.9	502
1328.13	510
1330.36	488
1332.58	490
1334.81	482
1337.04	462
1339.26	452
1341.48	412
1343.71	390
1345.93	368
1348.15	348
1350.37	366
1352.59	348
1354.81	364
1357.03	342
1359.24	352
1361.46	346
1363.68	332
1365.89	342
1368.11	362
1370.32	338
1372.54	364
1374.75	352
1376.96	338
1379.17	334
1381.38	322
1383.59	294
1385.8	278
1388.01	254
1390.22	260
1392.43	258
1394.63	234
1396.84	248
1399.05	258
1401.25	240
1403.45	244
1405.66	254
1407.86	246
1410.06	252
1412.26	250
1414.46	246
1416.66	242
1418.86	224
1421.06	228
1423.26	240
1425.46	240
1427.65	240
1429.85	274
1432.04	256
1434.24	312
1436.43	336
1438.62	384
1440.82	404
1443.01	442
1445.2	510
1447.39	548
1449.58	598
1451.77	588
1453.95	538
1456.14	502
1458.33	434
1460.52	342
1462.7	312
1464.89	276
1467.07	262
1469.25	252
1471.44	260
1473.62	248
1475.8	248
1477.98	244
1480.16	252
1482.34	248
1484.52	244
1486.7	238
1488.87	254
1491.05	254
1493.23	284
1495.4	280
1497.58	270
1499.75	264
1501.92	246
1504.1	244
1506.27	244
1508.44	230
1510.61	238
1512.78	238
1514.95	236
1517.12	252
1519.28	254
1521.45	244
1523.62	226
1525.78	264
1527.95	238
1530.11	244
1532.28	244
1534.44	252
1536.6	244
1538.76	242
1540.93	242
1543.09	254
1545.25	238
1547.41	244
1549.56	252
1551.72	260
1553.88	260
1556.03	256
1558.19	254
1560.35	270
1562.5	270
1564.65	282
1566.81	292
1568.96	312
1571.11	318
1573.26	334
1575.41	380
1577.56	438
1579.71	552
1581.86	762
1584.01	956
1586.15	908
1588.3	696
1590.45	576
1592.59	590
1594.74	660
1596.88	812
1599.02	1226
1601.17	1638
1603.31	1872
1605.45	1678
1607.59	1266
1609.73	888
1611.87	678
1614.01	514
1616.14	450
1618.28	390
1620.42	378
1622.55	348
1624.69	344
1626.82	338
1628.96	314
1631.09	304
1633.22	284
1635.36	292
1637.49	286
1639.62	296
1641.75	292
1643.88	336
1646	336
1648.13	298
1650.26	336
1652.39	320
1654.51	296
1656.64	276
1658.76	264
1660.89	272
1663.01	266
1665.13	256
1667.26	276
1669.38	260
1671.5	254
1673.62	244
1675.74	280
1677.86	248
1679.97	274
1682.09	274
1684.21	260
1686.33	270
1688.44	258
1690.56	272
1692.67	260
1694.78	276
1696.9	268
1699.01	280
1701.12	274
1703.23	264
1705.34	262
1707.45	258
1709.56	270
1711.67	260
1713.78	258
1715.88	254
1717.99	262
1720.1	258
1722.2	248
1724.31	250
1726.41	272
1728.51	264
1730.62	258
1732.72	258
1734.82	254
1736.92	244
1739.02	258
1741.12	258
1743.22	264
1745.32	270
1747.42	252
1749.51	270
1751.61	256
1753.7	254
1755.8	258
1757.89	254
1759.99	262
1762.08	256
1764.17	246
1766.26	262
1768.36	248
1770.45	258
1772.54	252
1774.62	262
1776.71	250
1778.8	272
1780.89	258
1782.98	248
1785.06	262
1787.15	256
1789.23	268
1791.32	266
1793.4	254
1795.48	268
1797.56	264
1799.65	250
1801.73	258
1803.81	260
1805.89	268
1807.97	274
1810.04	262
1812.12	282
1814.2	276
1816.28	270
1818.35	284
1820.43	262
1822.5	276
1824.58	280
1826.65	266
1828.72	288
1830.79	240
1832.86	270
1834.94	272
1837.01	264
1839.08	274
1841.15	266
1843.21	270
1845.28	268
1847.35	272
1849.41	270
1851.48	264
1853.55	264
1855.61	268
1857.67	278
1859.74	274
1861.8	266
1863.86	290
1865.92	262
1867.98	264
1870.05	286
1872.1	248
1874.16	272
1876.22	256
1878.28	282
1880.34	266
1882.39	266
1884.45	274
1886.5	270
1888.56	284
1890.61	264
1892.67	258
1894.72	284
1896.77	266
1898.82	284
1900.87	276
1902.92	278
1904.97	290
1907.02	286
1909.07	290
1911.12	280
1913.17	268
1915.21	288
1917.26	302
1919.3	300
1921.35	306
1923.39	300
1925.43	294
1927.48	288
1929.52	276
1931.56	294
1933.6	268
1935.64	302
1937.68	280
1939.72	284
1941.76	280
1943.8	296
1945.83	282
1947.87	290
1949.91	268
1951.94	294
1953.98	280
1956.01	286
1958.05	294
1960.08	308
1962.11	304
1964.14	298
1966.17	310
1968.2	288
1970.23	282
1972.26	266
1974.29	286
1976.32	274
1978.35	276
1980.37	284
1982.4	284
1984.43	284
1986.45	286
1988.48	282
1990.5	282
1992.52	298
1994.55	288
1996.57	276
1998.59	294
2000.61	290
2002.63	292
2004.65	288
2006.67	278
2008.69	284
2010.7	274
2012.72	280
2014.74	290
2016.75	292
2018.77	288
2020.78	288
2022.8	294
2024.81	284
2026.83	292
2028.84	282
2030.85	292
2032.86	306
2034.87	292
2036.88	294
2038.89	286
2040.9	300
2042.91	292
2044.91	300
2046.92	296
2048.93	310
2050.93	304
2052.94	306
2054.94	290
2056.95	306
2058.95	288
2060.95	306
2062.95	298
2064.96	308
2066.96	296
2068.96	310
2070.96	306
2072.96	304
2074.95	302
2076.95	312
2078.95	288
2080.95	296
2082.94	314
2084.94	300
2086.93	292
2088.93	292
2090.92	310
2092.91	292
2094.91	316
2096.9	308
2098.89	308
2100.88	290
2102.87	296
2104.86	312
2106.85	300
2108.84	302
2110.83	300
2112.81	316
2114.8	306
2116.78	310
2118.77	300
2120.75	312
2122.74	320
2124.72	320
2126.71	302
2128.69	306
2130.67	316
2132.65	308
2134.63	306
2136.61	300
2138.59	302
2140.57	314
2142.55	294
2144.53	322
2146.5	300
2148.48	304
2150.46	300
2152.43	306
2154.41	310
2156.38	306
2158.35	310
2160.33	316
2162.3	318
2164.27	308
2166.24	300
2168.21	306
2170.18	306
2172.15	318
2174.12	308
2176.09	310
2178.06	324
2180.03	320
2181.99	310
2183.96	316
2185.92	312
2187.89	330
2189.85	306
2191.82	304
2193.78	300
2195.74	314
2197.7	324
2199.67	300
2201.63	304
2203.59	312
2205.55	302
2207.51	306
2209.46	316
2211.42	310
2213.38	320
2215.34	340
2217.29	318
2219.25	316
2221.2	318
2223.16	304
2225.11	316
2227.06	308
2229.02	322
2230.97	318
2232.92	316
2234.87	318
2236.82	308
2238.77	332
2240.72	334
2242.67	304
2244.62	312
2246.57	324
2248.51	314
2250.46	322
2252.4	324
2254.35	332
2256.29	320
2258.24	316
2260.18	306
2262.13	316
2264.07	328
2266.01	310
2267.95	314
2269.89	326
2271.83	322
2273.77	314
2275.71	330
2277.65	320
2279.58	330
2281.52	304
2283.46	318
2285.4	300
2287.33	302
2289.27	336
2291.2	318
2293.13	306
2295.07	326
2297	326
2298.93	324
2300.86	298
2302.79	312
2304.72	324
2306.65	334
2308.58	322
2310.51	330
2312.44	332
2314.37	334
2316.29	342
2318.22	336
2320.15	316
2322.07	308
2324	332
2325.92	314
2327.84	310
2329.77	318
2331.69	338
2333.61	310
2335.53	322
2337.45	326
2339.37	334
2341.29	320
2343.21	324
2345.13	340
2347.05	342
2348.97	340
2350.88	330
2352.8	334
2354.71	338
2356.63	308
2358.54	356
2360.46	316
2362.37	332
2364.28	346
2366.2	336
2368.11	336
2370.02	340
2371.93	312
2373.84	330
2375.75	332
2377.66	328
2379.57	358
2381.47	342
2383.38	324
2385.29	328
2387.2	322
2389.1	344
2391.01	328
2392.91	326
2394.81	320
2396.72	308
2398.62	328
2400.52	338
2402.42	342
2404.33	338
2406.23	316
2408.13	346
2410.03	330
2411.92	346
2413.82	352
2415.72	328
2417.62	332
2419.51	330
2421.41	330
2423.31	348
2425.2	338
2427.1	346
2428.99	340
2430.88	330
2432.78	330
2434.67	346
2436.56	346
2438.45	338
2440.34	332
2442.23	348
2444.12	350
2446.01	346
2447.9	364
2449.79	336