File: Jesse_Dataset_v2/Pure Raman/Polystyrene/633nm/ps-ppo-7jan25-1,0000-map3_Y00_X04.txt
182.393	1088
184.993	1002
187.593	996
190.193	1010
192.79	972
195.387	954
197.983	964
200.578	956
203.174	942
205.766	996
208.36	1030
210.951	1036
213.542	1044
216.131	1080
218.721	1108
221.309	1114
223.897	1088
226.483	1062
229.069	1016
231.654	936
234.238	872
236.821	782
239.404	700
241.984	620
244.566	528
247.145	484
249.723	462
252.302	440
254.878	404
257.455	410
260.03	372
262.604	372
265.178	354
267.75	352
270.322	356
272.893	352
275.463	358
278.032	338
280.601	334
283.168	308
285.734	296
288.301	306
290.866	282
293.429	282
295.992	266
298.556	276
301.117	266
303.677	264
306.236	250
308.795	272
311.354	246
313.911	254
316.467	258
319.022	266
321.577	272
324.13	264
326.684	252
329.236	254
331.787	268
334.337	266
336.887	256
339.435	252
341.983	250
344.529	242
347.075	250
349.621	234
352.165	254
354.708	246
357.251	228
359.793	250
362.334	226
364.874	224
367.413	250
369.951	256
372.489	258
375.026	260
377.562	276
380.097	264
382.631	260
385.164	276
387.697	282
390.229	300
392.76	294
395.29	302
397.819	290
400.346	316
402.873	338
405.4	354
407.926	372
410.451	364
412.976	346
415.499	340
418.02	300
420.542	300
423.063	276
425.583	274
428.101	268
430.619	242
433.137	258
435.654	242
438.169	250
440.684	252
443.198	238
445.712	230
448.223	230
450.735	238
453.246	232
455.755	208
458.264	204
460.771	214
463.279	218
465.786	200
468.291	218
470.796	210
473.301	198
475.803	216
478.306	212
480.807	208
483.308	190
485.807	200
488.307	196
490.804	210
493.302	208
495.798	198
498.294	208
500.788	212
503.283	208
505.775	226
508.269	218
510.759	210
513.251	212
515.74	204
518.23	204
520.718	214
523.204	230
525.692	236
528.177	242
530.663	250
533.147	252
535.629	258
538.113	280
540.594	266
543.074	278
545.555	282
548.034	266
550.512	270
552.989	276
555.467	246
557.942	282
560.417	266
562.892	278
565.365	282
567.838	264
570.309	262
572.78	282
575.251	276
577.72	268
580.189	270
582.656	240
585.123	222
587.589	222
590.055	240
592.52	232
594.983	242
597.446	232
599.908	248
602.369	250
604.829	256
607.289	274
609.747	322
612.205	288
614.663	336
617.119	448
619.574	698
622.029	1122
624.483	970
626.936	570
629.389	352
631.84	330
634.291	256
636.741	252
639.19	218
641.639	206
644.086	216
646.533	206
648.979	190
651.424	192
653.869	196
656.313	190
658.754	196
661.196	180
663.638	188
666.078	184
668.518	192
670.957	192
673.394	190
675.831	174
678.268	182
680.703	200
683.137	188
685.571	188
688.005	186
690.437	178
692.868	180
695.299	208
697.729	210
700.159	210
702.586	216
705.014	238
707.441	246
709.866	240
712.292	220
714.716	234
717.14	236
719.563	228
721.984	262
724.406	322
726.825	346
729.246	328
731.665	288
734.082	290
736.5	284
738.916	344
741.332	380
743.746	396
746.161	400
748.574	412
750.987	418
753.398	422
755.81	432
758.219	472
760.629	502
763.037	496
765.445	484
767.852	468
770.258	436
772.664	410
775.068	430
777.472	440
779.876	436
782.278	450
784.679	532
787.08	576
789.48	630
791.879	666
794.278	692
796.675	678
799.072	702
801.467	664
803.864	544
806.258	468
808.651	436
811.044	424
813.437	404
815.828	360
818.218	356
820.608	308
822.997	320
825.385	288
827.773	286
830.16	292
832.546	292
834.931	304
837.315	338
839.699	348
842.081	386
844.463	390
846.844	384
849.226	374
851.606	346
853.985	318
856.363	318
858.741	298
861.117	300
863.493	306
865.868	312
868.243	300
870.616	320
872.989	314
875.36	298
877.731	304
880.102	326
882.472	308
884.841	276
887.209	296
889.577	314
891.944	298
894.31	306
896.674	286
899.039	324
901.403	340
903.766	350
906.128	352
908.49	382
910.849	368
913.209	350
915.569	338
917.927	294
920.284	278
922.641	280
924.997	272
927.353	268
929.707	266
932.061	268
934.414	278
936.765	282
939.117	302
941.469	300
943.818	284
946.167	294
948.515	302
950.863	266
953.211	272
955.556	312
957.902	310
960.246	298
962.59	324
964.933	322
967.276	334
969.617	348
971.958	334
974.298	356
976.638	366
978.976	426
981.314	502
983.651	544
985.988	606
988.323	792
990.659	1190
992.992	1786
995.325	1934
997.658	2332
999.99	4180
1002.32	6552
1004.65	6232
1006.98	3408
1009.31	1594
1011.64	862
1013.97	584
1016.29	502
1018.62	456
1020.94	528
1023.27	656
1025.59	814
1027.91	1172
1030.24	1668
1032.56	1998
1034.88	1884
1037.2	1448
1039.52	1010
1041.84	728
1044.15	560
1046.47	488
1048.79	470
1051.1	430
1053.42	430
1055.73	426
1058.04	412
1060.36	414
1062.67	420
1064.98	438
1067.29	458
1069.6	454
1071.91	452
1074.22	472
1076.52	462
1078.83	434
1081.14	454
1083.44	452
1085.75	458
1088.05	430
1090.35	434
1092.65	456
1094.95	450
1097.26	452
1099.56	464
1101.86	434
1104.15	428
1106.45	414
1108.75	380
1111.05	372
1113.34	366
1115.64	352
1117.93	336
1120.22	336
1122.52	298
1124.81	322
1127.1	276
1129.39	304
1131.68	294
1133.97	304
1136.26	310
1138.54	336
1140.83	348
1143.12	360
1145.4	382
1147.69	460
1149.97	540
1152.25	678
1154.54	902
1156.82	1000
1159.1	866
1161.38	746
1163.66	592
1165.94	520
1168.22	536
1170.49	546
1172.77	574
1175.05	666
1177.32	786
1179.6	988
1181.87	1200
1184.14	1178
1186.42	1146
1188.69	1090
1190.96	1072
1193.23	1192
1195.5	1218
1197.77	1218
1200.03	1220
1202.3	1176
1204.57	1128
1206.83	974
1209.1	828
1211.36	728
1213.63	652
1215.89	562
1218.15	560
1220.41	492
1222.67	496
1224.93	482
1227.19	468
1229.45	456
1231.71	418
1233.97	408
1236.22	406
1238.48	416
1240.73	422
1242.99	382
1245.24	378
1247.5	386
1249.75	378
1252	386
1254.25	388
1256.5	372
1258.75	360
1261	358
1263.25	378
1265.49	378
1267.74	364
1269.99	388
1272.23	378
1274.48	372
1276.72	344
1278.96	348
1281.21	356
1283.45	382
1285.69	374
1287.93	410
1290.17	386
1292.41	394
1294.64	398
1296.88	408
1299.12	422
1301.36	432
1303.59	424
1305.82	446
1308.06	440
1310.29	460
1312.52	468
1314.76	482
1316.99	488
1319.22	516
1321.45	532
1323.68	534
1325.9	556
1328.13	542
1330.36	524
1332.58	578
1334.81	540
1337.04	500
1339.26	476
1341.48	458
1343.71	442
1345.93	430
1348.15	398
1350.37	420
1352.59	400
1354.81	408
1357.03	406
1359.24	420
1361.46	402
1363.68	394
1365.89	400
1368.11	412
1370.32	394
1372.54	414
1374.75	392
1376.96	394
1379.17	368
1381.38	362
1383.59	354
1385.8	326
1388.01	324
1390.22	308
1392.43	302
1394.63	306
1396.84	324
1399.05	310
1401.25	288
1403.45	322
1405.66	302
1407.86	314
1410.06	304
1412.26	280
1414.46	316
1416.66	312
1418.86	288
1421.06	286
1423.26	302
1425.46	282
1427.65	286
1429.85	282
1432.04	328
1434.24	360
1436.43	374
1438.62	440
1440.82	458
1443.01	534
1445.2	558
1447.39	582
1449.58	622
1451.77	638
1453.95	600
1456.14	584
1458.33	472
1460.52	430
1462.7	368
1464.89	328
1467.07	328
1469.25	312
1471.44	312
1473.62	306
1475.8	336
1477.98	306
1480.16	298
1482.34	312
1484.52	302
1486.7	322
1488.87	300
1491.05	306
1493.23	340
1495.4	326
1497.58	320
1499.75	296
1501.92	316
1504.1	300
1506.27	308
1508.44	284
1510.61	270
1512.78	284
1514.95	318
1517.12	290
1519.28	280
1521.45	318
1523.62	296
1525.78	286
1527.95	310
1530.11	296
1532.28	286
1534.44	304
1536.6	296
1538.76	310
1540.93	308
1543.09	310
1545.25	294
1547.41	306
1549.56	310
1551.72	322
1553.88	294
1556.03	330
1558.19	330
1560.35	322
1562.5	336
1564.65	320
1566.81	366
1568.96	368
1571.11	390
1573.26	406
1575.41	454
1577.56	498
1579.71	624
1581.86	826
1584.01	1014
1586.15	958
1588.3	714
1590.45	630
1592.59	632
1594.74	682
1596.88	892
1599.02	1250
1601.17	1678
1603.31	1952
1605.45	1742
1607.59	1348
1609.73	972
1611.87	718
1614.01	582
1616.14	524
1618.28	466
1620.42	416
1622.55	422
1624.69	396
1626.82	352
1628.96	362
1631.09	374
1633.22	350
1635.36	328
1637.49	360
1639.62	334
1641.75	370
1643.88	382
1646	366
1648.13	376
1650.26	386
1652.39	370
1654.51	350
1656.64	346
1658.76	318
1660.89	334
1663.01	338
1665.13	324
1667.26	316
1669.38	316
1671.5	340
1673.62	352
1675.74	346
1677.86	340
1679.97	314
1682.09	314
1684.21	322
1686.33	304
1688.44	318
1690.56	322
1692.67	328
1694.78	312
1696.9	330
1699.01	322
1701.12	340
1703.23	322
1705.34	320
1707.45	332
1709.56	324
1711.67	318
1713.78	318
1715.88	306
1717.99	304
1720.1	318
1722.2	324
1724.31	308
1726.41	304
1728.51	322
1730.62	334
1732.72	308
1734.82	322
1736.92	316
1739.02	324
1741.12	312
1743.22	318
1745.32	296
1747.42	318
1749.51	312
1751.61	330
1753.7	314
1755.8	320
1757.89	296
1759.99	324
1762.08	314
1764.17	312
1766.26	312
1768.36	326
1770.45	320
1772.54	336
1774.62	314
1776.71	320
1778.8	334
1780.89	312
1782.98	328
1785.06	332
1787.15	304
1789.23	330
1791.32	320
1793.4	318
1795.48	330
1797.56	342
1799.65	342
1801.73	310
1803.81	330
1805.89	304
1807.97	330
1810.04	328
1812.12	338
1814.2	340
1816.28	354
1818.35	326
1820.43	340
1822.5	338
1824.58	344
1826.65	316
1828.72	326
1830.79	310
1832.86	316
1834.94	322
1837.01	332
1839.08	330
1841.15	334
1843.21	318
1845.28	328
1847.35	340
1849.41	326
1851.48	304
1853.55	342
1855.61	338
1857.67	344
1859.74	316
1861.8	314
1863.86	322
1865.92	328
1867.98	316
1870.05	320
1872.1	332
1874.16	338
1876.22	338
1878.28	338
1880.34	322
1882.39	340
1884.45	354
1886.5	312
1888.56	334
1890.61	332
1892.67	334
1894.72	334
1896.77	326
1898.82	342
1900.87	348
1902.92	334
1904.97	342
1907.02	318
1909.07	318
1911.12	354
1913.17	338
1915.21	342
1917.26	312
1919.3	338
1921.35	364
1923.39	350
1925.43	344
1927.48	360
1929.52	344
1931.56	348
1933.6	354
1935.64	348
1937.68	334
1939.72	348
1941.76	334
1943.8	342
1945.83	346
1947.87	336
1949.91	336
1951.94	322
1953.98	338
1956.01	350
1958.05	346
1960.08	352
1962.11	334
1964.14	336
1966.17	350
1968.2	352
1970.23	340
1972.26	350
1974.29	346
1976.32	342
1978.35	344
1980.37	348
1982.4	344
1984.43	334
1986.45	338
1988.48	336
1990.5	344
1992.52	340
1994.55	328
1996.57	314
1998.59	332
2000.61	334
2002.63	350
2004.65	350
2006.67	358
2008.69	346
2010.7	346
2012.72	342
2014.74	328
2016.75	360
2018.77	342
2020.78	368
2022.8	348
2024.81	338
2026.83	346
2028.84	356
2030.85	346
2032.86	336
2034.87	350
2036.88	334
2038.89	350
2040.9	342
2042.91	332
2044.91	352
2046.92	348
2048.93	342
2050.93	364
2052.94	358
2054.94	360
2056.95	340
2058.95	362
2060.95	350
2062.95	356
2064.96	366
2066.96	360
2068.96	346
2070.96	350
2072.96	346
2074.95	322
2076.95	340
2078.95	366
2080.95	364
2082.94	338
2084.94	356
2086.93	336
2088.93	350
2090.92	348
2092.91	364
2094.91	342
2096.9	350
2098.89	336
2100.88	362
2102.87	340
2104.86	342
2106.85	346
2108.84	354
2110.83	370
2112.81	348
2114.8	354
2116.78	340
2118.77	336
2120.75	352
2122.74	348
2124.72	334
2126.71	350
2128.69	340
2130.67	350
2132.65	352
2134.63	364
2136.61	366
2138.59	336
2140.57	352
2142.55	356
2144.53	368
2146.5	356
2148.48	364
2150.46	354
2152.43	358
2154.41	374
2156.38	344
2158.35	340
2160.33	364
2162.3	326
2164.27	370
2166.24	342
2168.21	370
2170.18	360
2172.15	346
2174.12	354
2176.09	358
2178.06	352
2180.03	344
2181.99	358
2183.96	352
2185.92	348
2187.89	378
2189.85	344
2191.82	356
2193.78	346
2195.74	354
2197.7	360
2199.67	368
2201.63	354
2203.59	366
2205.55	360
2207.51	364
2209.46	352
2211.42	352
2213.38	376
2215.34	356
2217.29	342
2219.25	360
2221.2	360
2223.16	344
2225.11	352
2227.06	354
2229.02	356
2230.97	368
2232.92	350
2234.87	354
2236.82	358
2238.77	368
2240.72	356
2242.67	378
2244.62	358
2246.57	350
2248.51	352
2250.46	358
2252.4	368
2254.35	370
2256.29	334
2258.24	358
2260.18	370
2262.13	346
2264.07	356
2266.01	352
2267.95	364
2269.89	356
2271.83	382
2273.77	374
2275.71	352
2277.65	362
2279.58	366
2281.52	350
2283.46	352
2285.4	342
2287.33	384
2289.27	348
2291.2	344
2293.13	360
2295.07	374
2297	354
2298.93	370
2300.86	368
2302.79	368
2304.72	376
2306.65	364
2308.58	374
2310.51	372
2312.44	376
2314.37	390
2316.29	350
2318.22	374
2320.15	366
2322.07	376
2324	376
2325.92	366
2327.84	362
2329.77	390
2331.69	352
2333.61	378
2335.53	370
2337.45	366
2339.37	356
2341.29	374
2343.21	366
2345.13	374
2347.05	374
2348.97	378
2350.88	362
2352.8	386
2354.71	362
2356.63	356
2358.54	360
2360.46	364
2362.37	378
2364.28	362
2366.2	380
2368.11	372
2370.02	346
2371.93	346
2373.84	368
2375.75	342
2377.66	370
2379.57	350
2381.47	380
2383.38	352
2385.29	336
2387.2	362
2389.1	366
2391.01	354
2392.91	362
2394.81	368
2396.72	376
2398.62	342
2400.52	362
2402.42	386
2404.33	364
2406.23	370
2408.13	362
2410.03	370
2411.92	380
2413.82	368
2415.72	376
2417.62	370
2419.51	340
2421.41	362
2423.31	348
2425.2	396
2427.1	380
2428.99	362
2430.88	352
2432.78	374
2434.67	362
2436.56	362
2438.45	386
2440.34	378
2442.23	366
2444.12	376
2446.01	358
2447.9	394
2449.79	388