File: Jesse_Dataset_v2/Pure Raman/Polystyrene/633nm/ps-ppo-7jan25-1,0000-map3_Y07_X10.txt
182.393	1150
184.993	1068
187.593	1056
190.193	1036
192.79	1020
195.387	1014
197.983	992
200.578	996
203.174	1014
205.766	1046
208.36	1088
210.951	1096
213.542	1108
216.131	1094
218.721	1154
221.309	1118
223.897	1158
226.483	1116
229.069	1046
231.654	990
234.238	902
236.821	848
239.404	726
241.984	652
244.566	602
247.145	540
249.723	506
252.302	460
254.878	446
257.455	426
260.03	426
262.604	428
265.178	422
267.75	410
270.322	430
272.893	412
275.463	388
278.032	386
280.601	418
283.168	384
285.734	356
288.301	318
290.866	364
293.429	338
295.992	342
298.556	326
301.117	306
303.677	310
306.236	304
308.795	326
311.354	326
313.911	322
316.467	346
319.022	312
321.577	324
324.13	326
326.684	312
329.236	314
331.787	324
334.337	332
336.887	320
339.435	322
341.983	320
344.529	324
347.075	310
349.621	318
352.165	292
354.708	282
357.251	304
359.793	306
362.334	306
364.874	310
367.413	292
369.951	310
372.489	312
375.026	302
377.562	294
380.097	312
382.631	352
385.164	342
387.697	350
390.229	350
392.76	370
395.29	370
397.819	358
400.346	388
402.873	404
405.4	410
407.926	442
410.451	418
412.976	434
415.499	398
418.02	374
420.542	374
423.063	354
425.583	334
428.101	328
430.619	342
433.137	320
435.654	302
438.169	294
440.684	330
443.198	296
445.712	288
448.223	292
450.735	272
453.246	284
455.755	276
458.264	270
460.771	258
463.279	298
465.786	268
468.291	258
470.796	266
473.301	276
475.803	266
478.306	266
480.807	278
483.308	264
485.807	262
488.307	288
490.804	266
493.302	306
495.798	282
498.294	272
500.788	296
503.283	272
505.775	294
508.269	316
510.759	288
513.251	280
515.74	272
518.23	294
520.718	298
523.204	306
525.692	310
528.177	310
530.663	312
533.147	332
535.629	324
538.113	358
540.594	356
543.074	386
545.555	398
548.034	364
550.512	358
552.989	336
555.467	342
557.942	346
560.417	364
562.892	362
565.365	360
567.838	376
570.309	346
572.78	348
575.251	366
577.72	356
580.189	362
582.656	324
585.123	300
587.589	302
590.055	310
592.52	322
594.983	328
597.446	320
599.908	338
602.369	332
604.829	344
607.289	378
609.747	384
612.205	416
614.663	440
617.119	534
619.574	826
622.029	1214
624.483	1074
626.936	642
629.389	430
631.84	386
634.291	356
636.741	342
639.19	302
641.639	318
644.086	302
646.533	288
648.979	280
651.424	272
653.869	280
656.313	284
658.754	284
661.196	290
663.638	266
666.078	280
668.518	290
670.957	286
673.394	284
675.831	272
678.268	294
680.703	284
683.137	286
685.571	288
688.005	304
690.437	274
692.868	272
695.299	294
697.729	288
700.159	326
702.586	322
705.014	326
707.441	338
709.866	326
712.292	324
714.716	314
717.14	362
719.563	356
721.984	372
724.406	408
726.825	450
729.246	418
731.665	414
734.082	416
736.5	430
738.916	466
741.332	486
743.746	504
746.161	486
748.574	526
750.987	516
753.398	512
755.81	568
758.219	584
760.629	586
763.037	622
765.445	564
767.852	572
770.258	558
772.664	558
775.068	564
777.472	542
779.876	578
782.278	584
784.679	638
787.08	682
789.48	730
791.879	744
794.278	784
796.675	784
799.072	826
801.467	752
803.864	646
806.258	596
808.651	558
811.044	520
813.437	472
815.828	480
818.218	428
820.608	418
822.997	362
825.385	394
827.773	368
830.16	390
832.546	422
834.931	422
837.315	444
839.699	462
842.081	502
844.463	474
846.844	476
849.226	442
851.606	444
853.985	422
856.363	426
858.741	420
861.117	432
863.493	400
865.868	418
868.243	434
870.616	428
872.989	410
875.36	414
877.731	416
880.102	384
882.472	412
884.841	396
887.209	400
889.577	400
891.944	412
894.31	402
896.674	416
899.039	422
901.403	432
903.766	456
906.128	470
908.49	470
910.849	474
913.209	440
915.569	406
917.927	402
920.284	376
922.641	378
924.997	362
927.353	404
929.707	368
932.061	360
934.414	374
936.765	366
939.117	380
941.469	368
943.818	372
946.167	380
948.515	352
950.863	406
953.211	364
955.556	374
957.902	416
960.246	392
962.59	400
964.933	428
967.276	426
969.617	470
971.958	430
974.298	454
976.638	472
978.976	534
981.314	592
983.651	636
985.988	716
988.323	896
990.659	1344
992.992	1844
995.325	2030
997.658	2440
999.99	4376
1002.32	6650
1004.65	6198
1006.98	3524
1009.31	1674
1011.64	956
1013.97	712
1016.29	618
1018.62	580
1020.94	654
1023.27	742
1025.59	984
1027.91	1280
1030.24	1760
1032.56	2074
1034.88	2030
1037.2	1524
1039.52	1080
1041.84	850
1044.15	702
1046.47	624
1048.79	564
1051.1	520
1053.42	524
1055.73	522
1058.04	484
1060.36	476
1062.67	520
1064.98	504
1067.29	544
1069.6	544
1071.91	552
1074.22	540
1076.52	566
1078.83	528
1081.14	556
1083.44	550
1085.75	542
1088.05	528
1090.35	534
1092.65	532
1094.95	540
1097.26	528
1099.56	526
1101.86	524
1104.15	520
1106.45	484
1108.75	480
1111.05	464
1113.34	432
1115.64	434
1117.93	410
1120.22	430
1122.52	402
1124.81	378
1127.1	384
1129.39	390
1131.68	364
1133.97	350
1136.26	378
1138.54	394
1140.83	414
1143.12	440
1145.4	454
1147.69	532
1149.97	608
1152.25	774
1154.54	1012
1156.82	1052
1159.1	968
1161.38	824
1163.66	662
1165.94	612
1168.22	582
1170.49	606
1172.77	626
1175.05	710
1177.32	862
1179.6	1066
1181.87	1232
1184.14	1328
1186.42	1214
1188.69	1170
1190.96	1170
1193.23	1230
1195.5	1288
1197.77	1330
1200.03	1326
1202.3	1258
1204.57	1118
1206.83	1070
1209.1	956
1211.36	788
1213.63	756
1215.89	638
1218.15	586
1220.41	590
1222.67	534
1224.93	564
1227.19	548
1229.45	504
1231.71	514
1233.97	498
1236.22	498
1238.48	482
1240.73	490
1242.99	486
1245.24	444
1247.5	436
1249.75	452
1252	440
1254.25	438
1256.5	430
1258.75	460
1261	470
1263.25	406
1265.49	434
1267.74	414
1269.99	452
1272.23	442
1274.48	424
1276.72	432
1278.96	428
1281.21	426
1283.45	414
1285.69	428
1287.93	458
1290.17	446
1292.41	470
1294.64	452
1296.88	456
1299.12	492
1301.36	466
1303.59	494
1305.82	464
1308.06	498
1310.29	490
1312.52	540
1314.76	552
1316.99	530
1319.22	550
1321.45	582
1323.68	604
1325.9	608
1328.13	602
1330.36	604
1332.58	612
1334.81	574
1337.04	560
1339.26	532
1341.48	506
1343.71	498
1345.93	484
1348.15	448
1350.37	436
1352.59	442
1354.81	474
1357.03	462
1359.24	442
1361.46	426
1363.68	468
1365.89	450
1368.11	430
1370.32	454
1372.54	472
1374.75	460
1376.96	434
1379.17	412
1381.38	406
1383.59	414
1385.8	388
1388.01	364
1390.22	350
1392.43	350
1394.63	354
1396.84	332
1399.05	342
1401.25	344
1403.45	342
1405.66	358
1407.86	318
1410.06	330
1412.26	318
1414.46	350
1416.66	354
1418.86	334
1421.06	316
1423.26	334
1425.46	320
1427.65	324
1429.85	350
1432.04	382
1434.24	402
1436.43	418
1438.62	478
1440.82	494
1443.01	544
1445.2	614
1447.39	650
1449.58	650
1451.77	664
1453.95	638
1456.14	578
1458.33	532
1460.52	444
1462.7	406
1464.89	354
1467.07	370
1469.25	346
1471.44	348
1473.62	340
1475.8	354
1477.98	338
1480.16	346
1482.34	324
1484.52	350
1486.7	352
1488.87	354
1491.05	338
1493.23	362
1495.4	338
1497.58	362
1499.75	328
1501.92	368
1504.1	348
1506.27	314
1508.44	308
1510.61	344
1512.78	312
1514.95	340
1517.12	348
1519.28	334
1521.45	336
1523.62	322
1525.78	336
1527.95	330
1530.11	314
1532.28	334
1534.44	360
1536.6	344
1538.76	322
1540.93	334
1543.09	326
1545.25	334
1547.41	324
1549.56	346
1551.72	350
1553.88	348
1556.03	348
1558.19	364
1560.35	360
1562.5	354
1564.65	360
1566.81	372
1568.96	416
1571.11	412
1573.26	442
1575.41	484
1577.56	532
1579.71	644
1581.86	894
1584.01	1054
1586.15	966
1588.3	768
1590.45	674
1592.59	638
1594.74	734
1596.88	936
1599.02	1288
1601.17	1732
1603.31	1880
1605.45	1802
1607.59	1334
1609.73	942
1611.87	738
1614.01	612
1616.14	536
1618.28	490
1620.42	464
1622.55	424
1624.69	418
1626.82	388
1628.96	384
1631.09	382
1633.22	378
1635.36	386
1637.49	394
1639.62	372
1641.75	378
1643.88	392
1646	408
1648.13	418
1650.26	382
1652.39	384
1654.51	392
1656.64	352
1658.76	360
1660.89	358
1663.01	354
1665.13	330
1667.26	344
1669.38	364
1671.5	336
1673.62	330
1675.74	352
1677.86	326
1679.97	346
1682.09	352
1684.21	350
1686.33	364
1688.44	326
1690.56	336
1692.67	350
1694.78	344
1696.9	352
1699.01	356
1701.12	344
1703.23	334
1705.34	342
1707.45	350
1709.56	338
1711.67	338
1713.78	332
1715.88	356
1717.99	310
1720.1	320
1722.2	338
1724.31	354
1726.41	350
1728.51	336
1730.62	320
1732.72	348
1734.82	336
1736.92	336
1739.02	332
1741.12	350
1743.22	336
1745.32	320
1747.42	334
1749.51	330
1751.61	330
1753.7	340
1755.8	336
1757.89	336
1759.99	322
1762.08	344
1764.17	336
1766.26	314
1768.36	304
1770.45	326
1772.54	326
1774.62	330
1776.71	340
1778.8	324
1780.89	336
1782.98	362
1785.06	320
1787.15	324
1789.23	320
1791.32	340
1793.4	346
1795.48	338
1797.56	354
1799.65	330
1801.73	338
1803.81	348
1805.89	362
1807.97	336
1810.04	352
1812.12	348
1814.2	342
1816.28	350
1818.35	346
1820.43	346
1822.5	360
1824.58	344
1826.65	328
1828.72	364
1830.79	340
1832.86	334
1834.94	332
1837.01	366
1839.08	344
1841.15	358
1843.21	342
1845.28	350
1847.35	342
1849.41	336
1851.48	354
1853.55	356
1855.61	340
1857.67	352
1859.74	336
1861.8	340
1863.86	344
1865.92	328
1867.98	348
1870.05	346
1872.1	348
1874.16	348
1876.22	348
1878.28	334
1880.34	354
1882.39	340
1884.45	346
1886.5	360
1888.56	332
1890.61	344
1892.67	352
1894.72	340
1896.77	350
1898.82	354
1900.87	358
1902.92	338
1904.97	362
1907.02	338
1909.07	344
1911.12	378
1913.17	348
1915.21	336
1917.26	374
1919.3	346
1921.35	360
1923.39	376
1925.43	352
1927.48	346
1929.52	378
1931.56	390
1933.6	344
1935.64	396
1937.68	354
1939.72	352
1941.76	338
1943.8	354
1945.83	366
1947.87	358
1949.91	342
1951.94	340
1953.98	342
1956.01	364
1958.05	356
1960.08	356
1962.11	346
1964.14	356
1966.17	348
1968.2	362
1970.23	366
1972.26	346
1974.29	366
1976.32	366
1978.35	366
1980.37	368
1982.4	352
1984.43	344
1986.45	344
1988.48	368
1990.5	342
1992.52	350
1994.55	344
1996.57	360
1998.59	350
2000.61	376
2002.63	378
2004.65	360
2006.67	366
2008.69	366
2010.7	376
2012.72	368
2014.74	338
2016.75	362
2018.77	360
2020.78	344
2022.8	364
2024.81	368
2026.83	360
2028.84	372
2030.85	398
2032.86	374
2034.87	380
2036.88	346
2038.89	372
2040.9	372
2042.91	348
2044.91	348
2046.92	388
2048.93	366
2050.93	390
2052.94	338
2054.94	392
2056.95	368
2058.95	350
2060.95	374
2062.95	372
2064.96	368
2066.96	364
2068.96	398
2070.96	382
2072.96	386
2074.95	362
2076.95	380
2078.95	386
2080.95	378
2082.94	380
2084.94	360
2086.93	382
2088.93	382
2090.92	376
2092.91	358
2094.91	350
2096.9	364
2098.89	386
2100.88	380
2102.87	366
2104.86	358
2106.85	354
2108.84	382
2110.83	386
2112.81	390
2114.8	366
2116.78	380
2118.77	366
2120.75	370
2122.74	378
2124.72	390
2126.71	376
2128.69	384
2130.67	374
2132.65	348
2134.63	380
2136.61	376
2138.59	380
2140.57	360
2142.55	370
2144.53	376
2146.5	382
2148.48	372
2150.46	370
2152.43	382
2154.41	360
2156.38	384
2158.35	394
2160.33	368
2162.3	412
2164.27	368
2166.24	388
2168.21	374
2170.18	380
2172.15	360
2174.12	368
2176.09	376
2178.06	380
2180.03	384
2181.99	350
2183.96	374
2185.92	380
2187.89	376
2189.85	408
2191.82	394
2193.78	376
2195.74	382
2197.7	344
2199.67	392
2201.63	396
2203.59	372
2205.55	390
2207.51	362
2209.46	386
2211.42	404
2213.38	376
2215.34	396
2217.29	362
2219.25	380
2221.2	392
2223.16	370
2225.11	370
2227.06	362
2229.02	388
2230.97	368
2232.92	388
2234.87	392
2236.82	392
2238.77	368
2240.72	368
2242.67	398
2244.62	370
2246.57	378
2248.51	370
2250.46	396
2252.4	354
2254.35	382
2256.29	380
2258.24	364
2260.18	394
2262.13	404
2264.07	394
2266.01	370
2267.95	388
2269.89	370
2271.83	380
2273.77	374
2275.71	384
2277.65	384
2279.58	378
2281.52	370
2283.46	382
2285.4	370
2287.33	394
2289.27	368
2291.2	364
2293.13	388
2295.07	378
2297	380
2298.93	396
2300.86	386
2302.79	368
2304.72	392
2306.65	392
2308.58	400
2310.51	370
2312.44	380
2314.37	388
2316.29	364
2318.22	370
2320.15	396
2322.07	388
2324	386
2325.92	380
2327.84	362
2329.77	392
2331.69	396
2333.61	394
2335.53	384
2337.45	394
2339.37	396
2341.29	384
2343.21	394
2345.13	394
2347.05	392
2348.97	400
2350.88	382
2352.8	390
2354.71	386
2356.63	378
2358.54	390
2360.46	372
2362.37	390
2364.28	410
2366.2	386
2368.11	376
2370.02	384
2371.93	392
2373.84	376
2375.75	392
2377.66	368
2379.57	370
2381.47	402
2383.38	392
2385.29	386
2387.2	402
2389.1	406
2391.01	398
2392.91	384
2394.81	392
2396.72	382
2398.62	388
2400.52	348
2402.42	392
2404.33	378
2406.23	382
2408.13	384
2410.03	398
2411.92	380
2413.82	378
2415.72	386
2417.62	384
2419.51	396
2421.41	378
2423.31	396
2425.2	382
2427.1	360
2428.99	384
2430.88	398
2432.78	414
2434.67	388
2436.56	398
2438.45	396
2440.34	388
2442.23	410
2444.12	404
2446.01	412
2447.9	388
2449.79	410