File: Jesse_Dataset_v2/Pure Raman/Polystyrene/633nm/ps-ppo-7jan25-1,0000-map3_Y07_X00.txt
182.393	1070
184.993	998
187.593	1042
190.193	958
192.79	962
195.387	914
197.983	956
200.578	924
203.174	974
205.766	1006
208.36	1018
210.951	1038
213.542	1064
216.131	1116
218.721	1098
221.309	1096
223.897	1078
226.483	1066
229.069	1004
231.654	976
234.238	842
236.821	778
239.404	690
241.984	618
244.566	514
247.145	472
249.723	434
252.302	404
254.878	380
257.455	378
260.03	354
262.604	382
265.178	350
267.75	362
270.322	334
272.893	350
275.463	358
278.032	346
280.601	312
283.168	322
285.734	312
288.301	280
290.866	290
293.429	274
295.992	262
298.556	248
301.117	242
303.677	230
306.236	256
308.795	250
311.354	234
313.911	260
316.467	258
319.022	258
321.577	228
324.13	284
326.684	250
329.236	244
331.787	236
334.337	270
336.887	254
339.435	242
341.983	248
344.529	236
347.075	246
349.621	246
352.165	242
354.708	216
357.251	224
359.793	220
362.334	242
364.874	232
367.413	232
369.951	250
372.489	232
375.026	242
377.562	248
380.097	264
382.631	258
385.164	266
387.697	266
390.229	308
392.76	270
395.29	296
397.819	318
400.346	298
402.873	314
405.4	334
407.926	360
410.451	342
412.976	312
415.499	324
418.02	296
420.542	286
423.063	286
425.583	260
428.101	246
430.619	262
433.137	244
435.654	238
438.169	236
440.684	226
443.198	222
445.712	240
448.223	220
450.735	216
453.246	214
455.755	196
458.264	196
460.771	196
463.279	190
465.786	194
468.291	198
470.796	198
473.301	196
475.803	188
478.306	186
480.807	186
483.308	182
485.807	194
488.307	192
490.804	194
493.302	178
495.798	198
498.294	182
500.788	200
503.283	202
505.775	210
508.269	196
510.759	210
513.251	200
515.74	204
518.23	200
520.718	204
523.204	218
525.692	226
528.177	236
530.663	234
533.147	246
535.629	250
538.113	260
540.594	296
543.074	276
545.555	274
548.034	256
550.512	294
552.989	250
555.467	282
557.942	268
560.417	250
562.892	252
565.365	250
567.838	276
570.309	258
572.78	248
575.251	262
577.72	248
580.189	240
582.656	242
585.123	230
587.589	216
590.055	222
592.52	228
594.983	216
597.446	224
599.908	230
602.369	222
604.829	254
607.289	270
609.747	294
612.205	278
614.663	318
617.119	444
619.574	706
622.029	1124
624.483	966
626.936	526
629.389	348
631.84	296
634.291	268
636.741	214
639.19	230
641.639	198
644.086	196
646.533	182
648.979	174
651.424	186
653.869	178
656.313	168
658.754	186
661.196	190
663.638	168
666.078	172
668.518	174
670.957	172
673.394	180
675.831	182
678.268	178
680.703	182
683.137	166
685.571	192
688.005	176
690.437	190
692.868	178
695.299	182
697.729	192
700.159	224
702.586	228
705.014	238
707.441	222
709.866	224
712.292	206
714.716	214
717.14	228
719.563	226
721.984	256
724.406	294
726.825	320
729.246	298
731.665	258
734.082	294
736.5	298
738.916	348
741.332	390
743.746	392
746.161	410
748.574	402
750.987	420
753.398	446
755.81	446
758.219	484
760.629	508
763.037	492
765.445	482
767.852	462
770.258	454
772.664	436
775.068	444
777.472	430
779.876	456
782.278	490
784.679	502
787.08	586
789.48	640
791.879	652
794.278	678
796.675	702
799.072	696
801.467	652
803.864	556
806.258	506
808.651	452
811.044	418
813.437	386
815.828	352
818.218	332
820.608	334
822.997	298
825.385	296
827.773	276
830.16	268
832.546	280
834.931	288
837.315	330
839.699	354
842.081	384
844.463	386
846.844	386
849.226	348
851.606	334
853.985	314
856.363	300
858.741	316
861.117	298
863.493	302
865.868	308
868.243	314
870.616	316
872.989	306
875.36	312
877.731	308
880.102	316
882.472	300
884.841	292
887.209	296
889.577	288
891.944	278
894.31	308
896.674	274
899.039	308
901.403	360
903.766	364
906.128	376
908.49	378
910.849	362
913.209	344
915.569	334
917.927	292
920.284	292
922.641	252
924.997	276
927.353	256
929.707	254
932.061	274
934.414	270
936.765	276
939.117	268
941.469	274
943.818	268
946.167	284
948.515	284
950.863	276
953.211	266
955.556	290
957.902	272
960.246	290
962.59	312
964.933	338
967.276	316
969.617	364
971.958	326
974.298	336
976.638	378
978.976	412
981.314	468
983.651	536
985.988	638
988.323	806
990.659	1180
992.992	1738
995.325	1928
997.658	2370
999.99	4264
1002.32	6536
1004.65	6104
1006.98	3404
1009.31	1616
1011.64	866
1013.97	582
1016.29	520
1018.62	444
1020.94	534
1023.27	648
1025.59	826
1027.91	1202
1030.24	1630
1032.56	1984
1034.88	1924
1037.2	1458
1039.52	1022
1041.84	754
1044.15	554
1046.47	456
1048.79	454
1051.1	416
1053.42	430
1055.73	404
1058.04	416
1060.36	410
1062.67	416
1064.98	438
1067.29	436
1069.6	448
1071.91	466
1074.22	440
1076.52	452
1078.83	460
1081.14	438
1083.44	438
1085.75	430
1088.05	410
1090.35	416
1092.65	404
1094.95	460
1097.26	438
1099.56	454
1101.86	432
1104.15	440
1106.45	402
1108.75	394
1111.05	372
1113.34	368
1115.64	342
1117.93	344
1120.22	328
1122.52	298
1124.81	286
1127.1	290
1129.39	304
1131.68	278
1133.97	318
1136.26	272
1138.54	296
1140.83	316
1143.12	340
1145.4	398
1147.69	416
1149.97	490
1152.25	680
1154.54	892
1156.82	994
1159.1	872
1161.38	758
1163.66	596
1165.94	522
1168.22	516
1170.49	550
1172.77	578
1175.05	646
1177.32	794
1179.6	976
1181.87	1138
1184.14	1238
1186.42	1114
1188.69	1034
1190.96	1110
1193.23	1196
1195.5	1198
1197.77	1228
1200.03	1228
1202.3	1166
1204.57	1090
1206.83	986
1209.1	862
1211.36	746
1213.63	622
1215.89	590
1218.15	518
1220.41	468
1222.67	452
1224.93	468
1227.19	456
1229.45	426
1231.71	444
1233.97	392
1236.22	422
1238.48	390
1240.73	380
1242.99	382
1245.24	356
1247.5	380
1249.75	374
1252	362
1254.25	376
1256.5	374
1258.75	358
1261	352
1263.25	366
1265.49	386
1267.74	382
1269.99	354
1272.23	352
1274.48	352
1276.72	380
1278.96	364
1281.21	376
1283.45	358
1285.69	370
1287.93	382
1290.17	382
1292.41	376
1294.64	394
1296.88	422
1299.12	406
1301.36	424
1303.59	406
1305.82	448
1308.06	436
1310.29	432
1312.52	452
1314.76	464
1316.99	446
1319.22	476
1321.45	522
1323.68	522
1325.9	526
1328.13	568
1330.36	552
1332.58	536
1334.81	514
1337.04	490
1339.26	472
1341.48	472
1343.71	422
1345.93	412
1348.15	394
1350.37	412
1352.59	408
1354.81	380
1357.03	378
1359.24	368
1361.46	396
1363.68	412
1365.89	392
1368.11	394
1370.32	406
1372.54	362
1374.75	398
1376.96	348
1379.17	334
1381.38	364
1383.59	352
1385.8	334
1388.01	300
1390.22	306
1392.43	296
1394.63	286
1396.84	308
1399.05	296
1401.25	300
1403.45	306
1405.66	284
1407.86	264
1410.06	274
1412.26	308
1414.46	278
1416.66	280
1418.86	276
1421.06	256
1423.26	284
1425.46	294
1427.65	272
1429.85	286
1432.04	312
1434.24	352
1436.43	360
1438.62	412
1440.82	460
1443.01	516
1445.2	536
1447.39	616
1449.58	622
1451.77	632
1453.95	618
1456.14	562
1458.33	478
1460.52	408
1462.7	338
1464.89	330
1467.07	316
1469.25	320
1471.44	300
1473.62	290
1475.8	290
1477.98	284
1480.16	290
1482.34	288
1484.52	274
1486.7	304
1488.87	286
1491.05	292
1493.23	322
1495.4	314
1497.58	324
1499.75	302
1501.92	300
1504.1	278
1506.27	288
1508.44	270
1510.61	278
1512.78	278
1514.95	280
1517.12	278
1519.28	288
1521.45	292
1523.62	270
1525.78	292
1527.95	306
1530.11	258
1532.28	278
1534.44	294
1536.6	310
1538.76	310
1540.93	284
1543.09	292
1545.25	312
1547.41	290
1549.56	302
1551.72	308
1553.88	304
1556.03	332
1558.19	314
1560.35	312
1562.5	322
1564.65	344
1566.81	334
1568.96	336
1571.11	364
1573.26	380
1575.41	422
1577.56	492
1579.71	594
1581.86	820
1584.01	1016
1586.15	906
1588.3	716
1590.45	624
1592.59	620
1594.74	722
1596.88	896
1599.02	1218
1601.17	1686
1603.31	1866
1605.45	1738
1607.59	1322
1609.73	940
1611.87	702
1614.01	552
1616.14	482
1618.28	470
1620.42	388
1622.55	408
1624.69	372
1626.82	358
1628.96	324
1631.09	336
1633.22	360
1635.36	334
1637.49	348
1639.62	338
1641.75	348
1643.88	344
1646	340
1648.13	350
1650.26	352
1652.39	330
1654.51	346
1656.64	312
1658.76	318
1660.89	270
1663.01	310
1665.13	294
1667.26	298
1669.38	306
1671.5	312
1673.62	292
1675.74	284
1677.86	310
1679.97	304
1682.09	284
1684.21	304
1686.33	296
1688.44	290
1690.56	310
1692.67	290
1694.78	324
1696.9	308
1699.01	306
1701.12	314
1703.23	288
1705.34	302
1707.45	302
1709.56	294
1711.67	298
1713.78	280
1715.88	302
1717.99	284
1720.1	296
1722.2	310
1724.31	290
1726.41	284
1728.51	298
1730.62	280
1732.72	280
1734.82	310
1736.92	292
1739.02	308
1741.12	302
1743.22	292
1745.32	294
1747.42	266
1749.51	304
1751.61	286
1753.7	278
1755.8	290
1757.89	286
1759.99	292
1762.08	290
1764.17	288
1766.26	294
1768.36	302
1770.45	308
1772.54	294
1774.62	296
1776.71	288
1778.8	286
1780.89	290
1782.98	280
1785.06	316
1787.15	278
1789.23	282
1791.32	294
1793.4	294
1795.48	284
1797.56	282
1799.65	312
1801.73	300
1803.81	302
1805.89	298
1807.97	316
1810.04	330
1812.12	314
1814.2	312
1816.28	294
1818.35	308
1820.43	298
1822.5	282
1824.58	308
1826.65	314
1828.72	324
1830.79	284
1832.86	286
1834.94	320
1837.01	280
1839.08	314
1841.15	308
1843.21	294
1845.28	290
1847.35	292
1849.41	286
1851.48	306
1853.55	292
1855.61	298
1857.67	306
1859.74	304
1861.8	298
1863.86	312
1865.92	304
1867.98	298
1870.05	314
1872.1	304
1874.16	308
1876.22	326
1878.28	296
1880.34	300
1882.39	294
1884.45	308
1886.5	304
1888.56	298
1890.61	318
1892.67	302
1894.72	300
1896.77	318
1898.82	294
1900.87	306
1902.92	290
1904.97	306
1907.02	298
1909.07	326
1911.12	324
1913.17	310
1915.21	312
1917.26	324
1919.3	338
1921.35	322
1923.39	312
1925.43	340
1927.48	300
1929.52	334
1931.56	312
1933.6	314
1935.64	316
1937.68	334
1939.72	316
1941.76	346
1943.8	324
1945.83	306
1947.87	294
1949.91	282
1951.94	328
1953.98	314
1956.01	322
1958.05	312
1960.08	326
1962.11	342
1964.14	300
1966.17	320
1968.2	316
1970.23	302
1972.26	314
1974.29	324
1976.32	312
1978.35	294
1980.37	324
1982.4	318
1984.43	320
1986.45	320
1988.48	300
1990.5	314
1992.52	326
1994.55	314
1996.57	332
1998.59	314
2000.61	326
2002.63	326
2004.65	322
2006.67	314
2008.69	316
2010.7	318
2012.72	314
2014.74	322
2016.75	324
2018.77	314
2020.78	320
2022.8	324
2024.81	314
2026.83	324
2028.84	320
2030.85	326
2032.86	334
2034.87	312
2036.88	314
2038.89	326
2040.9	328
2042.91	312
2044.91	342
2046.92	326
2048.93	332
2050.93	330
2052.94	334
2054.94	322
2056.95	326
2058.95	310
2060.95	324
2062.95	328
2064.96	332
2066.96	316
2068.96	312
2070.96	318
2072.96	318
2074.95	322
2076.95	314
2078.95	312
2080.95	332
2082.94	346
2084.94	324
2086.93	340
2088.93	330
2090.92	324
2092.91	318
2094.91	308
2096.9	320
2098.89	334
2100.88	336
2102.87	342
2104.86	328
2106.85	316
2108.84	332
2110.83	338
2112.81	332
2114.8	332
2116.78	338
2118.77	338
2120.75	342
2122.74	342
2124.72	322
2126.71	334
2128.69	326
2130.67	344
2132.65	328
2134.63	318
2136.61	336
2138.59	318
2140.57	344
2142.55	332
2144.53	334
2146.5	332
2148.48	320
2150.46	344
2152.43	316
2154.41	344
2156.38	350
2158.35	344
2160.33	330
2162.3	328
2164.27	320
2166.24	326
2168.21	320
2170.18	326
2172.15	336
2174.12	334
2176.09	326
2178.06	306
2180.03	322
2181.99	342
2183.96	332
2185.92	334
2187.89	334
2189.85	316
2191.82	316
2193.78	350
2195.74	346
2197.7	312
2199.67	334
2201.63	348
2203.59	346
2205.55	344
2207.51	338
2209.46	340
2211.42	328
2213.38	340
2215.34	356
2217.29	346
2219.25	342
2221.2	350
2223.16	340
2225.11	344
2227.06	326
2229.02	332
2230.97	340
2232.92	336
2234.87	324
2236.82	326
2238.77	350
2240.72	332
2242.67	338
2244.62	346
2246.57	338
2248.51	330
2250.46	366
2252.4	328
2254.35	336
2256.29	308
2258.24	328
2260.18	330
2262.13	334
2264.07	350
2266.01	344
2267.95	348
2269.89	342
2271.83	342
2273.77	340
2275.71	334
2277.65	344
2279.58	318
2281.52	326
2283.46	334
2285.4	346
2287.33	336
2289.27	348
2291.2	348
2293.13	336
2295.07	346
2297	358
2298.93	316
2300.86	352
2302.79	344
2304.72	336
2306.65	356
2308.58	354
2310.51	346
2312.44	354
2314.37	328
2316.29	342
2318.22	336
2320.15	328
2322.07	346
2324	334
2325.92	352
2327.84	352
2329.77	340
2331.69	352
2333.61	354
2335.53	358
2337.45	348
2339.37	354
2341.29	340
2343.21	356
2345.13	360
2347.05	352
2348.97	342
2350.88	352
2352.8	350
2354.71	352
2356.63	344
2358.54	366
2360.46	350
2362.37	328
2364.28	368
2366.2	366
2368.11	358
2370.02	354
2371.93	360
2373.84	360
2375.75	352
2377.66	362
2379.57	342
2381.47	352
2383.38	366
2385.29	356
2387.2	332
2389.1	354
2391.01	340
2392.91	342
2394.81	356
2396.72	332
2398.62	336
2400.52	324
2402.42	346
2404.33	334
2406.23	358
2408.13	352
2410.03	346
2411.92	350
2413.82	358
2415.72	328
2417.62	358
2419.51	352
2421.41	360
2423.31	346
2425.2	348
2427.1	364
2428.99	352
2430.88	362
2432.78	334
2434.67	372
2436.56	362
2438.45	370
2440.34	388
2442.23	356
2444.12	350
2446.01	356
2447.9	364
2449.79	372