File: Jesse_Dataset_v2/Pure Raman/Polystyrene/633nm/ps-ppo-7jan25-1,0000-map3_Y04_X06.txt
182.393	1002
184.993	978
187.593	932
190.193	930
192.79	902
195.387	918
197.983	886
200.578	920
203.174	928
205.766	932
208.36	982
210.951	992
213.542	1008
216.131	1022
218.721	1040
221.309	1042
223.897	1004
226.483	1040
229.069	972
231.654	896
234.238	814
236.821	736
239.404	656
241.984	564
244.566	518
247.145	448
249.723	400
252.302	388
254.878	342
257.455	376
260.03	328
262.604	334
265.178	304
267.75	302
270.322	312
272.893	300
275.463	304
278.032	292
280.601	290
283.168	260
285.734	260
288.301	244
290.866	260
293.429	234
295.992	216
298.556	234
301.117	224
303.677	220
306.236	210
308.795	224
311.354	196
313.911	208
316.467	208
319.022	222
321.577	218
324.13	224
326.684	226
329.236	202
331.787	220
334.337	224
336.887	224
339.435	212
341.983	214
344.529	202
347.075	212
349.621	204
352.165	198
354.708	202
357.251	200
359.793	188
362.334	192
364.874	186
367.413	196
369.951	204
372.489	202
375.026	226
377.562	206
380.097	214
382.631	242
385.164	246
387.697	254
390.229	248
392.76	250
395.29	266
397.819	266
400.346	264
402.873	298
405.4	336
407.926	330
410.451	324
412.976	316
415.499	282
418.02	276
420.542	248
423.063	250
425.583	224
428.101	228
430.619	224
433.137	220
435.654	202
438.169	208
440.684	214
443.198	196
445.712	198
448.223	208
450.735	206
453.246	190
455.755	156
458.264	172
460.771	174
463.279	180
465.786	176
468.291	156
470.796	178
473.301	172
475.803	168
478.306	160
480.807	170
483.308	166
485.807	156
488.307	168
490.804	160
493.302	158
495.798	166
498.294	168
500.788	178
503.283	188
505.775	174
508.269	190
510.759	184
513.251	172
515.74	182
518.23	176
520.718	194
523.204	198
525.692	204
528.177	202
530.663	210
533.147	232
535.629	232
538.113	232
540.594	244
543.074	256
545.555	264
548.034	236
550.512	240
552.989	248
555.467	236
557.942	230
560.417	242
562.892	242
565.365	248
567.838	228
570.309	256
572.78	236
575.251	244
577.72	244
580.189	246
582.656	222
585.123	212
587.589	210
590.055	204
592.52	204
594.983	206
597.446	214
599.908	220
602.369	212
604.829	242
607.289	254
609.747	286
612.205	250
614.663	320
617.119	414
619.574	700
622.029	1072
624.483	974
626.936	538
629.389	318
631.84	284
634.291	248
636.741	232
639.19	202
641.639	188
644.086	164
646.533	180
648.979	170
651.424	162
653.869	156
656.313	168
658.754	162
661.196	168
663.638	164
666.078	162
668.518	166
670.957	166
673.394	160
675.831	156
678.268	176
680.703	166
683.137	174
685.571	170
688.005	158
690.437	162
692.868	164
695.299	172
697.729	190
700.159	176
702.586	194
705.014	198
707.441	214
709.866	196
712.292	204
714.716	216
717.14	204
719.563	220
721.984	236
724.406	304
726.825	298
729.246	278
731.665	274
734.082	276
736.5	288
738.916	340
741.332	366
743.746	388
746.161	376
748.574	374
750.987	394
753.398	404
755.81	428
758.219	464
760.629	458
763.037	470
765.445	456
767.852	440
770.258	422
772.664	422
775.068	438
777.472	414
779.876	414
782.278	456
784.679	480
787.08	548
789.48	610
791.879	636
794.278	656
796.675	676
799.072	668
801.467	638
803.864	526
806.258	452
808.651	420
811.044	384
813.437	360
815.828	338
818.218	322
820.608	300
822.997	294
825.385	266
827.773	260
830.16	264
832.546	254
834.931	280
837.315	300
839.699	336
842.081	356
844.463	366
846.844	360
849.226	330
851.606	324
853.985	294
856.363	302
858.741	296
861.117	284
863.493	288
865.868	284
868.243	298
870.616	272
872.989	286
875.36	294
877.731	300
880.102	266
882.472	286
884.841	270
887.209	282
889.577	256
891.944	266
894.31	284
896.674	274
899.039	278
901.403	308
903.766	326
906.128	348
908.49	330
910.849	332
913.209	288
915.569	300
917.927	270
920.284	264
922.641	240
924.997	260
927.353	238
929.707	252
932.061	236
934.414	250
936.765	248
939.117	252
941.469	260
943.818	244
946.167	240
948.515	250
950.863	252
953.211	276
955.556	266
957.902	240
960.246	270
962.59	292
964.933	312
967.276	318
969.617	300
971.958	314
974.298	322
976.638	358
978.976	386
981.314	426
983.651	510
985.988	620
988.323	756
990.659	1162
992.992	1718
995.325	1906
997.658	2298
999.99	4172
1002.32	6618
1004.65	6124
1006.98	3416
1009.31	1570
1011.64	814
1013.97	566
1016.29	464
1018.62	452
1020.94	494
1023.27	596
1025.59	826
1027.91	1170
1030.24	1674
1032.56	1982
1034.88	1892
1037.2	1430
1039.52	980
1041.84	688
1044.15	556
1046.47	462
1048.79	432
1051.1	412
1053.42	394
1055.73	390
1058.04	366
1060.36	376
1062.67	392
1064.98	392
1067.29	390
1069.6	404
1071.91	450
1074.22	418
1076.52	428
1078.83	418
1081.14	418
1083.44	414
1085.75	410
1088.05	410
1090.35	432
1092.65	414
1094.95	402
1097.26	422
1099.56	420
1101.86	410
1104.15	382
1106.45	364
1108.75	352
1111.05	328
1113.34	324
1115.64	316
1117.93	300
1120.22	278
1122.52	272
1124.81	260
1127.1	268
1129.39	258
1131.68	270
1133.97	260
1136.26	266
1138.54	284
1140.83	288
1143.12	336
1145.4	356
1147.69	412
1149.97	466
1152.25	650
1154.54	822
1156.82	964
1159.1	868
1161.38	676
1163.66	560
1165.94	508
1168.22	492
1170.49	502
1172.77	550
1175.05	610
1177.32	756
1179.6	914
1181.87	1106
1184.14	1204
1186.42	1074
1188.69	978
1190.96	1048
1193.23	1116
1195.5	1156
1197.77	1210
1200.03	1186
1202.3	1150
1204.57	1050
1206.83	980
1209.1	830
1211.36	730
1213.63	610
1215.89	532
1218.15	494
1220.41	454
1222.67	438
1224.93	430
1227.19	412
1229.45	396
1231.71	394
1233.97	338
1236.22	380
1238.48	350
1240.73	348
1242.99	352
1245.24	346
1247.5	358
1249.75	338
1252	340
1254.25	322
1256.5	342
1258.75	330
1261	328
1263.25	344
1265.49	346
1267.74	334
1269.99	338
1272.23	324
1274.48	324
1276.72	338
1278.96	330
1281.21	332
1283.45	334
1285.69	334
1287.93	340
1290.17	352
1292.41	346
1294.64	354
1296.88	380
1299.12	396
1301.36	402
1303.59	404
1305.82	394
1308.06	384
1310.29	402
1312.52	426
1314.76	414
1316.99	432
1319.22	450
1321.45	490
1323.68	486
1325.9	524
1328.13	520
1330.36	490
1332.58	512
1334.81	508
1337.04	472
1339.26	454
1341.48	436
1343.71	412
1345.93	394
1348.15	378
1350.37	362
1352.59	342
1354.81	358
1357.03	342
1359.24	360
1361.46	352
1363.68	358
1365.89	358
1368.11	370
1370.32	352
1372.54	376
1374.75	356
1376.96	380
1379.17	342
1381.38	318
1383.59	320
1385.8	300
1388.01	278
1390.22	264
1392.43	250
1394.63	252
1396.84	270
1399.05	262
1401.25	244
1403.45	266
1405.66	244
1407.86	272
1410.06	244
1412.26	240
1414.46	252
1416.66	246
1418.86	234
1421.06	250
1423.26	252
1425.46	264
1427.65	260
1429.85	262
1432.04	292
1434.24	300
1436.43	334
1438.62	390
1440.82	420
1443.01	476
1445.2	506
1447.39	568
1449.58	586
1451.77	598
1453.95	558
1456.14	534
1458.33	444
1460.52	360
1462.7	306
1464.89	302
1467.07	268
1469.25	262
1471.44	260
1473.62	274
1475.8	276
1477.98	246
1480.16	250
1482.34	266
1484.52	250
1486.7	252
1488.87	268
1491.05	266
1493.23	282
1495.4	296
1497.58	274
1499.75	260
1501.92	226
1504.1	242
1506.27	256
1508.44	258
1510.61	252
1512.78	246
1514.95	252
1517.12	240
1519.28	250
1521.45	244
1523.62	260
1525.78	268
1527.95	252
1530.11	246
1532.28	256
1534.44	266
1536.6	250
1538.76	246
1540.93	254
1543.09	254
1545.25	278
1547.41	276
1549.56	268
1551.72	278
1553.88	258
1556.03	284
1558.19	272
1560.35	274
1562.5	304
1564.65	296
1566.81	314
1568.96	326
1571.11	338
1573.26	338
1575.41	394
1577.56	432
1579.71	558
1581.86	790
1584.01	950
1586.15	894
1588.3	702
1590.45	588
1592.59	600
1594.74	640
1596.88	878
1599.02	1214
1601.17	1652
1603.31	1884
1605.45	1702
1607.59	1292
1609.73	922
1611.87	686
1614.01	524
1616.14	430
1618.28	404
1620.42	368
1622.55	364
1624.69	352
1626.82	334
1628.96	322
1631.09	314
1633.22	286
1635.36	298
1637.49	282
1639.62	308
1641.75	312
1643.88	310
1646	342
1648.13	342
1650.26	324
1652.39	332
1654.51	302
1656.64	286
1658.76	276
1660.89	276
1663.01	286
1665.13	266
1667.26	280
1669.38	276
1671.5	276
1673.62	272
1675.74	274
1677.86	282
1679.97	264
1682.09	278
1684.21	266
1686.33	258
1688.44	280
1690.56	260
1692.67	274
1694.78	270
1696.9	274
1699.01	286
1701.12	282
1703.23	262
1705.34	260
1707.45	254
1709.56	242
1711.67	256
1713.78	276
1715.88	266
1717.99	282
1720.1	246
1722.2	270
1724.31	268
1726.41	258
1728.51	264
1730.62	272
1732.72	264
1734.82	274
1736.92	264
1739.02	270
1741.12	278
1743.22	268
1745.32	274
1747.42	270
1749.51	256
1751.61	260
1753.7	262
1755.8	256
1757.89	262
1759.99	262
1762.08	274
1764.17	274
1766.26	256
1768.36	262
1770.45	284
1772.54	288
1774.62	266
1776.71	278
1778.8	264
1780.89	270
1782.98	276
1785.06	270
1787.15	272
1789.23	270
1791.32	254
1793.4	284
1795.48	270
1797.56	276
1799.65	268
1801.73	276
1803.81	296
1805.89	278
1807.97	282
1810.04	268
1812.12	274
1814.2	272
1816.28	270
1818.35	280
1820.43	288
1822.5	280
1824.58	284
1826.65	278
1828.72	286
1830.79	274
1832.86	284
1834.94	280
1837.01	274
1839.08	272
1841.15	274
1843.21	280
1845.28	270
1847.35	292
1849.41	284
1851.48	268
1853.55	284
1855.61	280
1857.67	280
1859.74	288
1861.8	256
1863.86	266
1865.92	286
1867.98	294
1870.05	298
1872.1	288
1874.16	284
1876.22	284
1878.28	286
1880.34	286
1882.39	280
1884.45	274
1886.5	272
1888.56	290
1890.61	280
1892.67	294
1894.72	288
1896.77	280
1898.82	286
1900.87	298
1902.92	296
1904.97	278
1907.02	288
1909.07	294
1911.12	290
1913.17	288
1915.21	282
1917.26	280
1919.3	302
1921.35	294
1923.39	290
1925.43	304
1927.48	288
1929.52	312
1931.56	308
1933.6	314
1935.64	294
1937.68	304
1939.72	286
1941.76	294
1943.8	284
1945.83	294
1947.87	292
1949.91	282
1951.94	282
1953.98	278
1956.01	290
1958.05	312
1960.08	288
1962.11	288
1964.14	312
1966.17	302
1968.2	294
1970.23	284
1972.26	302
1974.29	300
1976.32	296
1978.35	296
1980.37	304
1982.4	300
1984.43	290
1986.45	302
1988.48	278
1990.5	274
1992.52	294
1994.55	290
1996.57	302
1998.59	288
2000.61	308
2002.63	284
2004.65	300
2006.67	302
2008.69	316
2010.7	308
2012.72	294
2014.74	302
2016.75	290
2018.77	310
2020.78	316
2022.8	304
2024.81	324
2026.83	304
2028.84	308
2030.85	306
2032.86	294
2034.87	320
2036.88	302
2038.89	310
2040.9	312
2042.91	312
2044.91	322
2046.92	316
2048.93	306
2050.93	320
2052.94	312
2054.94	306
2056.95	316
2058.95	308
2060.95	298
2062.95	318
2064.96	310
2066.96	314
2068.96	324
2070.96	282
2072.96	298
2074.95	312
2076.95	300
2078.95	304
2080.95	294
2082.94	298
2084.94	298
2086.93	314
2088.93	314
2090.92	306
2092.91	302
2094.91	306
2096.9	306
2098.89	304
2100.88	310
2102.87	312
2104.86	318
2106.85	320
2108.84	304
2110.83	302
2112.81	314
2114.8	324
2116.78	310
2118.77	320
2120.75	334
2122.74	312
2124.72	312
2126.71	318
2128.69	334
2130.67	322
2132.65	290
2134.63	306
2136.61	318
2138.59	310
2140.57	316
2142.55	322
2144.53	326
2146.5	318
2148.48	330
2150.46	324
2152.43	316
2154.41	342
2156.38	332
2158.35	328
2160.33	320
2162.3	334
2164.27	312
2166.24	314
2168.21	334
2170.18	328
2172.15	314
2174.12	332
2176.09	296
2178.06	332
2180.03	310
2181.99	326
2183.96	308
2185.92	322
2187.89	332
2189.85	328
2191.82	316
2193.78	330
2195.74	302
2197.7	330
2199.67	332
2201.63	336
2203.59	320
2205.55	322
2207.51	330
2209.46	324
2211.42	330
2213.38	316
2215.34	330
2217.29	322
2219.25	346
2221.2	308
2223.16	316
2225.11	324
2227.06	310
2229.02	328
2230.97	326
2232.92	332
2234.87	330
2236.82	342
2238.77	310
2240.72	324
2242.67	314
2244.62	328
2246.57	322
2248.51	334
2250.46	332
2252.4	318
2254.35	320
2256.29	330
2258.24	324
2260.18	320
2262.13	304
2264.07	324
2266.01	332
2267.95	336
2269.89	330
2271.83	352
2273.77	346
2275.71	338
2277.65	332
2279.58	340
2281.52	342
2283.46	350
2285.4	314
2287.33	350
2289.27	336
2291.2	344
2293.13	312
2295.07	318
2297	314
2298.93	314
2300.86	352
2302.79	336
2304.72	328
2306.65	330
2308.58	338
2310.51	348
2312.44	356
2314.37	336
2316.29	342
2318.22	346
2320.15	334
2322.07	342
2324	336
2325.92	332
2327.84	344
2329.77	332
2331.69	332
2333.61	336
2335.53	346
2337.45	346
2339.37	324
2341.29	336
2343.21	326
2345.13	332
2347.05	348
2348.97	348
2350.88	338
2352.8	342
2354.71	348
2356.63	350
2358.54	340
2360.46	364
2362.37	340
2364.28	338
2366.2	342
2368.11	334
2370.02	336
2371.93	338
2373.84	344
2375.75	330
2377.66	336
2379.57	346
2381.47	336
2383.38	326
2385.29	344
2387.2	334
2389.1	330
2391.01	342
2392.91	340
2394.81	342
2396.72	350
2398.62	348
2400.52	330
2402.42	338
2404.33	348
2406.23	342
2408.13	352
2410.03	344
2411.92	338
2413.82	338
2415.72	338
2417.62	330
2419.51	352
2421.41	330
2423.31	342
2425.2	348
2427.1	346
2428.99	338
2430.88	364
2432.78	344
2434.67	352
2436.56	346
2438.45	348
2440.34	360
2442.23	368
2444.12	352
2446.01	350
2447.9	352
2449.79	360