File: Jesse_Dataset_v2/Pure Raman/Polystyrene/633nm/ps-ppo-7jan25-1,0000-map3_Y01_X08.txt
182.393	1040
184.993	1002
187.593	982
190.193	964
192.79	948
195.387	928
197.983	924
200.578	938
203.174	934
205.766	992
208.36	992
210.951	1044
213.542	1046
216.131	1050
218.721	1112
221.309	1078
223.897	1068
226.483	1078
229.069	964
231.654	918
234.238	848
236.821	782
239.404	704
241.984	626
244.566	532
247.145	478
249.723	454
252.302	384
254.878	384
257.455	370
260.03	346
262.604	350
265.178	356
267.75	346
270.322	336
272.893	328
275.463	328
278.032	314
280.601	328
283.168	316
285.734	286
288.301	272
290.866	274
293.429	256
295.992	248
298.556	254
301.117	228
303.677	240
306.236	234
308.795	242
311.354	236
313.911	252
316.467	250
319.022	244
321.577	240
324.13	258
326.684	242
329.236	244
331.787	256
334.337	244
336.887	240
339.435	230
341.983	252
344.529	240
347.075	238
349.621	256
352.165	230
354.708	234
357.251	222
359.793	226
362.334	220
364.874	234
367.413	240
369.951	222
372.489	230
375.026	234
377.562	262
380.097	248
382.631	266
385.164	276
387.697	282
390.229	284
392.76	270
395.29	296
397.819	294
400.346	302
402.873	328
405.4	350
407.926	356
410.451	344
412.976	318
415.499	328
418.02	298
420.542	292
423.063	270
425.583	260
428.101	244
430.619	252
433.137	230
435.654	246
438.169	232
440.684	222
443.198	242
445.712	224
448.223	222
450.735	210
453.246	206
455.755	212
458.264	202
460.771	192
463.279	192
465.786	182
468.291	188
470.796	190
473.301	190
475.803	194
478.306	194
480.807	190
483.308	182
485.807	182
488.307	176
490.804	186
493.302	186
495.798	182
498.294	198
500.788	192
503.283	190
505.775	198
508.269	200
510.759	204
513.251	216
515.74	182
518.23	198
520.718	208
523.204	210
525.692	218
528.177	222
530.663	242
533.147	242
535.629	232
538.113	258
540.594	260
543.074	276
545.555	262
548.034	254
550.512	252
552.989	256
555.467	256
557.942	252
560.417	248
562.892	258
565.365	264
567.838	256
570.309	270
572.78	266
575.251	250
577.72	288
580.189	222
582.656	226
585.123	224
587.589	208
590.055	212
592.52	214
594.983	206
597.446	208
599.908	220
602.369	228
604.829	244
607.289	276
609.747	270
612.205	280
614.663	318
617.119	410
619.574	690
622.029	1108
624.483	984
626.936	520
629.389	348
631.84	280
634.291	258
636.741	228
639.19	204
641.639	200
644.086	184
646.533	182
648.979	176
651.424	172
653.869	164
656.313	162
658.754	168
661.196	178
663.638	178
666.078	164
668.518	178
670.957	170
673.394	172
675.831	174
678.268	178
680.703	170
683.137	174
685.571	166
688.005	174
690.437	170
692.868	174
695.299	174
697.729	184
700.159	188
702.586	216
705.014	216
707.441	198
709.866	204
712.292	230
714.716	226
717.14	218
719.563	218
721.984	240
724.406	284
726.825	310
729.246	290
731.665	284
734.082	280
736.5	292
738.916	332
741.332	360
743.746	392
746.161	390
748.574	376
750.987	366
753.398	414
755.81	444
758.219	458
760.629	470
763.037	484
765.445	470
767.852	444
770.258	440
772.664	430
775.068	416
777.472	432
779.876	428
782.278	452
784.679	522
787.08	522
789.48	618
791.879	634
794.278	648
796.675	662
799.072	670
801.467	618
803.864	520
806.258	484
808.651	444
811.044	380
813.437	362
815.828	338
818.218	320
820.608	300
822.997	280
825.385	256
827.773	252
830.16	264
832.546	272
834.931	278
837.315	330
839.699	336
842.081	370
844.463	346
846.844	354
849.226	308
851.606	306
853.985	308
856.363	292
858.741	308
861.117	292
863.493	300
865.868	296
868.243	290
870.616	294
872.989	288
875.36	292
877.731	290
880.102	282
882.472	288
884.841	282
887.209	288
889.577	282
891.944	280
894.31	304
896.674	274
899.039	292
901.403	296
903.766	334
906.128	358
908.49	334
910.849	336
913.209	314
915.569	300
917.927	286
920.284	262
922.641	246
924.997	244
927.353	244
929.707	264
932.061	242
934.414	240
936.765	244
939.117	246
941.469	262
943.818	270
946.167	252
948.515	258
950.863	264
953.211	268
955.556	268
957.902	276
960.246	294
962.59	314
964.933	304
967.276	338
969.617	318
971.958	318
974.298	338
976.638	352
978.976	398
981.314	458
983.651	508
985.988	598
988.323	762
990.659	1138
992.992	1724
995.325	1870
997.658	2264
999.99	4130
1002.32	6530
1004.65	6032
1006.98	3430
1009.31	1556
1011.64	838
1013.97	572
1016.29	464
1018.62	466
1020.94	498
1023.27	612
1025.59	828
1027.91	1186
1030.24	1622
1032.56	1910
1034.88	1852
1037.2	1414
1039.52	964
1041.84	682
1044.15	568
1046.47	498
1048.79	456
1051.1	418
1053.42	400
1055.73	388
1058.04	384
1060.36	402
1062.67	396
1064.98	414
1067.29	428
1069.6	414
1071.91	436
1074.22	450
1076.52	442
1078.83	416
1081.14	430
1083.44	422
1085.75	416
1088.05	424
1090.35	410
1092.65	412
1094.95	438
1097.26	428
1099.56	432
1101.86	416
1104.15	422
1106.45	402
1108.75	378
1111.05	338
1113.34	352
1115.64	320
1117.93	310
1120.22	304
1122.52	304
1124.81	290
1127.1	260
1129.39	270
1131.68	302
1133.97	274
1136.26	268
1138.54	284
1140.83	314
1143.12	326
1145.4	354
1147.69	412
1149.97	506
1152.25	656
1154.54	860
1156.82	1008
1159.1	878
1161.38	718
1163.66	568
1165.94	532
1168.22	510
1170.49	526
1172.77	528
1175.05	632
1177.32	764
1179.6	960
1181.87	1112
1184.14	1192
1186.42	1120
1188.69	1040
1190.96	1024
1193.23	1136
1195.5	1198
1197.77	1222
1200.03	1216
1202.3	1156
1204.57	1052
1206.83	958
1209.1	826
1211.36	744
1213.63	632
1215.89	552
1218.15	520
1220.41	478
1222.67	478
1224.93	436
1227.19	468
1229.45	430
1231.71	426
1233.97	420
1236.22	362
1238.48	382
1240.73	368
1242.99	364
1245.24	372
1247.5	370
1249.75	384
1252	360
1254.25	360
1256.5	360
1258.75	358
1261	338
1263.25	368
1265.49	360
1267.74	364
1269.99	372
1272.23	356
1274.48	346
1276.72	334
1278.96	346
1281.21	350
1283.45	348
1285.69	366
1287.93	366
1290.17	384
1292.41	394
1294.64	412
1296.88	396
1299.12	386
1301.36	406
1303.59	416
1305.82	438
1308.06	432
1310.29	428
1312.52	444
1314.76	446
1316.99	440
1319.22	464
1321.45	502
1323.68	522
1325.9	532
1328.13	538
1330.36	518
1332.58	528
1334.81	534
1337.04	512
1339.26	462
1341.48	452
1343.71	426
1345.93	410
1348.15	380
1350.37	408
1352.59	380
1354.81	388
1357.03	376
1359.24	376
1361.46	384
1363.68	386
1365.89	376
1368.11	388
1370.32	386
1372.54	402
1374.75	368
1376.96	364
1379.17	346
1381.38	362
1383.59	324
1385.8	342
1388.01	306
1390.22	294
1392.43	278
1394.63	270
1396.84	282
1399.05	294
1401.25	288
1403.45	288
1405.66	276
1407.86	300
1410.06	294
1412.26	282
1414.46	278
1416.66	266
1418.86	276
1421.06	268
1423.26	258
1425.46	292
1427.65	282
1429.85	300
1432.04	298
1434.24	344
1436.43	370
1438.62	402
1440.82	446
1443.01	500
1445.2	542
1447.39	606
1449.58	600
1451.77	616
1453.95	586
1456.14	558
1458.33	464
1460.52	390
1462.7	346
1464.89	320
1467.07	318
1469.25	316
1471.44	306
1473.62	282
1475.8	296
1477.98	300
1480.16	282
1482.34	286
1484.52	278
1486.7	276
1488.87	290
1491.05	278
1493.23	316
1495.4	324
1497.58	302
1499.75	296
1501.92	274
1504.1	278
1506.27	288
1508.44	280
1510.61	274
1512.78	278
1514.95	264
1517.12	282
1519.28	286
1521.45	284
1523.62	268
1525.78	278
1527.95	284
1530.11	268
1532.28	274
1534.44	284
1536.6	296
1538.76	276
1540.93	290
1543.09	286
1545.25	302
1547.41	304
1549.56	302
1551.72	276
1553.88	308
1556.03	302
1558.19	324
1560.35	302
1562.5	326
1564.65	340
1566.81	330
1568.96	366
1571.11	338
1573.26	378
1575.41	416
1577.56	500
1579.71	596
1581.86	812
1584.01	1006
1586.15	924
1588.3	710
1590.45	610
1592.59	618
1594.74	694
1596.88	890
1599.02	1186
1601.17	1652
1603.31	1858
1605.45	1690
1607.59	1296
1609.73	944
1611.87	696
1614.01	574
1616.14	482
1618.28	462
1620.42	410
1622.55	390
1624.69	348
1626.82	364
1628.96	356
1631.09	348
1633.22	352
1635.36	328
1637.49	332
1639.62	322
1641.75	336
1643.88	342
1646	358
1648.13	368
1650.26	358
1652.39	320
1654.51	342
1656.64	324
1658.76	314
1660.89	306
1663.01	316
1665.13	304
1667.26	278
1669.38	308
1671.5	310
1673.62	300
1675.74	314
1677.86	296
1679.97	304
1682.09	310
1684.21	306
1686.33	306
1688.44	298
1690.56	290
1692.67	302
1694.78	286
1696.9	298
1699.01	304
1701.12	294
1703.23	318
1705.34	282
1707.45	288
1709.56	290
1711.67	286
1713.78	322
1715.88	302
1717.99	294
1720.1	286
1722.2	306
1724.31	306
1726.41	282
1728.51	302
1730.62	276
1732.72	300
1734.82	282
1736.92	286
1739.02	302
1741.12	292
1743.22	308
1745.32	294
1747.42	296
1749.51	282
1751.61	310
1753.7	300
1755.8	278
1757.89	300
1759.99	274
1762.08	286
1764.17	300
1766.26	298
1768.36	302
1770.45	302
1772.54	292
1774.62	312
1776.71	286
1778.8	304
1780.89	300
1782.98	294
1785.06	284
1787.15	302
1789.23	296
1791.32	290
1793.4	290
1795.48	310
1797.56	308
1799.65	286
1801.73	296
1803.81	314
1805.89	300
1807.97	312
1810.04	312
1812.12	314
1814.2	322
1816.28	298
1818.35	296
1820.43	304
1822.5	290
1824.58	302
1826.65	316
1828.72	304
1830.79	292
1832.86	296
1834.94	298
1837.01	296
1839.08	318
1841.15	308
1843.21	304
1845.28	298
1847.35	310
1849.41	306
1851.48	312
1853.55	290
1855.61	308
1857.67	300
1859.74	292
1861.8	296
1863.86	324
1865.92	306
1867.98	306
1870.05	304
1872.1	302
1874.16	296
1876.22	306
1878.28	310
1880.34	304
1882.39	310
1884.45	326
1886.5	304
1888.56	308
1890.61	296
1892.67	310
1894.72	308
1896.77	326
1898.82	320
1900.87	296
1902.92	314
1904.97	308
1907.02	304
1909.07	340
1911.12	334
1913.17	334
1915.21	310
1917.26	306
1919.3	304
1921.35	306
1923.39	340
1925.43	314
1927.48	324
1929.52	320
1931.56	314
1933.6	320
1935.64	322
1937.68	328
1939.72	328
1941.76	326
1943.8	326
1945.83	314
1947.87	308
1949.91	318
1951.94	336
1953.98	318
1956.01	316
1958.05	308
1960.08	316
1962.11	316
1964.14	328
1966.17	312
1968.2	324
1970.23	324
1972.26	326
1974.29	324
1976.32	314
1978.35	298
1980.37	314
1982.4	318
1984.43	320
1986.45	322
1988.48	318
1990.5	298
1992.52	310
1994.55	310
1996.57	312
1998.59	320
2000.61	318
2002.63	332
2004.65	328
2006.67	288
2008.69	312
2010.7	320
2012.72	320
2014.74	316
2016.75	318
2018.77	332
2020.78	332
2022.8	328
2024.81	322
2026.83	340
2028.84	332
2030.85	332
2032.86	314
2034.87	324
2036.88	338
2038.89	328
2040.9	342
2042.91	342
2044.91	330
2046.92	336
2048.93	344
2050.93	336
2052.94	340
2054.94	334
2056.95	342
2058.95	330
2060.95	326
2062.95	326
2064.96	324
2066.96	358
2068.96	320
2070.96	344
2072.96	334
2074.95	338
2076.95	334
2078.95	320
2080.95	330
2082.94	338
2084.94	330
2086.93	340
2088.93	326
2090.92	316
2092.91	334
2094.91	326
2096.9	342
2098.89	316
2100.88	328
2102.87	342
2104.86	338
2106.85	322
2108.84	334
2110.83	338
2112.81	340
2114.8	348
2116.78	320
2118.77	356
2120.75	344
2122.74	352
2124.72	328
2126.71	330
2128.69	338
2130.67	320
2132.65	338
2134.63	320
2136.61	348
2138.59	330
2140.57	304
2142.55	346
2144.53	342
2146.5	330
2148.48	334
2150.46	342
2152.43	326
2154.41	346
2156.38	344
2158.35	344
2160.33	344
2162.3	338
2164.27	348
2166.24	346
2168.21	328
2170.18	330
2172.15	346
2174.12	352
2176.09	320
2178.06	338
2180.03	336
2181.99	334
2183.96	332
2185.92	338
2187.89	346
2189.85	328
2191.82	354
2193.78	356
2195.74	338
2197.7	346
2199.67	344
2201.63	348
2203.59	336
2205.55	348
2207.51	330
2209.46	350
2211.42	340
2213.38	334
2215.34	340
2217.29	362
2219.25	344
2221.2	346
2223.16	348
2225.11	330
2227.06	346
2229.02	342
2230.97	342
2232.92	340
2234.87	344
2236.82	348
2238.77	330
2240.72	346
2242.67	342
2244.62	342
2246.57	352
2248.51	344
2250.46	350
2252.4	336
2254.35	340
2256.29	356
2258.24	344
2260.18	344
2262.13	352
2264.07	346
2266.01	338
2267.95	358
2269.89	334
2271.83	354
2273.77	324
2275.71	360
2277.65	340
2279.58	360
2281.52	338
2283.46	356
2285.4	336
2287.33	336
2289.27	338
2291.2	366
2293.13	350
2295.07	330
2297	338
2298.93	356
2300.86	346
2302.79	328
2304.72	364
2306.65	360
2308.58	356
2310.51	344
2312.44	338
2314.37	344
2316.29	362
2318.22	356
2320.15	352
2322.07	348
2324	364
2325.92	352
2327.84	370
2329.77	358
2331.69	338
2333.61	366
2335.53	368
2337.45	352
2339.37	360
2341.29	340
2343.21	352
2345.13	354
2347.05	362
2348.97	372
2350.88	352
2352.8	352
2354.71	344
2356.63	368
2358.54	370
2360.46	362
2362.37	360
2364.28	354
2366.2	364
2368.11	354
2370.02	366
2371.93	338
2373.84	370
2375.75	358
2377.66	358
2379.57	354
2381.47	344
2383.38	354
2385.29	362
2387.2	360
2389.1	374
2391.01	356
2392.91	352
2394.81	328
2396.72	358
2398.62	364
2400.52	368
2402.42	362
2404.33	366
2406.23	354
2408.13	350
2410.03	362
2411.92	364
2413.82	358
2415.72	332
2417.62	350
2419.51	360
2421.41	380
2423.31	368
2425.2	368
2427.1	340
2428.99	368
2430.88	370
2432.78	360
2434.67	382
2436.56	390
2438.45	372
2440.34	360
2442.23	364
2444.12	376
2446.01	378
2447.9	370
2449.79	384