File: Jesse_Dataset_v2/Pure Raman/Polystyrene/633nm/ps-ppo-7jan25-1,0000-map3_Y04_X00.txt
182.393	1008
184.993	1028
187.593	1010
190.193	996
192.79	924
195.387	952
197.983	938
200.578	918
203.174	972
205.766	938
208.36	1014
210.951	1010
213.542	1076
216.131	1098
218.721	1068
221.309	1090
223.897	1106
226.483	1044
229.069	998
231.654	922
234.238	854
236.821	720
239.404	654
241.984	622
244.566	526
247.145	474
249.723	448
252.302	410
254.878	386
257.455	356
260.03	376
262.604	352
265.178	338
267.75	366
270.322	332
272.893	352
275.463	336
278.032	312
280.601	318
283.168	288
285.734	306
288.301	270
290.866	250
293.429	266
295.992	262
298.556	276
301.117	228
303.677	238
306.236	226
308.795	230
311.354	252
313.911	240
316.467	248
319.022	248
321.577	242
324.13	258
326.684	234
329.236	236
331.787	226
334.337	256
336.887	252
339.435	238
341.983	232
344.529	234
347.075	250
349.621	220
352.165	220
354.708	230
357.251	218
359.793	222
362.334	226
364.874	214
367.413	248
369.951	224
372.489	244
375.026	244
377.562	248
380.097	260
382.631	246
385.164	268
387.697	268
390.229	256
392.76	292
395.29	274
397.819	270
400.346	294
402.873	320
405.4	340
407.926	348
410.451	356
412.976	332
415.499	304
418.02	304
420.542	294
423.063	272
425.583	242
428.101	258
430.619	240
433.137	244
435.654	236
438.169	222
440.684	214
443.198	204
445.712	230
448.223	218
450.735	208
453.246	202
455.755	184
458.264	198
460.771	188
463.279	198
465.786	190
468.291	202
470.796	198
473.301	186
475.803	172
478.306	178
480.807	180
483.308	182
485.807	176
488.307	174
490.804	190
493.302	198
495.798	188
498.294	190
500.788	188
503.283	192
505.775	210
508.269	194
510.759	202
513.251	176
515.74	204
518.23	186
520.718	206
523.204	212
525.692	216
528.177	230
530.663	232
533.147	232
535.629	230
538.113	256
540.594	270
543.074	276
545.555	262
548.034	252
550.512	254
552.989	270
555.467	270
557.942	260
560.417	246
562.892	262
565.365	248
567.838	246
570.309	256
572.78	242
575.251	266
577.72	264
580.189	250
582.656	254
585.123	226
587.589	220
590.055	220
592.52	222
594.983	224
597.446	218
599.908	230
602.369	234
604.829	268
607.289	276
609.747	284
612.205	284
614.663	334
617.119	438
619.574	686
622.029	1074
624.483	990
626.936	540
629.389	348
631.84	284
634.291	248
636.741	236
639.19	232
641.639	190
644.086	196
646.533	196
648.979	178
651.424	184
653.869	184
656.313	176
658.754	168
661.196	174
663.638	190
666.078	196
668.518	182
670.957	186
673.394	178
675.831	176
678.268	180
680.703	178
683.137	190
685.571	186
688.005	176
690.437	188
692.868	178
695.299	184
697.729	188
700.159	216
702.586	230
705.014	228
707.441	220
709.866	224
712.292	232
714.716	250
717.14	228
719.563	252
721.984	274
724.406	314
726.825	314
729.246	300
731.665	282
734.082	296
736.5	318
738.916	344
741.332	388
743.746	394
746.161	404
748.574	380
750.987	430
753.398	452
755.81	450
758.219	492
760.629	498
763.037	502
765.445	504
767.852	478
770.258	442
772.664	460
775.068	448
777.472	452
779.876	446
782.278	470
784.679	490
787.08	568
789.48	604
791.879	674
794.278	686
796.675	730
799.072	688
801.467	648
803.864	564
806.258	520
808.651	462
811.044	398
813.437	396
815.828	362
818.218	342
820.608	332
822.997	312
825.385	288
827.773	282
830.16	302
832.546	308
834.931	310
837.315	322
839.699	366
842.081	402
844.463	382
846.844	342
849.226	360
851.606	324
853.985	332
856.363	328
858.741	316
861.117	332
863.493	318
865.868	338
868.243	320
870.616	322
872.989	298
875.36	314
877.731	334
880.102	298
882.472	308
884.841	292
887.209	310
889.577	300
891.944	310
894.31	326
896.674	324
899.039	330
901.403	316
903.766	356
906.128	382
908.49	356
910.849	364
913.209	348
915.569	320
917.927	298
920.284	286
922.641	278
924.997	282
927.353	280
929.707	278
932.061	268
934.414	290
936.765	278
939.117	292
941.469	298
943.818	286
946.167	262
948.515	288
950.863	284
953.211	282
955.556	296
957.902	278
960.246	300
962.59	328
964.933	358
967.276	364
969.617	362
971.958	332
974.298	356
976.638	374
978.976	424
981.314	480
983.651	564
985.988	618
988.323	842
990.659	1242
992.992	1746
995.325	1934
997.658	2316
999.99	4172
1002.32	6568
1004.65	6196
1006.98	3506
1009.31	1628
1011.64	864
1013.97	620
1016.29	502
1018.62	500
1020.94	514
1023.27	662
1025.59	856
1027.91	1226
1030.24	1656
1032.56	2052
1034.88	1958
1037.2	1488
1039.52	998
1041.84	756
1044.15	594
1046.47	510
1048.79	462
1051.1	414
1053.42	412
1055.73	418
1058.04	412
1060.36	430
1062.67	430
1064.98	448
1067.29	448
1069.6	460
1071.91	464
1074.22	480
1076.52	460
1078.83	432
1081.14	486
1083.44	460
1085.75	436
1088.05	460
1090.35	450
1092.65	466
1094.95	462
1097.26	442
1099.56	470
1101.86	464
1104.15	450
1106.45	428
1108.75	366
1111.05	382
1113.34	370
1115.64	382
1117.93	364
1120.22	324
1122.52	328
1124.81	326
1127.1	304
1129.39	276
1131.68	298
1133.97	292
1136.26	318
1138.54	346
1140.83	318
1143.12	380
1145.4	388
1147.69	462
1149.97	526
1152.25	714
1154.54	906
1156.82	1056
1159.1	908
1161.38	724
1163.66	622
1165.94	512
1168.22	548
1170.49	532
1172.77	572
1175.05	664
1177.32	782
1179.6	1000
1181.87	1206
1184.14	1236
1186.42	1148
1188.69	1090
1190.96	1104
1193.23	1162
1195.5	1234
1197.77	1240
1200.03	1250
1202.3	1154
1204.57	1122
1206.83	1052
1209.1	878
1211.36	756
1213.63	674
1215.89	610
1218.15	544
1220.41	514
1222.67	502
1224.93	502
1227.19	460
1229.45	460
1231.71	460
1233.97	422
1236.22	416
1238.48	402
1240.73	408
1242.99	392
1245.24	404
1247.5	388
1249.75	398
1252	374
1254.25	384
1256.5	400
1258.75	362
1261	378
1263.25	380
1265.49	362
1267.74	368
1269.99	356
1272.23	350
1274.48	390
1276.72	376
1278.96	360
1281.21	360
1283.45	394
1285.69	370
1287.93	392
1290.17	404
1292.41	422
1294.64	402
1296.88	422
1299.12	428
1301.36	432
1303.59	442
1305.82	460
1308.06	456
1310.29	456
1312.52	478
1314.76	454
1316.99	484
1319.22	490
1321.45	542
1323.68	534
1325.9	552
1328.13	560
1330.36	564
1332.58	586
1334.81	532
1337.04	534
1339.26	474
1341.48	468
1343.71	454
1345.93	442
1348.15	402
1350.37	398
1352.59	410
1354.81	392
1357.03	390
1359.24	410
1361.46	374
1363.68	392
1365.89	418
1368.11	384
1370.32	416
1372.54	400
1374.75	406
1376.96	378
1379.17	384
1381.38	360
1383.59	346
1385.8	324
1388.01	326
1390.22	318
1392.43	282
1394.63	300
1396.84	306
1399.05	300
1401.25	286
1403.45	314
1405.66	296
1407.86	286
1410.06	266
1412.26	292
1414.46	282
1416.66	284
1418.86	300
1421.06	274
1423.26	290
1425.46	298
1427.65	278
1429.85	314
1432.04	340
1434.24	362
1436.43	408
1438.62	436
1440.82	480
1443.01	536
1445.2	524
1447.39	600
1449.58	614
1451.77	630
1453.95	610
1456.14	560
1458.33	456
1460.52	382
1462.7	346
1464.89	342
1467.07	324
1469.25	318
1471.44	300
1473.62	300
1475.8	306
1477.98	308
1480.16	304
1482.34	280
1484.52	294
1486.7	296
1488.87	302
1491.05	300
1493.23	304
1495.4	320
1497.58	316
1499.75	310
1501.92	284
1504.1	318
1506.27	286
1508.44	284
1510.61	294
1512.78	270
1514.95	278
1517.12	306
1519.28	274
1521.45	296
1523.62	310
1525.78	310
1527.95	282
1530.11	290
1532.28	310
1534.44	284
1536.6	282
1538.76	288
1540.93	294
1543.09	302
1545.25	308
1547.41	310
1549.56	304
1551.72	310
1553.88	290
1556.03	304
1558.19	318
1560.35	316
1562.5	326
1564.65	326
1566.81	324
1568.96	364
1571.11	364
1573.26	382
1575.41	434
1577.56	466
1579.71	626
1581.86	824
1584.01	990
1586.15	922
1588.3	746
1590.45	578
1592.59	602
1594.74	698
1596.88	888
1599.02	1256
1601.17	1692
1603.31	1908
1605.45	1746
1607.59	1322
1609.73	912
1611.87	700
1614.01	574
1616.14	502
1618.28	446
1620.42	418
1622.55	384
1624.69	368
1626.82	360
1628.96	360
1631.09	342
1633.22	328
1635.36	320
1637.49	352
1639.62	334
1641.75	342
1643.88	342
1646	354
1648.13	364
1650.26	358
1652.39	372
1654.51	342
1656.64	334
1658.76	288
1660.89	316
1663.01	314
1665.13	298
1667.26	304
1669.38	304
1671.5	302
1673.62	284
1675.74	316
1677.86	314
1679.97	316
1682.09	306
1684.21	310
1686.33	296
1688.44	320
1690.56	312
1692.67	314
1694.78	298
1696.9	298
1699.01	294
1701.12	312
1703.23	288
1705.34	300
1707.45	288
1709.56	298
1711.67	292
1713.78	294
1715.88	300
1717.99	302
1720.1	294
1722.2	282
1724.31	284
1726.41	302
1728.51	280
1730.62	308
1732.72	302
1734.82	284
1736.92	296
1739.02	296
1741.12	302
1743.22	310
1745.32	302
1747.42	298
1749.51	288
1751.61	308
1753.7	280
1755.8	316
1757.89	272
1759.99	310
1762.08	292
1764.17	296
1766.26	300
1768.36	310
1770.45	298
1772.54	318
1774.62	302
1776.71	314
1778.8	290
1780.89	286
1782.98	300
1785.06	306
1787.15	288
1789.23	282
1791.32	316
1793.4	288
1795.48	310
1797.56	302
1799.65	310
1801.73	294
1803.81	294
1805.89	332
1807.97	280
1810.04	318
1812.12	314
1814.2	296
1816.28	300
1818.35	304
1820.43	310
1822.5	300
1824.58	314
1826.65	278
1828.72	308
1830.79	316
1832.86	308
1834.94	304
1837.01	304
1839.08	294
1841.15	318
1843.21	310
1845.28	288
1847.35	296
1849.41	294
1851.48	306
1853.55	310
1855.61	300
1857.67	288
1859.74	294
1861.8	308
1863.86	290
1865.92	300
1867.98	302
1870.05	306
1872.1	294
1874.16	320
1876.22	302
1878.28	306
1880.34	308
1882.39	280
1884.45	316
1886.5	332
1888.56	312
1890.61	300
1892.67	290
1894.72	308
1896.77	326
1898.82	318
1900.87	326
1902.92	316
1904.97	316
1907.02	312
1909.07	316
1911.12	306
1913.17	326
1915.21	326
1917.26	314
1919.3	320
1921.35	326
1923.39	338
1925.43	310
1927.48	324
1929.52	324
1931.56	314
1933.6	314
1935.64	306
1937.68	326
1939.72	324
1941.76	336
1943.8	340
1945.83	318
1947.87	308
1949.91	308
1951.94	300
1953.98	328
1956.01	308
1958.05	306
1960.08	320
1962.11	312
1964.14	318
1966.17	304
1968.2	312
1970.23	324
1972.26	308
1974.29	330
1976.32	322
1978.35	308
1980.37	336
1982.4	322
1984.43	308
1986.45	312
1988.48	316
1990.5	322
1992.52	302
1994.55	336
1996.57	324
1998.59	314
2000.61	326
2002.63	322
2004.65	320
2006.67	330
2008.69	324
2010.7	332
2012.72	326
2014.74	326
2016.75	300
2018.77	330
2020.78	332
2022.8	316
2024.81	336
2026.83	326
2028.84	338
2030.85	328
2032.86	318
2034.87	316
2036.88	326
2038.89	312
2040.9	338
2042.91	320
2044.91	334
2046.92	338
2048.93	328
2050.93	336
2052.94	320
2054.94	342
2056.95	326
2058.95	322
2060.95	308
2062.95	312
2064.96	342
2066.96	334
2068.96	332
2070.96	334
2072.96	316
2074.95	334
2076.95	332
2078.95	360
2080.95	330
2082.94	342
2084.94	330
2086.93	336
2088.93	326
2090.92	332
2092.91	332
2094.91	342
2096.9	328
2098.89	332
2100.88	328
2102.87	326
2104.86	306
2106.85	334
2108.84	318
2110.83	340
2112.81	334
2114.8	340
2116.78	340
2118.77	314
2120.75	350
2122.74	334
2124.72	326
2126.71	324
2128.69	334
2130.67	346
2132.65	332
2134.63	326
2136.61	344
2138.59	350
2140.57	344
2142.55	318
2144.53	314
2146.5	328
2148.48	330
2150.46	358
2152.43	328
2154.41	336
2156.38	338
2158.35	334
2160.33	344
2162.3	334
2164.27	340
2166.24	314
2168.21	336
2170.18	344
2172.15	330
2174.12	340
2176.09	330
2178.06	342
2180.03	332
2181.99	352
2183.96	310
2185.92	340
2187.89	352
2189.85	340
2191.82	326
2193.78	340
2195.74	350
2197.7	368
2199.67	352
2201.63	366
2203.59	338
2205.55	338
2207.51	344
2209.46	364
2211.42	346
2213.38	330
2215.34	334
2217.29	352
2219.25	324
2221.2	342
2223.16	338
2225.11	344
2227.06	344
2229.02	364
2230.97	348
2232.92	356
2234.87	348
2236.82	350
2238.77	338
2240.72	346
2242.67	348
2244.62	354
2246.57	336
2248.51	340
2250.46	340
2252.4	350
2254.35	342
2256.29	334
2258.24	350
2260.18	344
2262.13	346
2264.07	364
2266.01	332
2267.95	352
2269.89	344
2271.83	340
2273.77	330
2275.71	354
2277.65	352
2279.58	354
2281.52	374
2283.46	340
2285.4	346
2287.33	334
2289.27	366
2291.2	366
2293.13	330
2295.07	322
2297	352
2298.93	338
2300.86	360
2302.79	346
2304.72	370
2306.65	354
2308.58	374
2310.51	356
2312.44	358
2314.37	334
2316.29	352
2318.22	368
2320.15	346
2322.07	356
2324	374
2325.92	342
2327.84	348
2329.77	358
2331.69	346
2333.61	350
2335.53	352
2337.45	360
2339.37	364
2341.29	346
2343.21	350
2345.13	358
2347.05	362
2348.97	364
2350.88	360
2352.8	358
2354.71	364
2356.63	356
2358.54	370
2360.46	346
2362.37	374
2364.28	348
2366.2	364
2368.11	362
2370.02	362
2371.93	360
2373.84	344
2375.75	346
2377.66	340
2379.57	366
2381.47	356
2383.38	342
2385.29	360
2387.2	382
2389.1	364
2391.01	358
2392.91	362
2394.81	338
2396.72	372
2398.62	330
2400.52	356
2402.42	344
2404.33	378
2406.23	368
2408.13	374
2410.03	340
2411.92	354
2413.82	356
2415.72	344
2417.62	352
2419.51	370
2421.41	364
2423.31	382
2425.2	364
2427.1	382
2428.99	388
2430.88	364
2432.78	378
2434.67	380
2436.56	370
2438.45	376
2440.34	352
2442.23	360
2444.12	358
2446.01	374
2447.9	364
2449.79	386