File: Jesse_Dataset_v2/Pure Raman/Polystyrene/633nm/ps-ppo-7jan25-1,0000-map3_Y02_X06.txt
182.393	1000
184.993	1036
187.593	920
190.193	968
192.79	940
195.387	932
197.983	896
200.578	946
203.174	920
205.766	944
208.36	962
210.951	1022
213.542	1018
216.131	1034
218.721	1066
221.309	1064
223.897	1062
226.483	1054
229.069	1016
231.654	930
234.238	868
236.821	730
239.404	676
241.984	604
244.566	502
247.145	478
249.723	420
252.302	396
254.878	366
257.455	362
260.03	352
262.604	348
265.178	336
267.75	326
270.322	328
272.893	326
275.463	320
278.032	314
280.601	292
283.168	310
285.734	296
288.301	280
290.866	248
293.429	262
295.992	248
298.556	236
301.117	232
303.677	242
306.236	248
308.795	238
311.354	258
313.911	224
316.467	240
319.022	238
321.577	258
324.13	254
326.684	262
329.236	236
331.787	232
334.337	228
336.887	244
339.435	240
341.983	224
344.529	240
347.075	244
349.621	234
352.165	212
354.708	236
357.251	228
359.793	240
362.334	230
364.874	228
367.413	222
369.951	218
372.489	226
375.026	238
377.562	250
380.097	246
382.631	260
385.164	268
387.697	280
390.229	276
392.76	270
395.29	290
397.819	296
400.346	286
402.873	326
405.4	308
407.926	376
410.451	362
412.976	336
415.499	294
418.02	292
420.542	286
423.063	268
425.583	274
428.101	264
430.619	272
433.137	270
435.654	248
438.169	232
440.684	248
443.198	246
445.712	226
448.223	218
450.735	226
453.246	230
455.755	202
458.264	212
460.771	196
463.279	196
465.786	206
468.291	188
470.796	214
473.301	216
475.803	188
478.306	202
480.807	206
483.308	208
485.807	196
488.307	194
490.804	202
493.302	218
495.798	208
498.294	208
500.788	206
503.283	210
505.775	230
508.269	202
510.759	218
513.251	206
515.74	230
518.23	220
520.718	222
523.204	236
525.692	222
528.177	248
530.663	242
533.147	270
535.629	276
538.113	278
540.594	296
543.074	290
545.555	280
548.034	284
550.512	284
552.989	302
555.467	296
557.942	268
560.417	298
562.892	274
565.365	280
567.838	270
570.309	270
572.78	290
575.251	298
577.72	270
580.189	240
582.656	246
585.123	244
587.589	228
590.055	238
592.52	256
594.983	240
597.446	238
599.908	258
602.369	250
604.829	268
607.289	290
609.747	314
612.205	302
614.663	326
617.119	436
619.574	720
622.029	1118
624.483	998
626.936	552
629.389	354
631.84	318
634.291	304
636.741	244
639.19	244
641.639	226
644.086	206
646.533	226
648.979	202
651.424	198
653.869	190
656.313	196
658.754	190
661.196	190
663.638	178
666.078	194
668.518	214
670.957	204
673.394	194
675.831	200
678.268	192
680.703	194
683.137	196
685.571	210
688.005	206
690.437	184
692.868	206
695.299	192
697.729	210
700.159	236
702.586	248
705.014	250
707.441	248
709.866	220
712.292	242
714.716	228
717.14	242
719.563	256
721.984	278
724.406	322
726.825	332
729.246	338
731.665	292
734.082	326
736.5	338
738.916	332
741.332	408
743.746	418
746.161	410
748.574	430
750.987	414
753.398	436
755.81	454
758.219	502
760.629	496
763.037	502
765.445	490
767.852	472
770.258	460
772.664	476
775.068	440
777.472	442
779.876	452
782.278	490
784.679	526
787.08	562
789.48	628
791.879	682
794.278	708
796.675	690
799.072	682
801.467	636
803.864	588
806.258	508
808.651	460
811.044	406
813.437	414
815.828	386
818.218	332
820.608	330
822.997	314
825.385	288
827.773	286
830.16	298
832.546	296
834.931	320
837.315	332
839.699	360
842.081	394
844.463	384
846.844	372
849.226	362
851.606	334
853.985	316
856.363	328
858.741	320
861.117	336
863.493	320
865.868	336
868.243	324
870.616	300
872.989	318
875.36	312
877.731	326
880.102	330
882.472	292
884.841	304
887.209	308
889.577	294
891.944	288
894.31	304
896.674	302
899.039	330
901.403	326
903.766	364
906.128	366
908.49	350
910.849	338
913.209	336
915.569	326
917.927	296
920.284	290
922.641	250
924.997	264
927.353	278
929.707	266
932.061	278
934.414	286
936.765	256
939.117	268
941.469	274
943.818	276
946.167	288
948.515	260
950.863	284
953.211	294
955.556	254
957.902	282
960.246	326
962.59	308
964.933	336
967.276	340
969.617	336
971.958	340
974.298	344
976.638	390
978.976	410
981.314	456
983.651	556
985.988	640
988.323	790
990.659	1176
992.992	1764
995.325	1942
997.658	2310
999.99	4224
1002.32	6572
1004.65	6228
1006.98	3476
1009.31	1584
1011.64	860
1013.97	610
1016.29	510
1018.62	460
1020.94	524
1023.27	658
1025.59	818
1027.91	1200
1030.24	1636
1032.56	1978
1034.88	1904
1037.2	1410
1039.52	1008
1041.84	740
1044.15	592
1046.47	522
1048.79	458
1051.1	450
1053.42	416
1055.73	404
1058.04	398
1060.36	402
1062.67	410
1064.98	418
1067.29	458
1069.6	438
1071.91	454
1074.22	422
1076.52	430
1078.83	442
1081.14	438
1083.44	458
1085.75	436
1088.05	440
1090.35	436
1092.65	404
1094.95	440
1097.26	434
1099.56	430
1101.86	438
1104.15	422
1106.45	396
1108.75	366
1111.05	360
1113.34	356
1115.64	348
1117.93	338
1120.22	330
1122.52	310
1124.81	302
1127.1	290
1129.39	276
1131.68	280
1133.97	274
1136.26	278
1138.54	298
1140.83	322
1143.12	320
1145.4	368
1147.69	410
1149.97	498
1152.25	654
1154.54	892
1156.82	990
1159.1	906
1161.38	722
1163.66	612
1165.94	554
1168.22	500
1170.49	516
1172.77	556
1175.05	632
1177.32	796
1179.6	980
1181.87	1166
1184.14	1192
1186.42	1166
1188.69	1028
1190.96	1072
1193.23	1136
1195.5	1238
1197.77	1254
1200.03	1236
1202.3	1164
1204.57	1064
1206.83	964
1209.1	882
1211.36	720
1213.63	640
1215.89	560
1218.15	532
1220.41	498
1222.67	468
1224.93	472
1227.19	446
1229.45	450
1231.71	422
1233.97	382
1236.22	390
1238.48	382
1240.73	376
1242.99	362
1245.24	352
1247.5	360
1249.75	360
1252	358
1254.25	358
1256.5	362
1258.75	368
1261	362
1263.25	350
1265.49	358
1267.74	352
1269.99	350
1272.23	364
1274.48	342
1276.72	364
1278.96	344
1281.21	352
1283.45	348
1285.69	344
1287.93	358
1290.17	382
1292.41	388
1294.64	398
1296.88	388
1299.12	416
1301.36	418
1303.59	390
1305.82	422
1308.06	440
1310.29	430
1312.52	442
1314.76	436
1316.99	464
1319.22	476
1321.45	494
1323.68	522
1325.9	548
1328.13	548
1330.36	530
1332.58	536
1334.81	508
1337.04	488
1339.26	456
1341.48	452
1343.71	426
1345.93	390
1348.15	392
1350.37	390
1352.59	396
1354.81	376
1357.03	392
1359.24	378
1361.46	364
1363.68	380
1365.89	392
1368.11	394
1370.32	368
1372.54	404
1374.75	396
1376.96	364
1379.17	356
1381.38	364
1383.59	336
1385.8	308
1388.01	302
1390.22	288
1392.43	292
1394.63	290
1396.84	264
1399.05	276
1401.25	278
1403.45	290
1405.66	270
1407.86	274
1410.06	262
1412.26	288
1414.46	280
1416.66	272
1418.86	274
1421.06	256
1423.26	278
1425.46	272
1427.65	288
1429.85	268
1432.04	316
1434.24	320
1436.43	346
1438.62	410
1440.82	442
1443.01	492
1445.2	544
1447.39	592
1449.58	598
1451.77	608
1453.95	572
1456.14	550
1458.33	436
1460.52	368
1462.7	354
1464.89	328
1467.07	308
1469.25	300
1471.44	304
1473.62	264
1475.8	284
1477.98	286
1480.16	270
1482.34	280
1484.52	258
1486.7	258
1488.87	284
1491.05	290
1493.23	282
1495.4	300
1497.58	290
1499.75	274
1501.92	264
1504.1	264
1506.27	280
1508.44	250
1510.61	272
1512.78	260
1514.95	270
1517.12	274
1519.28	280
1521.45	270
1523.62	262
1525.78	288
1527.95	292
1530.11	282
1532.28	250
1534.44	270
1536.6	274
1538.76	280
1540.93	274
1543.09	268
1545.25	258
1547.41	290
1549.56	282
1551.72	280
1553.88	282
1556.03	312
1558.19	290
1560.35	288
1562.5	296
1564.65	306
1566.81	326
1568.96	320
1571.11	352
1573.26	366
1575.41	390
1577.56	480
1579.71	556
1581.86	826
1584.01	980
1586.15	898
1588.3	720
1590.45	620
1592.59	598
1594.74	670
1596.88	884
1599.02	1208
1601.17	1642
1603.31	1886
1605.45	1694
1607.59	1316
1609.73	942
1611.87	706
1614.01	554
1616.14	486
1618.28	432
1620.42	410
1622.55	380
1624.69	362
1626.82	374
1628.96	330
1631.09	320
1633.22	302
1635.36	336
1637.49	312
1639.62	298
1641.75	336
1643.88	336
1646	344
1648.13	338
1650.26	350
1652.39	342
1654.51	326
1656.64	302
1658.76	302
1660.89	308
1663.01	296
1665.13	278
1667.26	284
1669.38	282
1671.5	302
1673.62	288
1675.74	300
1677.86	304
1679.97	292
1682.09	290
1684.21	292
1686.33	308
1688.44	286
1690.56	292
1692.67	284
1694.78	304
1696.9	300
1699.01	310
1701.12	302
1703.23	304
1705.34	304
1707.45	282
1709.56	286
1711.67	296
1713.78	298
1715.88	288
1717.99	286
1720.1	282
1722.2	284
1724.31	286
1726.41	278
1728.51	282
1730.62	272
1732.72	294
1734.82	294
1736.92	274
1739.02	302
1741.12	280
1743.22	286
1745.32	292
1747.42	298
1749.51	282
1751.61	272
1753.7	280
1755.8	308
1757.89	296
1759.99	284
1762.08	288
1764.17	294
1766.26	286
1768.36	284
1770.45	306
1772.54	294
1774.62	294
1776.71	306
1778.8	280
1780.89	290
1782.98	298
1785.06	270
1787.15	296
1789.23	292
1791.32	300
1793.4	284
1795.48	296
1797.56	302
1799.65	288
1801.73	296
1803.81	310
1805.89	306
1807.97	282
1810.04	322
1812.12	312
1814.2	310
1816.28	296
1818.35	316
1820.43	298
1822.5	302
1824.58	316
1826.65	312
1828.72	304
1830.79	286
1832.86	300
1834.94	302
1837.01	282
1839.08	266
1841.15	308
1843.21	310
1845.28	314
1847.35	304
1849.41	292
1851.48	312
1853.55	292
1855.61	296
1857.67	308
1859.74	300
1861.8	304
1863.86	310
1865.92	306
1867.98	308
1870.05	308
1872.1	308
1874.16	290
1876.22	298
1878.28	316
1880.34	318
1882.39	302
1884.45	300
1886.5	308
1888.56	316
1890.61	298
1892.67	294
1894.72	328
1896.77	288
1898.82	296
1900.87	284
1902.92	308
1904.97	300
1907.02	310
1909.07	324
1911.12	318
1913.17	314
1915.21	324
1917.26	304
1919.3	328
1921.35	302
1923.39	326
1925.43	310
1927.48	316
1929.52	320
1931.56	316
1933.6	328
1935.64	322
1937.68	342
1939.72	318
1941.76	308
1943.8	316
1945.83	308
1947.87	336
1949.91	310
1951.94	318
1953.98	320
1956.01	308
1958.05	320
1960.08	300
1962.11	308
1964.14	332
1966.17	312
1968.2	318
1970.23	310
1972.26	314
1974.29	316
1976.32	324
1978.35	306
1980.37	306
1982.4	320
1984.43	304
1986.45	302
1988.48	328
1990.5	318
1992.52	298
1994.55	328
1996.57	296
1998.59	306
2000.61	298
2002.63	328
2004.65	324
2006.67	320
2008.69	312
2010.7	336
2012.72	322
2014.74	328
2016.75	318
2018.77	310
2020.78	328
2022.8	328
2024.81	346
2026.83	316
2028.84	334
2030.85	338
2032.86	312
2034.87	326
2036.88	326
2038.89	328
2040.9	330
2042.91	342
2044.91	312
2046.92	332
2048.93	322
2050.93	348
2052.94	318
2054.94	330
2056.95	324
2058.95	334
2060.95	322
2062.95	318
2064.96	326
2066.96	340
2068.96	328
2070.96	340
2072.96	322
2074.95	326
2076.95	328
2078.95	332
2080.95	344
2082.94	328
2084.94	336
2086.93	320
2088.93	336
2090.92	352
2092.91	336
2094.91	320
2096.9	334
2098.89	320
2100.88	326
2102.87	332
2104.86	340
2106.85	314
2108.84	346
2110.83	348
2112.81	356
2114.8	330
2116.78	320
2118.77	340
2120.75	348
2122.74	338
2124.72	344
2126.71	340
2128.69	338
2130.67	362
2132.65	344
2134.63	340
2136.61	338
2138.59	334
2140.57	338
2142.55	344
2144.53	364
2146.5	344
2148.48	354
2150.46	330
2152.43	332
2154.41	346
2156.38	338
2158.35	360
2160.33	324
2162.3	338
2164.27	338
2166.24	342
2168.21	336
2170.18	344
2172.15	320
2174.12	318
2176.09	348
2178.06	344
2180.03	340
2181.99	350
2183.96	358
2185.92	352
2187.89	338
2189.85	332
2191.82	344
2193.78	342
2195.74	330
2197.7	348
2199.67	336
2201.63	352
2203.59	340
2205.55	346
2207.51	324
2209.46	354
2211.42	348
2213.38	356
2215.34	342
2217.29	348
2219.25	324
2221.2	348
2223.16	350
2225.11	348
2227.06	340
2229.02	334
2230.97	356
2232.92	354
2234.87	332
2236.82	334
2238.77	362
2240.72	342
2242.67	340
2244.62	342
2246.57	322
2248.51	344
2250.46	360
2252.4	348
2254.35	330
2256.29	352
2258.24	360
2260.18	350
2262.13	350
2264.07	340
2266.01	346
2267.95	336
2269.89	362
2271.83	352
2273.77	356
2275.71	346
2277.65	348
2279.58	328
2281.52	342
2283.46	342
2285.4	348
2287.33	340
2289.27	332
2291.2	332
2293.13	330
2295.07	354
2297	354
2298.93	352
2300.86	346
2302.79	344
2304.72	356
2306.65	370
2308.58	336
2310.51	344
2312.44	340
2314.37	376
2316.29	358
2318.22	356
2320.15	364
2322.07	346
2324	358
2325.92	370
2327.84	360
2329.77	346
2331.69	358
2333.61	352
2335.53	372
2337.45	354
2339.37	356
2341.29	338
2343.21	350
2345.13	366
2347.05	358
2348.97	358
2350.88	348
2352.8	352
2354.71	354
2356.63	348
2358.54	374
2360.46	370
2362.37	364
2364.28	336
2366.2	348
2368.11	350
2370.02	358
2371.93	362
2373.84	364
2375.75	356
2377.66	326
2379.57	344
2381.47	380
2383.38	354
2385.29	364
2387.2	364
2389.1	358
2391.01	350
2392.91	368
2394.81	360
2396.72	354
2398.62	380
2400.52	344
2402.42	354
2404.33	364
2406.23	374
2408.13	376
2410.03	350
2411.92	360
2413.82	366
2415.72	358
2417.62	344
2419.51	362
2421.41	342
2423.31	354
2425.2	370
2427.1	356
2428.99	372
2430.88	358
2432.78	374
2434.67	374
2436.56	354
2438.45	354
2440.34	376
2442.23	366
2444.12	376
2446.01	354
2447.9	374
2449.79	376