File: Jesse_Dataset_v2/Pure Raman/Polystyrene/633nm/ps-ppo-7jan25-1,0000-map3_Y09_X08.txt
182.393	1122
184.993	1072
187.593	1060
190.193	1032
192.79	990
195.387	1056
197.983	1034
200.578	1014
203.174	1032
205.766	1066
208.36	1070
210.951	1110
213.542	1126
216.131	1136
218.721	1164
221.309	1166
223.897	1174
226.483	1108
229.069	1064
231.654	1028
234.238	942
236.821	874
239.404	814
241.984	688
244.566	590
247.145	562
249.723	538
252.302	516
254.878	474
257.455	456
260.03	460
262.604	442
265.178	420
267.75	420
270.322	432
272.893	440
275.463	392
278.032	422
280.601	416
283.168	408
285.734	384
288.301	382
290.866	358
293.429	374
295.992	356
298.556	366
301.117	326
303.677	332
306.236	320
308.795	324
311.354	352
313.911	320
316.467	346
319.022	328
321.577	334
324.13	356
326.684	342
329.236	356
331.787	348
334.337	350
336.887	354
339.435	354
341.983	348
344.529	348
347.075	346
349.621	328
352.165	326
354.708	308
357.251	312
359.793	320
362.334	304
364.874	340
367.413	308
369.951	350
372.489	342
375.026	332
377.562	338
380.097	334
382.631	338
385.164	374
387.697	356
390.229	366
392.76	390
395.29	378
397.819	368
400.346	386
402.873	404
405.4	432
407.926	450
410.451	448
412.976	412
415.499	434
418.02	394
420.542	380
423.063	374
425.583	360
428.101	356
430.619	350
433.137	336
435.654	334
438.169	344
440.684	312
443.198	350
445.712	330
448.223	332
450.735	306
453.246	292
455.755	302
458.264	306
460.771	294
463.279	286
465.786	290
468.291	288
470.796	300
473.301	302
475.803	302
478.306	286
480.807	294
483.308	278
485.807	266
488.307	298
490.804	288
493.302	282
495.798	288
498.294	312
500.788	278
503.283	300
505.775	308
508.269	304
510.759	292
513.251	300
515.74	302
518.23	318
520.718	296
523.204	308
525.692	308
528.177	310
530.663	290
533.147	336
535.629	340
538.113	354
540.594	368
543.074	368
545.555	354
548.034	350
550.512	336
552.989	344
555.467	352
557.942	350
560.417	344
562.892	338
565.365	360
567.838	360
570.309	334
572.78	364
575.251	360
577.72	354
580.189	338
582.656	298
585.123	310
587.589	310
590.055	312
592.52	328
594.983	294
597.446	312
599.908	292
602.369	336
604.829	336
607.289	366
609.747	392
612.205	382
614.663	398
617.119	516
619.574	824
622.029	1158
624.483	1102
626.936	632
629.389	440
631.84	392
634.291	362
636.741	308
639.19	294
641.639	300
644.086	270
646.533	270
648.979	254
651.424	280
653.869	268
656.313	264
658.754	260
661.196	258
663.638	272
666.078	268
668.518	254
670.957	250
673.394	248
675.831	262
678.268	260
680.703	258
683.137	250
685.571	262
688.005	242
690.437	264
692.868	272
695.299	266
697.729	262
700.159	290
702.586	318
705.014	298
707.441	298
709.866	288
712.292	308
714.716	298
717.14	290
719.563	322
721.984	352
724.406	374
726.825	374
729.246	372
731.665	376
734.082	362
736.5	394
738.916	426
741.332	458
743.746	458
746.161	496
748.574	492
750.987	454
753.398	518
755.81	530
758.219	538
760.629	556
763.037	588
765.445	534
767.852	522
770.258	540
772.664	496
775.068	476
777.472	486
779.876	486
782.278	550
784.679	560
787.08	646
789.48	666
791.879	730
794.278	726
796.675	780
799.072	768
801.467	684
803.864	626
806.258	550
808.651	518
811.044	492
813.437	464
815.828	428
818.218	388
820.608	374
822.997	360
825.385	332
827.773	316
830.16	344
832.546	346
834.931	382
837.315	372
839.699	440
842.081	452
844.463	436
846.844	450
849.226	422
851.606	366
853.985	366
856.363	374
858.741	362
861.117	358
863.493	380
865.868	374
868.243	358
870.616	388
872.989	380
875.36	358
877.731	362
880.102	362
882.472	330
884.841	352
887.209	336
889.577	348
891.944	352
894.31	352
896.674	358
899.039	374
901.403	384
903.766	404
906.128	430
908.49	428
910.849	420
913.209	388
915.569	374
917.927	358
920.284	342
922.641	330
924.997	312
927.353	314
929.707	316
932.061	318
934.414	324
936.765	332
939.117	314
941.469	320
943.818	330
946.167	332
948.515	336
950.863	330
953.211	328
955.556	348
957.902	328
960.246	364
962.59	344
964.933	366
967.276	398
969.617	364
971.958	398
974.298	394
976.638	432
978.976	470
981.314	520
983.651	582
985.988	678
988.323	838
990.659	1194
992.992	1776
995.325	1928
997.658	2392
999.99	4258
1002.32	6708
1004.65	6134
1006.98	3414
1009.31	1630
1011.64	884
1013.97	638
1016.29	546
1018.62	538
1020.94	558
1023.27	690
1025.59	934
1027.91	1276
1030.24	1702
1032.56	2012
1034.88	1948
1037.2	1460
1039.52	1002
1041.84	770
1044.15	610
1046.47	514
1048.79	502
1051.1	506
1053.42	454
1055.73	454
1058.04	466
1060.36	460
1062.67	464
1064.98	472
1067.29	478
1069.6	526
1071.91	510
1074.22	508
1076.52	460
1078.83	488
1081.14	502
1083.44	500
1085.75	496
1088.05	458
1090.35	464
1092.65	460
1094.95	502
1097.26	504
1099.56	502
1101.86	494
1104.15	458
1106.45	436
1108.75	418
1111.05	408
1113.34	378
1115.64	416
1117.93	374
1120.22	364
1122.52	372
1124.81	344
1127.1	354
1129.39	336
1131.68	326
1133.97	352
1136.26	340
1138.54	348
1140.83	362
1143.12	412
1145.4	414
1147.69	474
1149.97	564
1152.25	728
1154.54	942
1156.82	1030
1159.1	946
1161.38	776
1163.66	634
1165.94	576
1168.22	542
1170.49	598
1172.77	590
1175.05	674
1177.32	826
1179.6	1038
1181.87	1238
1184.14	1238
1186.42	1192
1188.69	1146
1190.96	1116
1193.23	1168
1195.5	1278
1197.77	1266
1200.03	1284
1202.3	1220
1204.57	1154
1206.83	1064
1209.1	930
1211.36	768
1213.63	674
1215.89	614
1218.15	570
1220.41	534
1222.67	518
1224.93	534
1227.19	486
1229.45	492
1231.71	470
1233.97	446
1236.22	434
1238.48	440
1240.73	408
1242.99	424
1245.24	416
1247.5	434
1249.75	406
1252	404
1254.25	408
1256.5	404
1258.75	396
1261	418
1263.25	402
1265.49	426
1267.74	406
1269.99	412
1272.23	428
1274.48	412
1276.72	406
1278.96	400
1281.21	390
1283.45	392
1285.69	398
1287.93	422
1290.17	412
1292.41	448
1294.64	422
1296.88	450
1299.12	462
1301.36	446
1303.59	476
1305.82	482
1308.06	470
1310.29	488
1312.52	480
1314.76	502
1316.99	516
1319.22	526
1321.45	552
1323.68	590
1325.9	590
1328.13	582
1330.36	598
1332.58	584
1334.81	598
1337.04	550
1339.26	504
1341.48	494
1343.71	452
1345.93	434
1348.15	458
1350.37	444
1352.59	442
1354.81	440
1357.03	438
1359.24	460
1361.46	416
1363.68	454
1365.89	432
1368.11	436
1370.32	434
1372.54	424
1374.75	428
1376.96	446
1379.17	422
1381.38	406
1383.59	366
1385.8	380
1388.01	342
1390.22	338
1392.43	336
1394.63	314
1396.84	320
1399.05	334
1401.25	324
1403.45	332
1405.66	332
1407.86	328
1410.06	330
1412.26	324
1414.46	320
1416.66	332
1418.86	304
1421.06	330
1423.26	332
1425.46	334
1427.65	346
1429.85	350
1432.04	344
1434.24	392
1436.43	420
1438.62	470
1440.82	512
1443.01	540
1445.2	592
1447.39	640
1449.58	646
1451.77	668
1453.95	620
1456.14	582
1458.33	514
1460.52	444
1462.7	366
1464.89	364
1467.07	364
1469.25	326
1471.44	338
1473.62	354
1475.8	330
1477.98	330
1480.16	334
1482.34	328
1484.52	340
1486.7	336
1488.87	318
1491.05	334
1493.23	340
1495.4	370
1497.58	348
1499.75	338
1501.92	336
1504.1	312
1506.27	316
1508.44	328
1510.61	328
1512.78	318
1514.95	330
1517.12	320
1519.28	344
1521.45	330
1523.62	336
1525.78	320
1527.95	334
1530.11	324
1532.28	344
1534.44	340
1536.6	336
1538.76	324
1540.93	356
1543.09	328
1545.25	328
1547.41	354
1549.56	370
1551.72	340
1553.88	346
1556.03	334
1558.19	340
1560.35	344
1562.5	368
1564.65	384
1566.81	382
1568.96	396
1571.11	408
1573.26	426
1575.41	470
1577.56	502
1579.71	664
1581.86	874
1584.01	1018
1586.15	954
1588.3	764
1590.45	672
1592.59	656
1594.74	760
1596.88	904
1599.02	1266
1601.17	1680
1603.31	1920
1605.45	1778
1607.59	1312
1609.73	966
1611.87	752
1614.01	598
1616.14	512
1618.28	484
1620.42	456
1622.55	418
1624.69	406
1626.82	402
1628.96	370
1631.09	364
1633.22	376
1635.36	382
1637.49	386
1639.62	380
1641.75	386
1643.88	416
1646	406
1648.13	406
1650.26	400
1652.39	398
1654.51	366
1656.64	356
1658.76	352
1660.89	356
1663.01	332
1665.13	344
1667.26	326
1669.38	348
1671.5	340
1673.62	344
1675.74	352
1677.86	336
1679.97	334
1682.09	340
1684.21	342
1686.33	350
1688.44	334
1690.56	332
1692.67	350
1694.78	350
1696.9	352
1699.01	348
1701.12	346
1703.23	340
1705.34	366
1707.45	330
1709.56	328
1711.67	330
1713.78	330
1715.88	342
1717.99	348
1720.1	350
1722.2	334
1724.31	330
1726.41	344
1728.51	342
1730.62	344
1732.72	338
1734.82	326
1736.92	346
1739.02	306
1741.12	318
1743.22	328
1745.32	342
1747.42	350
1749.51	326
1751.61	326
1753.7	338
1755.8	324
1757.89	318
1759.99	342
1762.08	330
1764.17	332
1766.26	342
1768.36	338
1770.45	326
1772.54	344
1774.62	328
1776.71	328
1778.8	338
1780.89	336
1782.98	326
1785.06	352
1787.15	346
1789.23	350
1791.32	332
1793.4	342
1795.48	330
1797.56	336
1799.65	340
1801.73	346
1803.81	348
1805.89	354
1807.97	342
1810.04	326
1812.12	328
1814.2	356
1816.28	340
1818.35	348
1820.43	352
1822.5	372
1824.58	338
1826.65	348
1828.72	344
1830.79	346
1832.86	344
1834.94	340
1837.01	334
1839.08	354
1841.15	328
1843.21	338
1845.28	356
1847.35	336
1849.41	342
1851.48	354
1853.55	334
1855.61	332
1857.67	350
1859.74	338
1861.8	344
1863.86	334
1865.92	350
1867.98	354
1870.05	350
1872.1	312
1874.16	328
1876.22	340
1878.28	350
1880.34	320
1882.39	322
1884.45	328
1886.5	350
1888.56	342
1890.61	320
1892.67	330
1894.72	346
1896.77	340
1898.82	350
1900.87	360
1902.92	346
1904.97	368
1907.02	350
1909.07	356
1911.12	342
1913.17	364
1915.21	368
1917.26	344
1919.3	378
1921.35	360
1923.39	358
1925.43	350
1927.48	344
1929.52	356
1931.56	366
1933.6	362
1935.64	372
1937.68	352
1939.72	368
1941.76	364
1943.8	356
1945.83	342
1947.87	356
1949.91	354
1951.94	342
1953.98	358
1956.01	348
1958.05	344
1960.08	340
1962.11	360
1964.14	352
1966.17	356
1968.2	346
1970.23	350
1972.26	354
1974.29	340
1976.32	344
1978.35	340
1980.37	326
1982.4	338
1984.43	344
1986.45	354
1988.48	350
1990.5	336
1992.52	362
1994.55	346
1996.57	340
1998.59	352
2000.61	342
2002.63	356
2004.65	364
2006.67	338
2008.69	336
2010.7	330
2012.72	350
2014.74	342
2016.75	364
2018.77	358
2020.78	340
2022.8	364
2024.81	368
2026.83	342
2028.84	364
2030.85	346
2032.86	356
2034.87	362
2036.88	362
2038.89	352
2040.9	354
2042.91	360
2044.91	346
2046.92	356
2048.93	340
2050.93	364
2052.94	346
2054.94	358
2056.95	356
2058.95	350
2060.95	340
2062.95	362
2064.96	356
2066.96	358
2068.96	364
2070.96	350
2072.96	376
2074.95	322
2076.95	344
2078.95	356
2080.95	360
2082.94	358
2084.94	354
2086.93	364
2088.93	374
2090.92	368
2092.91	338
2094.91	364
2096.9	352
2098.89	368
2100.88	332
2102.87	356
2104.86	342
2106.85	360
2108.84	358
2110.83	346
2112.81	366
2114.8	346
2116.78	346
2118.77	370
2120.75	360
2122.74	346
2124.72	370
2126.71	370
2128.69	366
2130.67	352
2132.65	342
2134.63	346
2136.61	348
2138.59	352
2140.57	350
2142.55	356
2144.53	344
2146.5	352
2148.48	360
2150.46	358
2152.43	366
2154.41	370
2156.38	374
2158.35	348
2160.33	370
2162.3	364
2164.27	358
2166.24	372
2168.21	376
2170.18	380
2172.15	344
2174.12	378
2176.09	360
2178.06	372
2180.03	356
2181.99	364
2183.96	356
2185.92	370
2187.89	374
2189.85	346
2191.82	348
2193.78	362
2195.74	354
2197.7	354
2199.67	356
2201.63	376
2203.59	362
2205.55	364
2207.51	380
2209.46	332
2211.42	370
2213.38	362
2215.34	350
2217.29	354
2219.25	362
2221.2	364
2223.16	346
2225.11	372
2227.06	356
2229.02	354
2230.97	358
2232.92	358
2234.87	358
2236.82	346
2238.77	370
2240.72	340
2242.67	354
2244.62	372
2246.57	358
2248.51	366
2250.46	356
2252.4	350
2254.35	366
2256.29	362
2258.24	382
2260.18	362
2262.13	374
2264.07	348
2266.01	350
2267.95	382
2269.89	354
2271.83	358
2273.77	372
2275.71	362
2277.65	362
2279.58	364
2281.52	354
2283.46	370
2285.4	362
2287.33	342
2289.27	356
2291.2	348
2293.13	372
2295.07	368
2297	358
2298.93	362
2300.86	360
2302.79	372
2304.72	374
2306.65	370
2308.58	372
2310.51	368
2312.44	368
2314.37	374
2316.29	370
2318.22	352
2320.15	368
2322.07	380
2324	356
2325.92	366
2327.84	380
2329.77	352
2331.69	372
2333.61	358
2335.53	366
2337.45	382
2339.37	374
2341.29	360
2343.21	370
2345.13	362
2347.05	376
2348.97	384
2350.88	370
2352.8	362
2354.71	380
2356.63	370
2358.54	360
2360.46	358
2362.37	368
2364.28	368
2366.2	384
2368.11	372
2370.02	368
2371.93	374
2373.84	344
2375.75	386
2377.66	364
2379.57	366
2381.47	352
2383.38	364
2385.29	378
2387.2	374
2389.1	370
2391.01	378
2392.91	376
2394.81	350
2396.72	370
2398.62	362
2400.52	362
2402.42	366
2404.33	350
2406.23	366
2408.13	384
2410.03	344
2411.92	378
2413.82	356
2415.72	380
2417.62	372
2419.51	360
2421.41	386
2423.31	372
2425.2	372
2427.1	364
2428.99	378
2430.88	372
2432.78	372
2434.67	358
2436.56	362
2438.45	362
2440.34	374
2442.23	384
2444.12	378
2446.01	374
2447.9	382
2449.79	382