File: Jesse_Dataset_v2/Pure Raman/Polystyrene/633nm/ps-ppo-7jan25-1,0000-map3_Y08_X01.txt
182.393	1070
184.993	1020
187.593	980
190.193	980
192.79	966
195.387	952
197.983	908
200.578	966
203.174	956
205.766	964
208.36	998
210.951	1030
213.542	1034
216.131	1092
218.721	1082
221.309	1110
223.897	1056
226.483	1078
229.069	1014
231.654	966
234.238	866
236.821	762
239.404	718
241.984	622
244.566	534
247.145	500
249.723	440
252.302	408
254.878	416
257.455	386
260.03	378
262.604	372
265.178	352
267.75	346
270.322	348
272.893	332
275.463	360
278.032	336
280.601	338
283.168	318
285.734	310
288.301	310
290.866	294
293.429	286
295.992	266
298.556	254
301.117	280
303.677	234
306.236	260
308.795	248
311.354	254
313.911	272
316.467	248
319.022	264
321.577	270
324.13	264
326.684	264
329.236	280
331.787	266
334.337	254
336.887	260
339.435	280
341.983	242
344.529	264
347.075	266
349.621	258
352.165	256
354.708	262
357.251	246
359.793	244
362.334	256
364.874	244
367.413	252
369.951	256
372.489	248
375.026	248
377.562	272
380.097	284
382.631	284
385.164	272
387.697	292
390.229	294
392.76	312
395.29	316
397.819	330
400.346	334
402.873	332
405.4	356
407.926	400
410.451	358
412.976	344
415.499	338
418.02	320
420.542	288
423.063	308
425.583	284
428.101	258
430.619	270
433.137	256
435.654	270
438.169	246
440.684	256
443.198	254
445.712	252
448.223	252
450.735	258
453.246	234
455.755	226
458.264	226
460.771	222
463.279	204
465.786	218
468.291	230
470.796	228
473.301	208
475.803	216
478.306	214
480.807	224
483.308	218
485.807	200
488.307	212
490.804	212
493.302	218
495.798	216
498.294	228
500.788	226
503.283	236
505.775	232
508.269	238
510.759	206
513.251	238
515.74	232
518.23	224
520.718	244
523.204	230
525.692	246
528.177	244
530.663	246
533.147	254
535.629	276
538.113	286
540.594	272
543.074	290
545.555	300
548.034	298
550.512	280
552.989	290
555.467	290
557.942	278
560.417	280
562.892	284
565.365	262
567.838	258
570.309	286
572.78	282
575.251	300
577.72	302
580.189	270
582.656	246
585.123	250
587.589	232
590.055	226
592.52	236
594.983	232
597.446	248
599.908	246
602.369	262
604.829	270
607.289	288
609.747	296
612.205	314
614.663	340
617.119	448
619.574	728
622.029	1116
624.483	1014
626.936	558
629.389	346
631.84	308
634.291	290
636.741	258
639.19	238
641.639	214
644.086	222
646.533	198
648.979	208
651.424	208
653.869	208
656.313	198
658.754	188
661.196	180
663.638	190
666.078	204
668.518	188
670.957	198
673.394	190
675.831	198
678.268	176
680.703	196
683.137	196
685.571	208
688.005	178
690.437	210
692.868	196
695.299	216
697.729	220
700.159	220
702.586	236
705.014	242
707.441	238
709.866	232
712.292	236
714.716	230
717.14	228
719.563	254
721.984	274
724.406	298
726.825	330
729.246	282
731.665	296
734.082	306
736.5	334
738.916	352
741.332	376
743.746	400
746.161	396
748.574	418
750.987	422
753.398	438
755.81	446
758.219	486
760.629	510
763.037	492
765.445	486
767.852	482
770.258	450
772.664	440
775.068	422
777.472	424
779.876	444
782.278	476
784.679	524
787.08	580
789.48	610
791.879	664
794.278	708
796.675	704
799.072	698
801.467	640
803.864	564
806.258	464
808.651	456
811.044	418
813.437	382
815.828	372
818.218	322
820.608	314
822.997	292
825.385	278
827.773	270
830.16	272
832.546	290
834.931	298
837.315	320
839.699	362
842.081	370
844.463	386
846.844	374
849.226	342
851.606	324
853.985	314
856.363	314
858.741	316
861.117	308
863.493	292
865.868	292
868.243	294
870.616	318
872.989	304
875.36	282
877.731	286
880.102	302
882.472	290
884.841	300
887.209	268
889.577	278
891.944	276
894.31	278
896.674	304
899.039	302
901.403	330
903.766	354
906.128	362
908.49	362
910.849	356
913.209	344
915.569	328
917.927	292
920.284	276
922.641	268
924.997	270
927.353	264
929.707	244
932.061	266
934.414	264
936.765	276
939.117	274
941.469	270
943.818	266
946.167	258
948.515	282
950.863	268
953.211	274
955.556	270
957.902	274
960.246	292
962.59	298
964.933	344
967.276	340
969.617	328
971.958	358
974.298	354
976.638	344
978.976	402
981.314	448
983.651	526
985.988	648
988.323	784
990.659	1196
992.992	1724
995.325	1870
997.658	2354
999.99	4202
1002.32	6614
1004.65	6082
1006.98	3338
1009.31	1572
1011.64	838
1013.97	572
1016.29	512
1018.62	476
1020.94	522
1023.27	632
1025.59	818
1027.91	1210
1030.24	1634
1032.56	1966
1034.88	1882
1037.2	1384
1039.52	1000
1041.84	712
1044.15	580
1046.47	484
1048.79	436
1051.1	406
1053.42	396
1055.73	404
1058.04	398
1060.36	386
1062.67	418
1064.98	420
1067.29	420
1069.6	440
1071.91	462
1074.22	442
1076.52	446
1078.83	408
1081.14	412
1083.44	428
1085.75	422
1088.05	426
1090.35	424
1092.65	416
1094.95	420
1097.26	422
1099.56	444
1101.86	424
1104.15	402
1106.45	376
1108.75	374
1111.05	366
1113.34	324
1115.64	332
1117.93	336
1120.22	300
1122.52	294
1124.81	266
1127.1	264
1129.39	240
1131.68	280
1133.97	276
1136.26	272
1138.54	290
1140.83	324
1143.12	324
1145.4	366
1147.69	422
1149.97	478
1152.25	646
1154.54	862
1156.82	982
1159.1	868
1161.38	710
1163.66	582
1165.94	522
1168.22	512
1170.49	532
1172.77	552
1175.05	606
1177.32	746
1179.6	956
1181.87	1188
1184.14	1186
1186.42	1108
1188.69	1080
1190.96	1078
1193.23	1150
1195.5	1218
1197.77	1216
1200.03	1202
1202.3	1132
1204.57	1082
1206.83	974
1209.1	854
1211.36	706
1213.63	622
1215.89	562
1218.15	502
1220.41	468
1222.67	462
1224.93	458
1227.19	446
1229.45	418
1231.71	426
1233.97	380
1236.22	368
1238.48	386
1240.73	370
1242.99	372
1245.24	362
1247.5	376
1249.75	346
1252	342
1254.25	354
1256.5	354
1258.75	362
1261	342
1263.25	350
1265.49	350
1267.74	360
1269.99	346
1272.23	350
1274.48	346
1276.72	332
1278.96	342
1281.21	326
1283.45	352
1285.69	334
1287.93	360
1290.17	374
1292.41	366
1294.64	360
1296.88	388
1299.12	394
1301.36	402
1303.59	420
1305.82	410
1308.06	404
1310.29	418
1312.52	432
1314.76	430
1316.99	440
1319.22	480
1321.45	512
1323.68	512
1325.9	504
1328.13	518
1330.36	532
1332.58	542
1334.81	494
1337.04	492
1339.26	460
1341.48	442
1343.71	402
1345.93	398
1348.15	366
1350.37	384
1352.59	372
1354.81	364
1357.03	364
1359.24	364
1361.46	362
1363.68	376
1365.89	362
1368.11	386
1370.32	374
1372.54	362
1374.75	384
1376.96	354
1379.17	344
1381.38	356
1383.59	336
1385.8	290
1388.01	296
1390.22	272
1392.43	272
1394.63	270
1396.84	274
1399.05	270
1401.25	280
1403.45	264
1405.66	258
1407.86	254
1410.06	254
1412.26	260
1414.46	244
1416.66	258
1418.86	272
1421.06	270
1423.26	254
1425.46	262
1427.65	266
1429.85	274
1432.04	304
1434.24	328
1436.43	364
1438.62	418
1440.82	450
1443.01	476
1445.2	510
1447.39	582
1449.58	612
1451.77	600
1453.95	594
1456.14	536
1458.33	452
1460.52	386
1462.7	324
1464.89	310
1467.07	292
1469.25	286
1471.44	276
1473.62	286
1475.8	284
1477.98	288
1480.16	268
1482.34	270
1484.52	282
1486.7	254
1488.87	274
1491.05	284
1493.23	298
1495.4	304
1497.58	280
1499.75	280
1501.92	280
1504.1	262
1506.27	268
1508.44	274
1510.61	268
1512.78	282
1514.95	262
1517.12	262
1519.28	254
1521.45	272
1523.62	272
1525.78	278
1527.95	272
1530.11	274
1532.28	256
1534.44	258
1536.6	286
1538.76	262
1540.93	270
1543.09	274
1545.25	288
1547.41	282
1549.56	280
1551.72	278
1553.88	274
1556.03	282
1558.19	300
1560.35	308
1562.5	308
1564.65	316
1566.81	300
1568.96	330
1571.11	338
1573.26	360
1575.41	414
1577.56	480
1579.71	584
1581.86	822
1584.01	984
1586.15	920
1588.3	688
1590.45	612
1592.59	618
1594.74	656
1596.88	878
1599.02	1226
1601.17	1668
1603.31	1872
1605.45	1718
1607.59	1332
1609.73	916
1611.87	714
1614.01	566
1616.14	472
1618.28	438
1620.42	412
1622.55	382
1624.69	344
1626.82	354
1628.96	326
1631.09	340
1633.22	344
1635.36	312
1637.49	326
1639.62	314
1641.75	332
1643.88	328
1646	342
1648.13	354
1650.26	348
1652.39	340
1654.51	308
1656.64	310
1658.76	302
1660.89	298
1663.01	288
1665.13	298
1667.26	286
1669.38	282
1671.5	298
1673.62	310
1675.74	290
1677.86	288
1679.97	302
1682.09	288
1684.21	296
1686.33	310
1688.44	298
1690.56	308
1692.67	300
1694.78	308
1696.9	290
1699.01	286
1701.12	276
1703.23	280
1705.34	306
1707.45	290
1709.56	294
1711.67	288
1713.78	298
1715.88	288
1717.99	290
1720.1	304
1722.2	294
1724.31	278
1726.41	296
1728.51	274
1730.62	284
1732.72	296
1734.82	304
1736.92	286
1739.02	286
1741.12	296
1743.22	284
1745.32	306
1747.42	292
1749.51	264
1751.61	298
1753.7	284
1755.8	286
1757.89	308
1759.99	282
1762.08	264
1764.17	284
1766.26	294
1768.36	292
1770.45	272
1772.54	296
1774.62	310
1776.71	300
1778.8	282
1780.89	268
1782.98	302
1785.06	290
1787.15	286
1789.23	312
1791.32	300
1793.4	294
1795.48	300
1797.56	306
1799.65	298
1801.73	306
1803.81	292
1805.89	296
1807.97	284
1810.04	310
1812.12	302
1814.2	294
1816.28	290
1818.35	302
1820.43	294
1822.5	304
1824.58	282
1826.65	302
1828.72	298
1830.79	320
1832.86	292
1834.94	294
1837.01	304
1839.08	302
1841.15	284
1843.21	300
1845.28	310
1847.35	298
1849.41	296
1851.48	288
1853.55	284
1855.61	284
1857.67	306
1859.74	296
1861.8	312
1863.86	296
1865.92	296
1867.98	298
1870.05	286
1872.1	308
1874.16	298
1876.22	284
1878.28	300
1880.34	294
1882.39	286
1884.45	296
1886.5	320
1888.56	292
1890.61	294
1892.67	312
1894.72	294
1896.77	302
1898.82	308
1900.87	302
1902.92	306
1904.97	316
1907.02	316
1909.07	320
1911.12	310
1913.17	302
1915.21	310
1917.26	326
1919.3	324
1921.35	312
1923.39	324
1925.43	298
1927.48	330
1929.52	320
1931.56	300
1933.6	312
1935.64	316
1937.68	318
1939.72	326
1941.76	310
1943.8	306
1945.83	320
1947.87	310
1949.91	324
1951.94	304
1953.98	310
1956.01	316
1958.05	322
1960.08	324
1962.11	308
1964.14	326
1966.17	324
1968.2	310
1970.23	314
1972.26	324
1974.29	308
1976.32	312
1978.35	316
1980.37	310
1982.4	314
1984.43	294
1986.45	300
1988.48	314
1990.5	314
1992.52	306
1994.55	296
1996.57	314
1998.59	304
2000.61	324
2002.63	318
2004.65	308
2006.67	322
2008.69	308
2010.7	320
2012.72	308
2014.74	320
2016.75	322
2018.77	304
2020.78	326
2022.8	316
2024.81	306
2026.83	310
2028.84	312
2030.85	326
2032.86	318
2034.87	328
2036.88	310
2038.89	306
2040.9	316
2042.91	326
2044.91	312
2046.92	306
2048.93	316
2050.93	316
2052.94	318
2054.94	330
2056.95	322
2058.95	338
2060.95	304
2062.95	312
2064.96	320
2066.96	332
2068.96	328
2070.96	324
2072.96	316
2074.95	324
2076.95	338
2078.95	310
2080.95	334
2082.94	304
2084.94	306
2086.93	320
2088.93	324
2090.92	304
2092.91	324
2094.91	312
2096.9	332
2098.89	300
2100.88	308
2102.87	334
2104.86	324
2106.85	316
2108.84	310
2110.83	334
2112.81	324
2114.8	326
2116.78	336
2118.77	318
2120.75	314
2122.74	336
2124.72	340
2126.71	328
2128.69	336
2130.67	332
2132.65	326
2134.63	326
2136.61	324
2138.59	338
2140.57	316
2142.55	330
2144.53	322
2146.5	336
2148.48	334
2150.46	328
2152.43	310
2154.41	332
2156.38	320
2158.35	322
2160.33	322
2162.3	336
2164.27	344
2166.24	322
2168.21	348
2170.18	332
2172.15	328
2174.12	324
2176.09	334
2178.06	338
2180.03	338
2181.99	344
2183.96	322
2185.92	334
2187.89	332
2189.85	328
2191.82	330
2193.78	326
2195.74	344
2197.7	318
2199.67	338
2201.63	330
2203.59	334
2205.55	324
2207.51	334
2209.46	310
2211.42	358
2213.38	322
2215.34	342
2217.29	344
2219.25	330
2221.2	326
2223.16	330
2225.11	342
2227.06	320
2229.02	338
2230.97	338
2232.92	340
2234.87	336
2236.82	340
2238.77	316
2240.72	338
2242.67	350
2244.62	318
2246.57	322
2248.51	342
2250.46	324
2252.4	352
2254.35	332
2256.29	336
2258.24	336
2260.18	332
2262.13	326
2264.07	336
2266.01	316
2267.95	326
2269.89	316
2271.83	344
2273.77	344
2275.71	322
2277.65	322
2279.58	330
2281.52	336
2283.46	320
2285.4	334
2287.33	310
2289.27	324
2291.2	342
2293.13	332
2295.07	360
2297	308
2298.93	324
2300.86	332
2302.79	332
2304.72	348
2306.65	342
2308.58	332
2310.51	332
2312.44	338
2314.37	316
2316.29	330
2318.22	328
2320.15	358
2322.07	340
2324	316
2325.92	326
2327.84	336
2329.77	350
2331.69	336
2333.61	346
2335.53	348
2337.45	348
2339.37	326
2341.29	346
2343.21	334
2345.13	352
2347.05	338
2348.97	352
2350.88	350
2352.8	350
2354.71	342
2356.63	334
2358.54	328
2360.46	346
2362.37	348
2364.28	324
2366.2	340
2368.11	332
2370.02	350
2371.93	348
2373.84	340
2375.75	330
2377.66	344
2379.57	352
2381.47	338
2383.38	340
2385.29	334
2387.2	352
2389.1	332
2391.01	340
2392.91	348
2394.81	326
2396.72	338
2398.62	330
2400.52	350
2402.42	336
2404.33	350
2406.23	342
2408.13	360
2410.03	354
2411.92	314
2413.82	348
2415.72	330
2417.62	332
2419.51	344
2421.41	354
2423.31	356
2425.2	358
2427.1	344
2428.99	342
2430.88	328
2432.78	354
2434.67	334
2436.56	340
2438.45	372
2440.34	348
2442.23	354
2444.12	376
2446.01	342
2447.9	360
2449.79	356