File: Jesse_Dataset_v2/Pure Raman/Polystyrene/633nm/ps-ppo-7jan25-1,0000-map3_Y04_X01.txt
182.393	1048
184.993	1046
187.593	1016
190.193	990
192.79	940
195.387	948
197.983	916
200.578	956
203.174	946
205.766	1012
208.36	982
210.951	1036
213.542	1048
216.131	1040
218.721	1102
221.309	1116
223.897	1072
226.483	1046
229.069	1012
231.654	896
234.238	886
236.821	734
239.404	672
241.984	630
244.566	538
247.145	466
249.723	416
252.302	428
254.878	406
257.455	352
260.03	344
262.604	368
265.178	334
267.75	342
270.322	348
272.893	340
275.463	346
278.032	318
280.601	312
283.168	278
285.734	292
288.301	276
290.866	278
293.429	258
295.992	242
298.556	236
301.117	234
303.677	250
306.236	230
308.795	238
311.354	232
313.911	224
316.467	236
319.022	254
321.577	238
324.13	244
326.684	230
329.236	248
331.787	232
334.337	232
336.887	232
339.435	224
341.983	232
344.529	226
347.075	234
349.621	228
352.165	218
354.708	218
357.251	212
359.793	218
362.334	224
364.874	226
367.413	238
369.951	230
372.489	224
375.026	224
377.562	220
380.097	232
382.631	250
385.164	270
387.697	254
390.229	268
392.76	272
395.29	282
397.819	282
400.346	302
402.873	306
405.4	348
407.926	344
410.451	352
412.976	314
415.499	332
418.02	296
420.542	280
423.063	246
425.583	246
428.101	256
430.619	226
433.137	224
435.654	230
438.169	224
440.684	212
443.198	224
445.712	216
448.223	220
450.735	192
453.246	196
455.755	196
458.264	188
460.771	188
463.279	178
465.786	180
468.291	180
470.796	178
473.301	174
475.803	180
478.306	168
480.807	194
483.308	178
485.807	170
488.307	184
490.804	186
493.302	188
495.798	182
498.294	178
500.788	188
503.283	202
505.775	184
508.269	174
510.759	192
513.251	190
515.74	188
518.23	176
520.718	198
523.204	178
525.692	206
528.177	210
530.663	214
533.147	240
535.629	242
538.113	258
540.594	254
543.074	254
545.555	244
548.034	252
550.512	272
552.989	240
555.467	262
557.942	256
560.417	250
562.892	236
565.365	248
567.838	270
570.309	236
572.78	254
575.251	254
577.72	246
580.189	236
582.656	214
585.123	200
587.589	208
590.055	206
592.52	216
594.983	220
597.446	206
599.908	204
602.369	236
604.829	242
607.289	268
609.747	292
612.205	286
614.663	314
617.119	422
619.574	710
622.029	1118
624.483	998
626.936	526
629.389	340
631.84	288
634.291	236
636.741	206
639.19	224
641.639	190
644.086	196
646.533	174
648.979	170
651.424	178
653.869	150
656.313	176
658.754	168
661.196	166
663.638	156
666.078	162
668.518	170
670.957	164
673.394	166
675.831	174
678.268	164
680.703	180
683.137	166
685.571	162
688.005	156
690.437	172
692.868	188
695.299	188
697.729	184
700.159	188
702.586	208
705.014	214
707.441	230
709.866	206
712.292	198
714.716	202
717.14	214
719.563	200
721.984	256
724.406	286
726.825	304
729.246	306
731.665	258
734.082	266
736.5	306
738.916	340
741.332	376
743.746	380
746.161	382
748.574	366
750.987	394
753.398	418
755.81	430
758.219	458
760.629	492
763.037	458
765.445	466
767.852	460
770.258	418
772.664	422
775.068	424
777.472	410
779.876	432
782.278	450
784.679	500
787.08	556
789.48	580
791.879	656
794.278	650
796.675	678
799.072	680
801.467	620
803.864	550
806.258	466
808.651	440
811.044	412
813.437	358
815.828	324
818.218	316
820.608	292
822.997	278
825.385	252
827.773	268
830.16	236
832.546	258
834.931	278
837.315	322
839.699	336
842.081	354
844.463	366
846.844	350
849.226	344
851.606	322
853.985	302
856.363	310
858.741	286
861.117	298
863.493	286
865.868	290
868.243	306
870.616	294
872.989	294
875.36	286
877.731	282
880.102	296
882.472	282
884.841	274
887.209	288
889.577	270
891.944	286
894.31	274
896.674	278
899.039	290
901.403	308
903.766	346
906.128	348
908.49	362
910.849	330
913.209	312
915.569	300
917.927	284
920.284	266
922.641	246
924.997	242
927.353	234
929.707	248
932.061	250
934.414	246
936.765	226
939.117	268
941.469	252
943.818	258
946.167	264
948.515	270
950.863	266
953.211	248
955.556	270
957.902	260
960.246	284
962.59	292
964.933	316
967.276	320
969.617	318
971.958	304
974.298	340
976.638	356
978.976	402
981.314	458
983.651	506
985.988	632
988.323	768
990.659	1214
992.992	1732
995.325	1892
997.658	2344
999.99	4144
1002.32	6602
1004.65	6264
1006.98	3496
1009.31	1576
1011.64	838
1013.97	594
1016.29	474
1018.62	444
1020.94	494
1023.27	648
1025.59	864
1027.91	1184
1030.24	1644
1032.56	1948
1034.88	1884
1037.2	1410
1039.52	1006
1041.84	688
1044.15	572
1046.47	492
1048.79	432
1051.1	436
1053.42	434
1055.73	402
1058.04	388
1060.36	414
1062.67	406
1064.98	404
1067.29	448
1069.6	442
1071.91	442
1074.22	454
1076.52	412
1078.83	432
1081.14	424
1083.44	428
1085.75	436
1088.05	408
1090.35	418
1092.65	408
1094.95	408
1097.26	428
1099.56	418
1101.86	424
1104.15	394
1106.45	384
1108.75	368
1111.05	348
1113.34	340
1115.64	328
1117.93	330
1120.22	296
1122.52	288
1124.81	282
1127.1	290
1129.39	262
1131.68	270
1133.97	282
1136.26	270
1138.54	318
1140.83	306
1143.12	314
1145.4	362
1147.69	390
1149.97	476
1152.25	652
1154.54	874
1156.82	956
1159.1	900
1161.38	702
1163.66	606
1165.94	524
1168.22	514
1170.49	492
1172.77	532
1175.05	618
1177.32	782
1179.6	946
1181.87	1204
1184.14	1244
1186.42	1114
1188.69	1046
1190.96	1034
1193.23	1126
1195.5	1218
1197.77	1202
1200.03	1218
1202.3	1194
1204.57	1098
1206.83	998
1209.1	826
1211.36	732
1213.63	620
1215.89	570
1218.15	464
1220.41	462
1222.67	452
1224.93	464
1227.19	422
1229.45	406
1231.71	398
1233.97	410
1236.22	404
1238.48	342
1240.73	396
1242.99	356
1245.24	346
1247.5	350
1249.75	366
1252	354
1254.25	354
1256.5	342
1258.75	336
1261	352
1263.25	330
1265.49	338
1267.74	354
1269.99	368
1272.23	342
1274.48	322
1276.72	310
1278.96	316
1281.21	346
1283.45	348
1285.69	350
1287.93	354
1290.17	364
1292.41	380
1294.64	372
1296.88	372
1299.12	376
1301.36	394
1303.59	402
1305.82	412
1308.06	420
1310.29	438
1312.52	430
1314.76	430
1316.99	434
1319.22	472
1321.45	480
1323.68	514
1325.9	528
1328.13	498
1330.36	528
1332.58	550
1334.81	502
1337.04	492
1339.26	468
1341.48	432
1343.71	424
1345.93	406
1348.15	394
1350.37	372
1352.59	372
1354.81	354
1357.03	376
1359.24	346
1361.46	382
1363.68	358
1365.89	348
1368.11	364
1370.32	376
1372.54	368
1374.75	374
1376.96	358
1379.17	372
1381.38	350
1383.59	336
1385.8	318
1388.01	298
1390.22	278
1392.43	262
1394.63	274
1396.84	256
1399.05	262
1401.25	280
1403.45	270
1405.66	254
1407.86	260
1410.06	258
1412.26	268
1414.46	258
1416.66	268
1418.86	270
1421.06	258
1423.26	250
1425.46	258
1427.65	256
1429.85	288
1432.04	304
1434.24	316
1436.43	362
1438.62	384
1440.82	438
1443.01	470
1445.2	556
1447.39	576
1449.58	610
1451.77	630
1453.95	592
1456.14	504
1458.33	454
1460.52	352
1462.7	326
1464.89	320
1467.07	296
1469.25	304
1471.44	268
1473.62	266
1475.8	280
1477.98	284
1480.16	262
1482.34	262
1484.52	274
1486.7	252
1488.87	268
1491.05	290
1493.23	298
1495.4	296
1497.58	278
1499.75	286
1501.92	246
1504.1	262
1506.27	262
1508.44	260
1510.61	252
1512.78	278
1514.95	268
1517.12	274
1519.28	268
1521.45	258
1523.62	282
1525.78	272
1527.95	284
1530.11	268
1532.28	282
1534.44	280
1536.6	272
1538.76	252
1540.93	278
1543.09	264
1545.25	264
1547.41	268
1549.56	264
1551.72	286
1553.88	280
1556.03	268
1558.19	276
1560.35	296
1562.5	276
1564.65	304
1566.81	322
1568.96	336
1571.11	354
1573.26	356
1575.41	410
1577.56	474
1579.71	584
1581.86	804
1584.01	980
1586.15	910
1588.3	712
1590.45	610
1592.59	626
1594.74	682
1596.88	870
1599.02	1240
1601.17	1662
1603.31	1906
1605.45	1686
1607.59	1302
1609.73	918
1611.87	698
1614.01	572
1616.14	484
1618.28	434
1620.42	398
1622.55	388
1624.69	372
1626.82	332
1628.96	326
1631.09	312
1633.22	314
1635.36	312
1637.49	322
1639.62	310
1641.75	318
1643.88	334
1646	334
1648.13	356
1650.26	354
1652.39	328
1654.51	332
1656.64	296
1658.76	284
1660.89	284
1663.01	272
1665.13	284
1667.26	288
1669.38	278
1671.5	268
1673.62	270
1675.74	292
1677.86	274
1679.97	276
1682.09	280
1684.21	294
1686.33	300
1688.44	304
1690.56	292
1692.67	294
1694.78	290
1696.9	284
1699.01	282
1701.12	274
1703.23	280
1705.34	272
1707.45	266
1709.56	272
1711.67	274
1713.78	272
1715.88	280
1717.99	260
1720.1	290
1722.2	266
1724.31	284
1726.41	276
1728.51	280
1730.62	288
1732.72	254
1734.82	276
1736.92	288
1739.02	278
1741.12	280
1743.22	280
1745.32	274
1747.42	278
1749.51	272
1751.61	276
1753.7	276
1755.8	268
1757.89	256
1759.99	286
1762.08	284
1764.17	282
1766.26	286
1768.36	274
1770.45	276
1772.54	288
1774.62	256
1776.71	276
1778.8	286
1780.89	274
1782.98	298
1785.06	280
1787.15	272
1789.23	270
1791.32	284
1793.4	282
1795.48	286
1797.56	288
1799.65	294
1801.73	272
1803.81	294
1805.89	284
1807.97	282
1810.04	284
1812.12	288
1814.2	296
1816.28	284
1818.35	300
1820.43	272
1822.5	300
1824.58	284
1826.65	282
1828.72	292
1830.79	292
1832.86	264
1834.94	294
1837.01	292
1839.08	280
1841.15	282
1843.21	268
1845.28	280
1847.35	310
1849.41	282
1851.48	296
1853.55	284
1855.61	292
1857.67	286
1859.74	286
1861.8	302
1863.86	290
1865.92	290
1867.98	300
1870.05	284
1872.1	300
1874.16	280
1876.22	296
1878.28	310
1880.34	298
1882.39	292
1884.45	290
1886.5	294
1888.56	286
1890.61	280
1892.67	284
1894.72	284
1896.77	304
1898.82	290
1900.87	306
1902.92	296
1904.97	290
1907.02	294
1909.07	296
1911.12	310
1913.17	294
1915.21	296
1917.26	306
1919.3	302
1921.35	310
1923.39	308
1925.43	306
1927.48	308
1929.52	312
1931.56	300
1933.6	286
1935.64	282
1937.68	298
1939.72	290
1941.76	322
1943.8	292
1945.83	294
1947.87	290
1949.91	294
1951.94	288
1953.98	290
1956.01	300
1958.05	314
1960.08	300
1962.11	306
1964.14	298
1966.17	298
1968.2	302
1970.23	302
1972.26	302
1974.29	302
1976.32	298
1978.35	302
1980.37	286
1982.4	308
1984.43	314
1986.45	306
1988.48	298
1990.5	308
1992.52	296
1994.55	316
1996.57	304
1998.59	308
2000.61	296
2002.63	320
2004.65	294
2006.67	320
2008.69	328
2010.7	318
2012.72	312
2014.74	318
2016.75	318
2018.77	302
2020.78	298
2022.8	310
2024.81	312
2026.83	312
2028.84	312
2030.85	304
2032.86	312
2034.87	306
2036.88	306
2038.89	322
2040.9	302
2042.91	314
2044.91	302
2046.92	296
2048.93	334
2050.93	300
2052.94	296
2054.94	318
2056.95	314
2058.95	322
2060.95	314
2062.95	324
2064.96	328
2066.96	316
2068.96	316
2070.96	338
2072.96	314
2074.95	308
2076.95	322
2078.95	322
2080.95	322
2082.94	322
2084.94	314
2086.93	324
2088.93	312
2090.92	312
2092.91	312
2094.91	320
2096.9	316
2098.89	316
2100.88	318
2102.87	326
2104.86	334
2106.85	318
2108.84	304
2110.83	318
2112.81	312
2114.8	320
2116.78	312
2118.77	312
2120.75	326
2122.74	326
2124.72	302
2126.71	302
2128.69	336
2130.67	324
2132.65	320
2134.63	324
2136.61	296
2138.59	332
2140.57	308
2142.55	302
2144.53	320
2146.5	324
2148.48	312
2150.46	316
2152.43	310
2154.41	318
2156.38	326
2158.35	322
2160.33	312
2162.3	320
2164.27	346
2166.24	320
2168.21	316
2170.18	322
2172.15	322
2174.12	326
2176.09	310
2178.06	336
2180.03	348
2181.99	346
2183.96	326
2185.92	328
2187.89	336
2189.85	306
2191.82	334
2193.78	328
2195.74	318
2197.7	330
2199.67	328
2201.63	330
2203.59	328
2205.55	332
2207.51	330
2209.46	340
2211.42	330
2213.38	336
2215.34	334
2217.29	338
2219.25	334
2221.2	338
2223.16	324
2225.11	324
2227.06	340
2229.02	332
2230.97	328
2232.92	330
2234.87	342
2236.82	350
2238.77	330
2240.72	318
2242.67	324
2244.62	340
2246.57	336
2248.51	332
2250.46	344
2252.4	344
2254.35	344
2256.29	318
2258.24	342
2260.18	320
2262.13	342
2264.07	326
2266.01	328
2267.95	336
2269.89	334
2271.83	316
2273.77	340
2275.71	334
2277.65	342
2279.58	340
2281.52	334
2283.46	336
2285.4	324
2287.33	342
2289.27	356
2291.2	344
2293.13	336
2295.07	332
2297	336
2298.93	340
2300.86	356
2302.79	348
2304.72	322
2306.65	348
2308.58	354
2310.51	352
2312.44	344
2314.37	350
2316.29	330
2318.22	340
2320.15	348
2322.07	340
2324	334
2325.92	362
2327.84	352
2329.77	334
2331.69	342
2333.61	338
2335.53	332
2337.45	344
2339.37	344
2341.29	346
2343.21	332
2345.13	354
2347.05	358
2348.97	346
2350.88	328
2352.8	334
2354.71	348
2356.63	340
2358.54	334
2360.46	350
2362.37	334
2364.28	330
2366.2	338
2368.11	346
2370.02	334
2371.93	354
2373.84	338
2375.75	336
2377.66	352
2379.57	366
2381.47	354
2383.38	354
2385.29	362
2387.2	368
2389.1	340
2391.01	348
2392.91	362
2394.81	362
2396.72	346
2398.62	344
2400.52	346
2402.42	346
2404.33	354
2406.23	330
2408.13	348
2410.03	344
2411.92	316
2413.82	354
2415.72	364
2417.62	354
2419.51	314
2421.41	342
2423.31	352
2425.2	342
2427.1	360
2428.99	370
2430.88	352
2432.78	356
2434.67	348
2436.56	348
2438.45	354
2440.34	354
2442.23	378
2444.12	370
2446.01	356
2447.9	356
2449.79	370