File: Jesse_Dataset_v2/Pure Raman/Polystyrene/633nm/ps-ppo-7jan25-1,0000-map3_Y02_X01.txt
182.393	1046
184.993	1020
187.593	1020
190.193	1002
192.79	1004
195.387	948
197.983	984
200.578	964
203.174	966
205.766	990
208.36	1004
210.951	1024
213.542	1088
216.131	1104
218.721	1104
221.309	1090
223.897	1080
226.483	1088
229.069	1008
231.654	962
234.238	850
236.821	780
239.404	698
241.984	614
244.566	566
247.145	492
249.723	446
252.302	446
254.878	394
257.455	378
260.03	372
262.604	370
265.178	380
267.75	346
270.322	362
272.893	364
275.463	348
278.032	346
280.601	318
283.168	326
285.734	300
288.301	304
290.866	294
293.429	292
295.992	274
298.556	268
301.117	254
303.677	264
306.236	262
308.795	248
311.354	250
313.911	252
316.467	254
319.022	274
321.577	254
324.13	260
326.684	246
329.236	246
331.787	248
334.337	254
336.887	260
339.435	262
341.983	258
344.529	256
347.075	254
349.621	252
352.165	230
354.708	238
357.251	228
359.793	234
362.334	246
364.874	238
367.413	242
369.951	250
372.489	244
375.026	242
377.562	260
380.097	264
382.631	268
385.164	274
387.697	274
390.229	286
392.76	294
395.29	300
397.819	298
400.346	302
402.873	334
405.4	350
407.926	388
410.451	350
412.976	346
415.499	330
418.02	300
420.542	298
423.063	282
425.583	268
428.101	262
430.619	260
433.137	232
435.654	256
438.169	228
440.684	252
443.198	226
445.712	230
448.223	230
450.735	222
453.246	228
455.755	218
458.264	194
460.771	210
463.279	206
465.786	206
468.291	188
470.796	198
473.301	206
475.803	206
478.306	202
480.807	190
483.308	178
485.807	196
488.307	190
490.804	190
493.302	184
495.798	176
498.294	194
500.788	200
503.283	206
505.775	224
508.269	222
510.759	190
513.251	204
515.74	196
518.23	214
520.718	200
523.204	218
525.692	240
528.177	238
530.663	220
533.147	262
535.629	252
538.113	262
540.594	294
543.074	282
545.555	282
548.034	278
550.512	278
552.989	266
555.467	266
557.942	266
560.417	260
562.892	256
565.365	260
567.838	278
570.309	260
572.78	284
575.251	266
577.72	280
580.189	252
582.656	236
585.123	238
587.589	234
590.055	224
592.52	234
594.983	218
597.446	222
599.908	210
602.369	232
604.829	254
607.289	292
609.747	298
612.205	286
614.663	336
617.119	434
619.574	736
622.029	1104
624.483	1026
626.936	560
629.389	348
631.84	306
634.291	260
636.741	254
639.19	222
641.639	218
644.086	190
646.533	202
648.979	206
651.424	194
653.869	184
656.313	188
658.754	196
661.196	188
663.638	188
666.078	200
668.518	184
670.957	190
673.394	182
675.831	190
678.268	174
680.703	184
683.137	180
685.571	184
688.005	196
690.437	192
692.868	198
695.299	200
697.729	204
700.159	224
702.586	234
705.014	228
707.441	252
709.866	230
712.292	238
714.716	240
717.14	222
719.563	244
721.984	284
724.406	302
726.825	344
729.246	300
731.665	282
734.082	284
736.5	306
738.916	344
741.332	396
743.746	430
746.161	400
748.574	396
750.987	422
753.398	454
755.81	466
758.219	494
760.629	512
763.037	498
765.445	482
767.852	488
770.258	468
772.664	414
775.068	448
777.472	440
779.876	458
782.278	480
784.679	522
787.08	564
789.48	626
791.879	650
794.278	694
796.675	728
799.072	716
801.467	670
803.864	604
806.258	524
808.651	434
811.044	442
813.437	424
815.828	360
818.218	348
820.608	318
822.997	312
825.385	294
827.773	282
830.16	290
832.546	292
834.931	302
837.315	350
839.699	354
842.081	382
844.463	396
846.844	400
849.226	368
851.606	342
853.985	344
856.363	332
858.741	336
861.117	330
863.493	336
865.868	322
868.243	322
870.616	328
872.989	320
875.36	318
877.731	332
880.102	324
882.472	306
884.841	316
887.209	316
889.577	304
891.944	320
894.31	324
896.674	310
899.039	334
901.403	358
903.766	370
906.128	386
908.49	398
910.849	372
913.209	356
915.569	340
917.927	316
920.284	300
922.641	290
924.997	284
927.353	298
929.707	294
932.061	274
934.414	284
936.765	300
939.117	282
941.469	310
943.818	322
946.167	276
948.515	292
950.863	298
953.211	306
955.556	308
957.902	318
960.246	340
962.59	336
964.933	366
967.276	366
969.617	370
971.958	372
974.298	386
976.638	392
978.976	452
981.314	512
983.651	570
985.988	656
988.323	822
990.659	1200
992.992	1800
995.325	1964
997.658	2332
999.99	4190
1002.32	6574
1004.65	6252
1006.98	3526
1009.31	1610
1011.64	878
1013.97	620
1016.29	502
1018.62	518
1020.94	554
1023.27	658
1025.59	902
1027.91	1216
1030.24	1658
1032.56	2000
1034.88	1910
1037.2	1496
1039.52	992
1041.84	766
1044.15	610
1046.47	506
1048.79	476
1051.1	468
1053.42	442
1055.73	462
1058.04	412
1060.36	448
1062.67	450
1064.98	466
1067.29	488
1069.6	466
1071.91	496
1074.22	498
1076.52	468
1078.83	460
1081.14	458
1083.44	468
1085.75	448
1088.05	438
1090.35	442
1092.65	480
1094.95	456
1097.26	476
1099.56	476
1101.86	484
1104.15	454
1106.45	428
1108.75	408
1111.05	410
1113.34	386
1115.64	394
1117.93	394
1120.22	330
1122.52	352
1124.81	330
1127.1	332
1129.39	338
1131.68	314
1133.97	318
1136.26	336
1138.54	334
1140.83	360
1143.12	384
1145.4	412
1147.69	438
1149.97	544
1152.25	706
1154.54	902
1156.82	1028
1159.1	912
1161.38	788
1163.66	622
1165.94	552
1168.22	564
1170.49	548
1172.77	608
1175.05	644
1177.32	790
1179.6	1010
1181.87	1200
1184.14	1264
1186.42	1168
1188.69	1038
1190.96	1070
1193.23	1144
1195.5	1230
1197.77	1238
1200.03	1268
1202.3	1174
1204.57	1110
1206.83	1010
1209.1	856
1211.36	764
1213.63	696
1215.89	586
1218.15	552
1220.41	526
1222.67	498
1224.93	502
1227.19	496
1229.45	494
1231.71	446
1233.97	396
1236.22	412
1238.48	412
1240.73	422
1242.99	396
1245.24	396
1247.5	402
1249.75	392
1252	392
1254.25	380
1256.5	370
1258.75	392
1261	394
1263.25	398
1265.49	398
1267.74	386
1269.99	366
1272.23	370
1274.48	386
1276.72	388
1278.96	392
1281.21	382
1283.45	382
1285.69	364
1287.93	386
1290.17	398
1292.41	408
1294.64	410
1296.88	408
1299.12	410
1301.36	420
1303.59	428
1305.82	424
1308.06	440
1310.29	444
1312.52	448
1314.76	458
1316.99	486
1319.22	492
1321.45	526
1323.68	554
1325.9	540
1328.13	540
1330.36	542
1332.58	556
1334.81	562
1337.04	520
1339.26	478
1341.48	458
1343.71	442
1345.93	410
1348.15	406
1350.37	396
1352.59	398
1354.81	388
1357.03	388
1359.24	400
1361.46	406
1363.68	384
1365.89	406
1368.11	414
1370.32	402
1372.54	398
1374.75	384
1376.96	384
1379.17	390
1381.38	368
1383.59	364
1385.8	322
1388.01	308
1390.22	316
1392.43	314
1394.63	308
1396.84	310
1399.05	298
1401.25	302
1403.45	298
1405.66	296
1407.86	302
1410.06	282
1412.26	294
1414.46	294
1416.66	284
1418.86	278
1421.06	292
1423.26	284
1425.46	284
1427.65	296
1429.85	296
1432.04	330
1434.24	332
1436.43	390
1438.62	438
1440.82	476
1443.01	526
1445.2	550
1447.39	602
1449.58	616
1451.77	630
1453.95	592
1456.14	548
1458.33	462
1460.52	402
1462.7	344
1464.89	358
1467.07	318
1469.25	302
1471.44	302
1473.62	292
1475.8	308
1477.98	312
1480.16	310
1482.34	304
1484.52	284
1486.7	292
1488.87	306
1491.05	302
1493.23	330
1495.4	308
1497.58	308
1499.75	300
1501.92	286
1504.1	280
1506.27	292
1508.44	272
1510.61	254
1512.78	276
1514.95	298
1517.12	282
1519.28	288
1521.45	294
1523.62	282
1525.78	272
1527.95	294
1530.11	278
1532.28	272
1534.44	278
1536.6	288
1538.76	278
1540.93	288
1543.09	292
1545.25	302
1547.41	290
1549.56	308
1551.72	296
1553.88	314
1556.03	306
1558.19	298
1560.35	326
1562.5	300
1564.65	314
1566.81	342
1568.96	356
1571.11	364
1573.26	370
1575.41	428
1577.56	492
1579.71	612
1581.86	792
1584.01	1020
1586.15	916
1588.3	714
1590.45	622
1592.59	610
1594.74	706
1596.88	920
1599.02	1184
1601.17	1672
1603.31	1904
1605.45	1730
1607.59	1318
1609.73	962
1611.87	696
1614.01	556
1616.14	470
1618.28	440
1620.42	402
1622.55	392
1624.69	374
1626.82	372
1628.96	358
1631.09	352
1633.22	312
1635.36	336
1637.49	312
1639.62	346
1641.75	350
1643.88	346
1646	364
1648.13	352
1650.26	362
1652.39	352
1654.51	346
1656.64	314
1658.76	312
1660.89	298
1663.01	310
1665.13	300
1667.26	304
1669.38	296
1671.5	300
1673.62	306
1675.74	302
1677.86	308
1679.97	314
1682.09	294
1684.21	294
1686.33	300
1688.44	306
1690.56	320
1692.67	280
1694.78	302
1696.9	306
1699.01	298
1701.12	304
1703.23	294
1705.34	310
1707.45	272
1709.56	302
1711.67	296
1713.78	288
1715.88	292
1717.99	314
1720.1	288
1722.2	286
1724.31	294
1726.41	298
1728.51	282
1730.62	300
1732.72	286
1734.82	292
1736.92	288
1739.02	292
1741.12	296
1743.22	294
1745.32	304
1747.42	308
1749.51	304
1751.61	302
1753.7	308
1755.8	296
1757.89	286
1759.99	288
1762.08	298
1764.17	288
1766.26	300
1768.36	282
1770.45	312
1772.54	290
1774.62	294
1776.71	294
1778.8	296
1780.89	294
1782.98	278
1785.06	288
1787.15	296
1789.23	302
1791.32	302
1793.4	304
1795.48	286
1797.56	294
1799.65	296
1801.73	304
1803.81	300
1805.89	300
1807.97	310
1810.04	312
1812.12	316
1814.2	290
1816.28	296
1818.35	310
1820.43	288
1822.5	308
1824.58	294
1826.65	294
1828.72	310
1830.79	300
1832.86	284
1834.94	308
1837.01	300
1839.08	300
1841.15	304
1843.21	282
1845.28	306
1847.35	292
1849.41	310
1851.48	298
1853.55	300
1855.61	316
1857.67	298
1859.74	294
1861.8	304
1863.86	296
1865.92	322
1867.98	278
1870.05	300
1872.1	300
1874.16	288
1876.22	314
1878.28	314
1880.34	292
1882.39	302
1884.45	318
1886.5	310
1888.56	306
1890.61	290
1892.67	302
1894.72	270
1896.77	312
1898.82	308
1900.87	310
1902.92	312
1904.97	316
1907.02	314
1909.07	288
1911.12	324
1913.17	296
1915.21	314
1917.26	312
1919.3	310
1921.35	314
1923.39	316
1925.43	308
1927.48	318
1929.52	324
1931.56	322
1933.6	318
1935.64	310
1937.68	322
1939.72	316
1941.76	314
1943.8	314
1945.83	306
1947.87	322
1949.91	316
1951.94	316
1953.98	316
1956.01	320
1958.05	324
1960.08	302
1962.11	318
1964.14	316
1966.17	336
1968.2	322
1970.23	316
1972.26	318
1974.29	320
1976.32	314
1978.35	324
1980.37	306
1982.4	328
1984.43	328
1986.45	320
1988.48	314
1990.5	322
1992.52	298
1994.55	320
1996.57	336
1998.59	314
2000.61	320
2002.63	332
2004.65	340
2006.67	312
2008.69	316
2010.7	334
2012.72	330
2014.74	330
2016.75	308
2018.77	320
2020.78	302
2022.8	330
2024.81	326
2026.83	302
2028.84	324
2030.85	314
2032.86	316
2034.87	328
2036.88	340
2038.89	336
2040.9	322
2042.91	308
2044.91	334
2046.92	314
2048.93	320
2050.93	344
2052.94	320
2054.94	322
2056.95	326
2058.95	336
2060.95	328
2062.95	328
2064.96	310
2066.96	338
2068.96	336
2070.96	334
2072.96	324
2074.95	322
2076.95	330
2078.95	334
2080.95	332
2082.94	334
2084.94	342
2086.93	322
2088.93	320
2090.92	332
2092.91	358
2094.91	326
2096.9	322
2098.89	338
2100.88	328
2102.87	318
2104.86	340
2106.85	324
2108.84	318
2110.83	336
2112.81	338
2114.8	318
2116.78	332
2118.77	350
2120.75	348
2122.74	332
2124.72	320
2126.71	314
2128.69	354
2130.67	324
2132.65	328
2134.63	314
2136.61	348
2138.59	326
2140.57	338
2142.55	332
2144.53	340
2146.5	330
2148.48	332
2150.46	344
2152.43	330
2154.41	328
2156.38	338
2158.35	344
2160.33	330
2162.3	342
2164.27	332
2166.24	342
2168.21	340
2170.18	350
2172.15	324
2174.12	328
2176.09	332
2178.06	346
2180.03	344
2181.99	352
2183.96	348
2185.92	340
2187.89	338
2189.85	338
2191.82	334
2193.78	316
2195.74	356
2197.7	324
2199.67	330
2201.63	342
2203.59	342
2205.55	348
2207.51	342
2209.46	352
2211.42	364
2213.38	332
2215.34	342
2217.29	356
2219.25	356
2221.2	352
2223.16	362
2225.11	330
2227.06	354
2229.02	358
2230.97	340
2232.92	360
2234.87	352
2236.82	338
2238.77	332
2240.72	334
2242.67	372
2244.62	326
2246.57	350
2248.51	334
2250.46	346
2252.4	354
2254.35	368
2256.29	340
2258.24	350
2260.18	356
2262.13	344
2264.07	352
2266.01	350
2267.95	358
2269.89	352
2271.83	352
2273.77	352
2275.71	346
2277.65	330
2279.58	348
2281.52	356
2283.46	330
2285.4	342
2287.33	326
2289.27	334
2291.2	368
2293.13	338
2295.07	326
2297	336
2298.93	342
2300.86	340
2302.79	360
2304.72	344
2306.65	350
2308.58	370
2310.51	366
2312.44	368
2314.37	344
2316.29	364
2318.22	338
2320.15	360
2322.07	348
2324	352
2325.92	356
2327.84	370
2329.77	338
2331.69	342
2333.61	340
2335.53	352
2337.45	348
2339.37	350
2341.29	362
2343.21	360
2345.13	330
2347.05	348
2348.97	356
2350.88	348
2352.8	366
2354.71	342
2356.63	368
2358.54	354
2360.46	358
2362.37	352
2364.28	370
2366.2	360
2368.11	350
2370.02	372
2371.93	356
2373.84	344
2375.75	354
2377.66	364
2379.57	366
2381.47	362
2383.38	350
2385.29	342
2387.2	360
2389.1	360
2391.01	362
2392.91	368
2394.81	350
2396.72	356
2398.62	358
2400.52	346
2402.42	358
2404.33	338
2406.23	384
2408.13	322
2410.03	364
2411.92	356
2413.82	346
2415.72	356
2417.62	350
2419.51	380
2421.41	356
2423.31	368
2425.2	346
2427.1	366
2428.99	370
2430.88	350
2432.78	342
2434.67	356
2436.56	344
2438.45	372
2440.34	370
2442.23	386
2444.12	370
2446.01	376
2447.9	384
2449.79	376