File: Jesse_Dataset_v2/Pure Raman/Polystyrene/633nm/ps-ppo-7jan25-1,0000-map3_Y03_X09.txt
182.393	1048
184.993	1008
187.593	984
190.193	984
192.79	978
195.387	942
197.983	946
200.578	904
203.174	992
205.766	970
208.36	1040
210.951	1036
213.542	1060
216.131	1070
218.721	1102
221.309	1084
223.897	1078
226.483	1050
229.069	1020
231.654	928
234.238	856
236.821	754
239.404	710
241.984	616
244.566	534
247.145	486
249.723	442
252.302	426
254.878	390
257.455	390
260.03	370
262.604	380
265.178	348
267.75	338
270.322	334
272.893	332
275.463	338
278.032	336
280.601	312
283.168	304
285.734	276
288.301	292
290.866	270
293.429	280
295.992	272
298.556	246
301.117	238
303.677	248
306.236	244
308.795	254
311.354	244
313.911	246
316.467	254
319.022	250
321.577	252
324.13	242
326.684	242
329.236	252
331.787	260
334.337	254
336.887	250
339.435	240
341.983	242
344.529	238
347.075	236
349.621	226
352.165	232
354.708	232
357.251	224
359.793	230
362.334	228
364.874	212
367.413	228
369.951	228
372.489	242
375.026	256
377.562	230
380.097	252
382.631	258
385.164	278
387.697	268
390.229	270
392.76	278
395.29	284
397.819	304
400.346	300
402.873	304
405.4	366
407.926	356
410.451	356
412.976	342
415.499	312
418.02	306
420.542	286
423.063	270
425.583	256
428.101	246
430.619	250
433.137	240
435.654	228
438.169	234
440.684	234
443.198	218
445.712	222
448.223	222
450.735	202
453.246	204
455.755	196
458.264	200
460.771	196
463.279	182
465.786	174
468.291	184
470.796	198
473.301	188
475.803	188
478.306	186
480.807	186
483.308	180
485.807	192
488.307	176
490.804	182
493.302	196
495.798	186
498.294	194
500.788	188
503.283	198
505.775	210
508.269	208
510.759	212
513.251	188
515.74	208
518.23	216
520.718	212
523.204	208
525.692	210
528.177	208
530.663	228
533.147	238
535.629	246
538.113	260
540.594	258
543.074	270
545.555	274
548.034	254
550.512	248
552.989	256
555.467	260
557.942	250
560.417	254
562.892	260
565.365	252
567.838	234
570.309	246
572.78	254
575.251	240
577.72	266
580.189	228
582.656	232
585.123	220
587.589	212
590.055	214
592.52	214
594.983	212
597.446	214
599.908	216
602.369	232
604.829	232
607.289	280
609.747	274
612.205	294
614.663	300
617.119	438
619.574	700
622.029	1112
624.483	948
626.936	522
629.389	364
631.84	292
634.291	236
636.741	222
639.19	196
641.639	208
644.086	180
646.533	178
648.979	188
651.424	174
653.869	178
656.313	162
658.754	162
661.196	174
663.638	174
666.078	176
668.518	182
670.957	176
673.394	178
675.831	170
678.268	170
680.703	162
683.137	162
685.571	170
688.005	178
690.437	180
692.868	176
695.299	178
697.729	206
700.159	200
702.586	214
705.014	216
707.441	214
709.866	240
712.292	220
714.716	220
717.14	230
719.563	238
721.984	254
724.406	310
726.825	324
729.246	310
731.665	276
734.082	292
736.5	294
738.916	328
741.332	376
743.746	388
746.161	388
748.574	388
750.987	384
753.398	408
755.81	452
758.219	464
760.629	490
763.037	480
765.445	472
767.852	468
770.258	436
772.664	414
775.068	422
777.472	430
779.876	442
782.278	446
784.679	518
787.08	550
789.48	602
791.879	630
794.278	674
796.675	676
799.072	668
801.467	632
803.864	536
806.258	476
808.651	444
811.044	382
813.437	360
815.828	334
818.218	346
820.608	300
822.997	286
825.385	266
827.773	268
830.16	276
832.546	266
834.931	304
837.315	324
839.699	346
842.081	362
844.463	378
846.844	370
849.226	338
851.606	326
853.985	310
856.363	310
858.741	328
861.117	280
863.493	290
865.868	316
868.243	282
870.616	302
872.989	294
875.36	286
877.731	308
880.102	278
882.472	304
884.841	272
887.209	274
889.577	290
891.944	292
894.31	302
896.674	308
899.039	294
901.403	348
903.766	318
906.128	362
908.49	378
910.849	348
913.209	318
915.569	286
917.927	306
920.284	270
922.641	284
924.997	276
927.353	252
929.707	256
932.061	258
934.414	282
936.765	278
939.117	268
941.469	280
943.818	266
946.167	256
948.515	278
950.863	278
953.211	290
955.556	286
957.902	280
960.246	288
962.59	318
964.933	326
967.276	338
969.617	332
971.958	354
974.298	352
976.638	356
978.976	416
981.314	478
983.651	528
985.988	606
988.323	796
990.659	1172
992.992	1682
995.325	1934
997.658	2326
999.99	4216
1002.32	6460
1004.65	6070
1006.98	3382
1009.31	1576
1011.64	834
1013.97	578
1016.29	488
1018.62	484
1020.94	518
1023.27	646
1025.59	836
1027.91	1204
1030.24	1690
1032.56	1956
1034.88	1870
1037.2	1436
1039.52	1006
1041.84	700
1044.15	572
1046.47	498
1048.79	440
1051.1	420
1053.42	416
1055.73	412
1058.04	406
1060.36	420
1062.67	408
1064.98	420
1067.29	434
1069.6	438
1071.91	452
1074.22	444
1076.52	436
1078.83	452
1081.14	432
1083.44	428
1085.75	418
1088.05	422
1090.35	446
1092.65	420
1094.95	434
1097.26	462
1099.56	428
1101.86	434
1104.15	408
1106.45	402
1108.75	374
1111.05	354
1113.34	344
1115.64	336
1117.93	326
1120.22	324
1122.52	296
1124.81	284
1127.1	298
1129.39	278
1131.68	274
1133.97	274
1136.26	300
1138.54	296
1140.83	326
1143.12	348
1145.4	360
1147.69	440
1149.97	506
1152.25	650
1154.54	910
1156.82	974
1159.1	924
1161.38	714
1163.66	574
1165.94	514
1168.22	518
1170.49	504
1172.77	572
1175.05	658
1177.32	800
1179.6	978
1181.87	1186
1184.14	1208
1186.42	1102
1188.69	1052
1190.96	1076
1193.23	1166
1195.5	1176
1197.77	1246
1200.03	1230
1202.3	1156
1204.57	1068
1206.83	976
1209.1	844
1211.36	728
1213.63	620
1215.89	570
1218.15	534
1220.41	502
1222.67	470
1224.93	466
1227.19	430
1229.45	430
1231.71	414
1233.97	400
1236.22	370
1238.48	390
1240.73	370
1242.99	370
1245.24	374
1247.5	374
1249.75	352
1252	390
1254.25	350
1256.5	350
1258.75	378
1261	348
1263.25	358
1265.49	348
1267.74	364
1269.99	364
1272.23	358
1274.48	348
1276.72	350
1278.96	346
1281.21	354
1283.45	344
1285.69	360
1287.93	350
1290.17	386
1292.41	364
1294.64	396
1296.88	398
1299.12	382
1301.36	420
1303.59	420
1305.82	424
1308.06	428
1310.29	428
1312.52	420
1314.76	458
1316.99	438
1319.22	480
1321.45	504
1323.68	532
1325.9	526
1328.13	552
1330.36	536
1332.58	552
1334.81	526
1337.04	504
1339.26	462
1341.48	440
1343.71	420
1345.93	410
1348.15	386
1350.37	378
1352.59	380
1354.81	376
1357.03	376
1359.24	370
1361.46	382
1363.68	382
1365.89	390
1368.11	392
1370.32	372
1372.54	380
1374.75	376
1376.96	356
1379.17	356
1381.38	364
1383.59	334
1385.8	296
1388.01	322
1390.22	274
1392.43	282
1394.63	280
1396.84	290
1399.05	280
1401.25	290
1403.45	288
1405.66	264
1407.86	278
1410.06	278
1412.26	262
1414.46	258
1416.66	272
1418.86	260
1421.06	274
1423.26	262
1425.46	272
1427.65	270
1429.85	282
1432.04	310
1434.24	326
1436.43	368
1438.62	414
1440.82	458
1443.01	492
1445.2	532
1447.39	554
1449.58	608
1451.77	606
1453.95	596
1456.14	538
1458.33	472
1460.52	398
1462.7	334
1464.89	300
1467.07	306
1469.25	298
1471.44	286
1473.62	288
1475.8	292
1477.98	284
1480.16	286
1482.34	296
1484.52	290
1486.7	286
1488.87	296
1491.05	290
1493.23	288
1495.4	304
1497.58	314
1499.75	276
1501.92	292
1504.1	270
1506.27	280
1508.44	256
1510.61	264
1512.78	274
1514.95	268
1517.12	276
1519.28	282
1521.45	262
1523.62	278
1525.78	290
1527.95	282
1530.11	278
1532.28	276
1534.44	280
1536.6	284
1538.76	274
1540.93	282
1543.09	286
1545.25	264
1547.41	290
1549.56	280
1551.72	296
1553.88	284
1556.03	294
1558.19	298
1560.35	298
1562.5	312
1564.65	326
1566.81	336
1568.96	342
1571.11	342
1573.26	388
1575.41	428
1577.56	472
1579.71	588
1581.86	800
1584.01	998
1586.15	894
1588.3	732
1590.45	604
1592.59	604
1594.74	696
1596.88	878
1599.02	1236
1601.17	1662
1603.31	1876
1605.45	1728
1607.59	1292
1609.73	946
1611.87	686
1614.01	534
1616.14	486
1618.28	438
1620.42	384
1622.55	370
1624.69	364
1626.82	350
1628.96	324
1631.09	338
1633.22	310
1635.36	332
1637.49	318
1639.62	320
1641.75	318
1643.88	338
1646	348
1648.13	356
1650.26	358
1652.39	338
1654.51	304
1656.64	316
1658.76	300
1660.89	296
1663.01	300
1665.13	290
1667.26	296
1669.38	286
1671.5	300
1673.62	298
1675.74	290
1677.86	300
1679.97	298
1682.09	308
1684.21	296
1686.33	298
1688.44	280
1690.56	310
1692.67	290
1694.78	296
1696.9	312
1699.01	294
1701.12	288
1703.23	294
1705.34	278
1707.45	276
1709.56	298
1711.67	292
1713.78	288
1715.88	298
1717.99	272
1720.1	290
1722.2	296
1724.31	280
1726.41	274
1728.51	284
1730.62	280
1732.72	282
1734.82	280
1736.92	286
1739.02	272
1741.12	278
1743.22	286
1745.32	282
1747.42	284
1749.51	286
1751.61	292
1753.7	260
1755.8	280
1757.89	294
1759.99	288
1762.08	278
1764.17	290
1766.26	270
1768.36	276
1770.45	278
1772.54	292
1774.62	286
1776.71	284
1778.8	294
1780.89	288
1782.98	290
1785.06	276
1787.15	288
1789.23	286
1791.32	294
1793.4	300
1795.48	292
1797.56	266
1799.65	290
1801.73	298
1803.81	298
1805.89	288
1807.97	306
1810.04	290
1812.12	304
1814.2	294
1816.28	304
1818.35	292
1820.43	316
1822.5	282
1824.58	298
1826.65	290
1828.72	312
1830.79	300
1832.86	296
1834.94	290
1837.01	284
1839.08	302
1841.15	290
1843.21	308
1845.28	292
1847.35	300
1849.41	296
1851.48	294
1853.55	290
1855.61	280
1857.67	308
1859.74	274
1861.8	290
1863.86	302
1865.92	300
1867.98	298
1870.05	274
1872.1	304
1874.16	306
1876.22	290
1878.28	300
1880.34	298
1882.39	290
1884.45	288
1886.5	300
1888.56	306
1890.61	310
1892.67	292
1894.72	302
1896.77	306
1898.82	286
1900.87	308
1902.92	308
1904.97	318
1907.02	296
1909.07	314
1911.12	312
1913.17	308
1915.21	318
1917.26	316
1919.3	300
1921.35	312
1923.39	302
1925.43	298
1927.48	344
1929.52	312
1931.56	304
1933.6	310
1935.64	320
1937.68	298
1939.72	310
1941.76	306
1943.8	316
1945.83	310
1947.87	316
1949.91	324
1951.94	314
1953.98	312
1956.01	314
1958.05	314
1960.08	308
1962.11	310
1964.14	326
1966.17	302
1968.2	310
1970.23	312
1972.26	316
1974.29	312
1976.32	294
1978.35	324
1980.37	304
1982.4	304
1984.43	310
1986.45	314
1988.48	314
1990.5	296
1992.52	302
1994.55	326
1996.57	294
1998.59	324
2000.61	316
2002.63	310
2004.65	322
2006.67	308
2008.69	326
2010.7	322
2012.72	310
2014.74	326
2016.75	314
2018.77	326
2020.78	324
2022.8	318
2024.81	322
2026.83	300
2028.84	330
2030.85	308
2032.86	338
2034.87	346
2036.88	322
2038.89	310
2040.9	318
2042.91	312
2044.91	312
2046.92	314
2048.93	322
2050.93	330
2052.94	314
2054.94	318
2056.95	326
2058.95	314
2060.95	346
2062.95	334
2064.96	320
2066.96	302
2068.96	328
2070.96	312
2072.96	342
2074.95	332
2076.95	320
2078.95	338
2080.95	318
2082.94	312
2084.94	326
2086.93	326
2088.93	322
2090.92	308
2092.91	306
2094.91	316
2096.9	312
2098.89	330
2100.88	332
2102.87	320
2104.86	334
2106.85	306
2108.84	306
2110.83	326
2112.81	328
2114.8	326
2116.78	334
2118.77	314
2120.75	318
2122.74	316
2124.72	342
2126.71	324
2128.69	322
2130.67	328
2132.65	330
2134.63	336
2136.61	330
2138.59	340
2140.57	320
2142.55	346
2144.53	340
2146.5	338
2148.48	338
2150.46	312
2152.43	336
2154.41	338
2156.38	346
2158.35	326
2160.33	330
2162.3	338
2164.27	328
2166.24	334
2168.21	336
2170.18	316
2172.15	322
2174.12	336
2176.09	328
2178.06	352
2180.03	338
2181.99	326
2183.96	332
2185.92	322
2187.89	326
2189.85	348
2191.82	324
2193.78	332
2195.74	338
2197.7	334
2199.67	360
2201.63	336
2203.59	334
2205.55	346
2207.51	328
2209.46	334
2211.42	352
2213.38	346
2215.34	356
2217.29	348
2219.25	330
2221.2	332
2223.16	320
2225.11	354
2227.06	340
2229.02	334
2230.97	350
2232.92	356
2234.87	350
2236.82	332
2238.77	328
2240.72	332
2242.67	336
2244.62	332
2246.57	340
2248.51	322
2250.46	328
2252.4	352
2254.35	346
2256.29	332
2258.24	338
2260.18	344
2262.13	312
2264.07	340
2266.01	348
2267.95	344
2269.89	332
2271.83	358
2273.77	336
2275.71	358
2277.65	334
2279.58	334
2281.52	330
2283.46	338
2285.4	338
2287.33	340
2289.27	330
2291.2	326
2293.13	334
2295.07	368
2297	356
2298.93	346
2300.86	336
2302.79	334
2304.72	346
2306.65	354
2308.58	370
2310.51	338
2312.44	344
2314.37	346
2316.29	360
2318.22	338
2320.15	334
2322.07	354
2324	350
2325.92	348
2327.84	336
2329.77	364
2331.69	342
2333.61	346
2335.53	342
2337.45	338
2339.37	348
2341.29	352
2343.21	354
2345.13	360
2347.05	362
2348.97	358
2350.88	342
2352.8	350
2354.71	346
2356.63	362
2358.54	360
2360.46	342
2362.37	356
2364.28	356
2366.2	352
2368.11	350
2370.02	338
2371.93	342
2373.84	354
2375.75	382
2377.66	338
2379.57	348
2381.47	360
2383.38	344
2385.29	366
2387.2	360
2389.1	346
2391.01	342
2392.91	354
2394.81	364
2396.72	336
2398.62	360
2400.52	350
2402.42	358
2404.33	344
2406.23	328
2408.13	348
2410.03	358
2411.92	360
2413.82	360
2415.72	360
2417.62	360
2419.51	358
2421.41	350
2423.31	354
2425.2	360
2427.1	356
2428.99	364
2430.88	382
2432.78	376
2434.67	376
2436.56	352
2438.45	354
2440.34	366
2442.23	358
2444.12	372
2446.01	362
2447.9	382
2449.79	356