File: Jesse_Dataset_v2/Pure Raman/Polystyrene/633nm/ps-ppo-7jan25-1,0000-map3_Y06_X02.txt
182.393	1008
184.993	1034
187.593	964
190.193	954
192.79	948
195.387	936
197.983	908
200.578	930
203.174	964
205.766	986
208.36	998
210.951	1028
213.542	1052
216.131	1082
218.721	1076
221.309	1092
223.897	1058
226.483	1036
229.069	1006
231.654	958
234.238	820
236.821	744
239.404	698
241.984	590
244.566	510
247.145	474
249.723	438
252.302	368
254.878	402
257.455	356
260.03	364
262.604	366
265.178	356
267.75	358
270.322	328
272.893	322
275.463	336
278.032	286
280.601	306
283.168	296
285.734	296
288.301	278
290.866	252
293.429	268
295.992	250
298.556	254
301.117	220
303.677	248
306.236	246
308.795	220
311.354	236
313.911	252
316.467	234
319.022	240
321.577	230
324.13	232
326.684	236
329.236	228
331.787	230
334.337	238
336.887	242
339.435	236
341.983	220
344.529	222
347.075	228
349.621	230
352.165	214
354.708	216
357.251	216
359.793	210
362.334	224
364.874	220
367.413	206
369.951	228
372.489	238
375.026	236
377.562	228
380.097	232
382.631	248
385.164	260
387.697	264
390.229	254
392.76	256
395.29	286
397.819	274
400.346	304
402.873	300
405.4	328
407.926	342
410.451	352
412.976	324
415.499	308
418.02	284
420.542	268
423.063	250
425.583	244
428.101	234
430.619	234
433.137	228
435.654	224
438.169	226
440.684	202
443.198	208
445.712	202
448.223	212
450.735	188
453.246	184
455.755	192
458.264	168
460.771	172
463.279	176
465.786	190
468.291	174
470.796	180
473.301	190
475.803	188
478.306	172
480.807	158
483.308	184
485.807	164
488.307	176
490.804	176
493.302	168
495.798	170
498.294	192
500.788	190
503.283	182
505.775	186
508.269	184
510.759	186
513.251	190
515.74	184
518.23	184
520.718	202
523.204	204
525.692	192
528.177	230
530.663	208
533.147	224
535.629	248
538.113	242
540.594	272
543.074	248
545.555	250
548.034	256
550.512	242
552.989	238
555.467	252
557.942	246
560.417	246
562.892	250
565.365	236
567.838	240
570.309	240
572.78	236
575.251	244
577.72	236
580.189	248
582.656	220
585.123	226
587.589	190
590.055	214
592.52	212
594.983	200
597.446	212
599.908	218
602.369	212
604.829	246
607.289	260
609.747	264
612.205	288
614.663	320
617.119	428
619.574	696
622.029	1088
624.483	978
626.936	536
629.389	332
631.84	278
634.291	238
636.741	228
639.19	204
641.639	202
644.086	172
646.533	178
648.979	174
651.424	164
653.869	170
656.313	160
658.754	164
661.196	158
663.638	164
666.078	166
668.518	162
670.957	164
673.394	170
675.831	166
678.268	162
680.703	162
683.137	156
685.571	172
688.005	158
690.437	172
692.868	170
695.299	174
697.729	198
700.159	182
702.586	210
705.014	210
707.441	210
709.866	214
712.292	216
714.716	206
717.14	222
719.563	226
721.984	248
724.406	294
726.825	302
729.246	286
731.665	270
734.082	266
736.5	286
738.916	312
741.332	378
743.746	380
746.161	358
748.574	390
750.987	400
753.398	406
755.81	454
758.219	450
760.629	478
763.037	470
765.445	482
767.852	438
770.258	434
772.664	436
775.068	416
777.472	402
779.876	444
782.278	460
784.679	500
787.08	570
789.48	574
791.879	642
794.278	666
796.675	678
799.072	670
801.467	626
803.864	522
806.258	454
808.651	410
811.044	382
813.437	362
815.828	334
818.218	314
820.608	284
822.997	278
825.385	254
827.773	270
830.16	258
832.546	266
834.931	272
837.315	312
839.699	320
842.081	380
844.463	362
846.844	364
849.226	330
851.606	296
853.985	302
856.363	294
858.741	292
861.117	296
863.493	278
865.868	292
868.243	284
870.616	292
872.989	298
875.36	284
877.731	302
880.102	282
882.472	282
884.841	272
887.209	282
889.577	284
891.944	282
894.31	294
896.674	278
899.039	300
901.403	306
903.766	340
906.128	352
908.49	346
910.849	336
913.209	318
915.569	294
917.927	274
920.284	270
922.641	252
924.997	250
927.353	252
929.707	258
932.061	242
934.414	250
936.765	250
939.117	250
941.469	256
943.818	258
946.167	274
948.515	268
950.863	256
953.211	246
955.556	260
957.902	280
960.246	280
962.59	316
964.933	316
967.276	316
969.617	310
971.958	336
974.298	342
976.638	376
978.976	400
981.314	488
983.651	532
985.988	618
988.323	766
990.659	1176
992.992	1700
995.325	1886
997.658	2324
999.99	4196
1002.32	6642
1004.65	6058
1006.98	3442
1009.31	1588
1011.64	852
1013.97	580
1016.29	496
1018.62	466
1020.94	528
1023.27	622
1025.59	824
1027.91	1180
1030.24	1608
1032.56	1962
1034.88	1896
1037.2	1408
1039.52	1008
1041.84	686
1044.15	588
1046.47	486
1048.79	434
1051.1	416
1053.42	406
1055.73	376
1058.04	380
1060.36	394
1062.67	406
1064.98	422
1067.29	430
1069.6	456
1071.91	448
1074.22	436
1076.52	430
1078.83	448
1081.14	410
1083.44	436
1085.75	418
1088.05	416
1090.35	450
1092.65	422
1094.95	434
1097.26	414
1099.56	406
1101.86	414
1104.15	402
1106.45	380
1108.75	354
1111.05	370
1113.34	350
1115.64	320
1117.93	302
1120.22	308
1122.52	286
1124.81	288
1127.1	262
1129.39	288
1131.68	268
1133.97	278
1136.26	296
1138.54	292
1140.83	308
1143.12	342
1145.4	380
1147.69	416
1149.97	494
1152.25	670
1154.54	878
1156.82	958
1159.1	870
1161.38	704
1163.66	578
1165.94	516
1168.22	494
1170.49	488
1172.77	530
1175.05	642
1177.32	762
1179.6	948
1181.87	1154
1184.14	1176
1186.42	1120
1188.69	1038
1190.96	1054
1193.23	1124
1195.5	1194
1197.77	1242
1200.03	1204
1202.3	1146
1204.57	1050
1206.83	958
1209.1	876
1211.36	706
1213.63	616
1215.89	556
1218.15	516
1220.41	488
1222.67	476
1224.93	472
1227.19	444
1229.45	436
1231.71	414
1233.97	410
1236.22	396
1238.48	386
1240.73	362
1242.99	366
1245.24	350
1247.5	352
1249.75	372
1252	330
1254.25	342
1256.5	334
1258.75	334
1261	350
1263.25	356
1265.49	344
1267.74	360
1269.99	350
1272.23	340
1274.48	338
1276.72	342
1278.96	340
1281.21	340
1283.45	334
1285.69	356
1287.93	344
1290.17	362
1292.41	392
1294.64	384
1296.88	394
1299.12	382
1301.36	402
1303.59	406
1305.82	424
1308.06	402
1310.29	406
1312.52	442
1314.76	432
1316.99	442
1319.22	462
1321.45	494
1323.68	510
1325.9	510
1328.13	538
1330.36	532
1332.58	536
1334.81	528
1337.04	490
1339.26	458
1341.48	424
1343.71	426
1345.93	400
1348.15	360
1350.37	382
1352.59	352
1354.81	358
1357.03	364
1359.24	370
1361.46	372
1363.68	390
1365.89	354
1368.11	390
1370.32	370
1372.54	354
1374.75	380
1376.96	378
1379.17	360
1381.38	364
1383.59	324
1385.8	302
1388.01	286
1390.22	276
1392.43	276
1394.63	288
1396.84	280
1399.05	266
1401.25	280
1403.45	266
1405.66	270
1407.86	258
1410.06	258
1412.26	258
1414.46	260
1416.66	260
1418.86	266
1421.06	260
1423.26	260
1425.46	268
1427.65	252
1429.85	302
1432.04	292
1434.24	308
1436.43	356
1438.62	400
1440.82	440
1443.01	498
1445.2	544
1447.39	594
1449.58	612
1451.77	610
1453.95	570
1456.14	552
1458.33	442
1460.52	390
1462.7	310
1464.89	314
1467.07	274
1469.25	252
1471.44	274
1473.62	274
1475.8	278
1477.98	264
1480.16	282
1482.34	264
1484.52	252
1486.7	272
1488.87	274
1491.05	284
1493.23	288
1495.4	302
1497.58	288
1499.75	266
1501.92	274
1504.1	240
1506.27	260
1508.44	260
1510.61	258
1512.78	250
1514.95	258
1517.12	270
1519.28	266
1521.45	270
1523.62	268
1525.78	270
1527.95	252
1530.11	288
1532.28	266
1534.44	274
1536.6	244
1538.76	268
1540.93	272
1543.09	266
1545.25	278
1547.41	280
1549.56	290
1551.72	278
1553.88	276
1556.03	290
1558.19	274
1560.35	300
1562.5	288
1564.65	312
1566.81	314
1568.96	324
1571.11	322
1573.26	356
1575.41	406
1577.56	460
1579.71	578
1581.86	792
1584.01	962
1586.15	914
1588.3	724
1590.45	568
1592.59	588
1594.74	698
1596.88	876
1599.02	1232
1601.17	1684
1603.31	1876
1605.45	1688
1607.59	1270
1609.73	904
1611.87	644
1614.01	552
1616.14	484
1618.28	430
1620.42	402
1622.55	376
1624.69	350
1626.82	344
1628.96	336
1631.09	300
1633.22	330
1635.36	314
1637.49	318
1639.62	332
1641.75	344
1643.88	330
1646	338
1648.13	342
1650.26	348
1652.39	330
1654.51	316
1656.64	300
1658.76	282
1660.89	294
1663.01	278
1665.13	274
1667.26	272
1669.38	284
1671.5	288
1673.62	276
1675.74	278
1677.86	292
1679.97	304
1682.09	282
1684.21	288
1686.33	292
1688.44	306
1690.56	274
1692.67	294
1694.78	290
1696.9	286
1699.01	284
1701.12	274
1703.23	296
1705.34	278
1707.45	276
1709.56	282
1711.67	274
1713.78	292
1715.88	272
1717.99	266
1720.1	282
1722.2	266
1724.31	268
1726.41	262
1728.51	276
1730.62	276
1732.72	264
1734.82	274
1736.92	272
1739.02	266
1741.12	276
1743.22	266
1745.32	270
1747.42	296
1749.51	272
1751.61	286
1753.7	272
1755.8	280
1757.89	300
1759.99	280
1762.08	292
1764.17	286
1766.26	270
1768.36	260
1770.45	282
1772.54	268
1774.62	290
1776.71	288
1778.8	276
1780.89	284
1782.98	300
1785.06	272
1787.15	292
1789.23	278
1791.32	286
1793.4	266
1795.48	282
1797.56	282
1799.65	304
1801.73	292
1803.81	316
1805.89	298
1807.97	274
1810.04	278
1812.12	282
1814.2	302
1816.28	286
1818.35	290
1820.43	298
1822.5	292
1824.58	298
1826.65	286
1828.72	294
1830.79	272
1832.86	280
1834.94	290
1837.01	296
1839.08	286
1841.15	288
1843.21	288
1845.28	292
1847.35	286
1849.41	268
1851.48	304
1853.55	286
1855.61	286
1857.67	296
1859.74	272
1861.8	268
1863.86	278
1865.92	290
1867.98	280
1870.05	274
1872.1	290
1874.16	284
1876.22	284
1878.28	294
1880.34	280
1882.39	300
1884.45	304
1886.5	292
1888.56	298
1890.61	286
1892.67	274
1894.72	292
1896.77	286
1898.82	284
1900.87	286
1902.92	304
1904.97	304
1907.02	294
1909.07	294
1911.12	288
1913.17	298
1915.21	302
1917.26	312
1919.3	302
1921.35	298
1923.39	316
1925.43	300
1927.48	306
1929.52	302
1931.56	296
1933.6	308
1935.64	296
1937.68	292
1939.72	298
1941.76	296
1943.8	302
1945.83	272
1947.87	298
1949.91	308
1951.94	302
1953.98	292
1956.01	294
1958.05	300
1960.08	300
1962.11	302
1964.14	286
1966.17	308
1968.2	304
1970.23	288
1972.26	302
1974.29	300
1976.32	296
1978.35	300
1980.37	294
1982.4	318
1984.43	314
1986.45	300
1988.48	292
1990.5	282
1992.52	304
1994.55	302
1996.57	312
1998.59	316
2000.61	314
2002.63	316
2004.65	298
2006.67	306
2008.69	310
2010.7	292
2012.72	322
2014.74	310
2016.75	312
2018.77	312
2020.78	310
2022.8	314
2024.81	312
2026.83	310
2028.84	302
2030.85	296
2032.86	300
2034.87	304
2036.88	306
2038.89	314
2040.9	304
2042.91	308
2044.91	318
2046.92	306
2048.93	300
2050.93	302
2052.94	318
2054.94	292
2056.95	296
2058.95	328
2060.95	296
2062.95	314
2064.96	310
2066.96	334
2068.96	318
2070.96	294
2072.96	318
2074.95	314
2076.95	304
2078.95	320
2080.95	330
2082.94	318
2084.94	314
2086.93	326
2088.93	312
2090.92	328
2092.91	292
2094.91	298
2096.9	296
2098.89	324
2100.88	312
2102.87	300
2104.86	336
2106.85	318
2108.84	306
2110.83	312
2112.81	322
2114.8	336
2116.78	330
2118.77	322
2120.75	320
2122.74	322
2124.72	302
2126.71	316
2128.69	336
2130.67	310
2132.65	314
2134.63	312
2136.61	338
2138.59	318
2140.57	320
2142.55	312
2144.53	310
2146.5	328
2148.48	314
2150.46	320
2152.43	318
2154.41	334
2156.38	314
2158.35	314
2160.33	324
2162.3	312
2164.27	316
2166.24	310
2168.21	326
2170.18	320
2172.15	318
2174.12	344
2176.09	318
2178.06	314
2180.03	328
2181.99	330
2183.96	316
2185.92	328
2187.89	332
2189.85	342
2191.82	316
2193.78	322
2195.74	326
2197.7	306
2199.67	330
2201.63	334
2203.59	332
2205.55	326
2207.51	322
2209.46	320
2211.42	312
2213.38	324
2215.34	314
2217.29	332
2219.25	328
2221.2	328
2223.16	330
2225.11	342
2227.06	312
2229.02	316
2230.97	334
2232.92	338
2234.87	342
2236.82	340
2238.77	320
2240.72	332
2242.67	324
2244.62	346
2246.57	294
2248.51	328
2250.46	348
2252.4	320
2254.35	328
2256.29	316
2258.24	346
2260.18	320
2262.13	342
2264.07	318
2266.01	334
2267.95	336
2269.89	322
2271.83	338
2273.77	342
2275.71	338
2277.65	338
2279.58	332
2281.52	340
2283.46	322
2285.4	332
2287.33	340
2289.27	338
2291.2	324
2293.13	322
2295.07	332
2297	336
2298.93	342
2300.86	332
2302.79	332
2304.72	336
2306.65	344
2308.58	332
2310.51	338
2312.44	334
2314.37	340
2316.29	328
2318.22	334
2320.15	336
2322.07	356
2324	330
2325.92	340
2327.84	344
2329.77	326
2331.69	350
2333.61	332
2335.53	324
2337.45	334
2339.37	336
2341.29	326
2343.21	340
2345.13	348
2347.05	334
2348.97	340
2350.88	318
2352.8	338
2354.71	330
2356.63	336
2358.54	332
2360.46	358
2362.37	346
2364.28	344
2366.2	330
2368.11	326
2370.02	338
2371.93	350
2373.84	356
2375.75	334
2377.66	336
2379.57	328
2381.47	354
2383.38	338
2385.29	334
2387.2	332
2389.1	350
2391.01	342
2392.91	334
2394.81	346
2396.72	328
2398.62	358
2400.52	332
2402.42	358
2404.33	328
2406.23	344
2408.13	348
2410.03	332
2411.92	348
2413.82	340
2415.72	340
2417.62	328
2419.51	358
2421.41	348
2423.31	344
2425.2	342
2427.1	342
2428.99	342
2430.88	332
2432.78	342
2434.67	352
2436.56	340
2438.45	372
2440.34	384
2442.23	362
2444.12	354
2446.01	360
2447.9	344
2449.79	370