File: Jesse_Dataset_v2/Pure Raman/Polystyrene/633nm/ps-ppo-7jan25-1,0000-map3_Y05_X04.txt
182.393	1010
184.993	1014
187.593	1004
190.193	966
192.79	946
195.387	944
197.983	930
200.578	924
203.174	940
205.766	926
208.36	980
210.951	988
213.542	1052
216.131	1068
218.721	1080
221.309	1064
223.897	1058
226.483	1014
229.069	986
231.654	920
234.238	842
236.821	708
239.404	680
241.984	598
244.566	542
247.145	486
249.723	442
252.302	390
254.878	388
257.455	360
260.03	344
262.604	350
265.178	334
267.75	326
270.322	348
272.893	320
275.463	328
278.032	304
280.601	304
283.168	292
285.734	276
288.301	286
290.866	254
293.429	246
295.992	254
298.556	222
301.117	240
303.677	236
306.236	228
308.795	236
311.354	224
313.911	232
316.467	240
319.022	250
321.577	228
324.13	232
326.684	238
329.236	238
331.787	256
334.337	240
336.887	230
339.435	230
341.983	228
344.529	230
347.075	210
349.621	224
352.165	234
354.708	198
357.251	216
359.793	202
362.334	220
364.874	218
367.413	218
369.951	222
372.489	226
375.026	242
377.562	230
380.097	242
382.631	262
385.164	264
387.697	264
390.229	264
392.76	270
395.29	270
397.819	302
400.346	308
402.873	328
405.4	352
407.926	334
410.451	330
412.976	322
415.499	308
418.02	266
420.542	268
423.063	238
425.583	228
428.101	246
430.619	224
433.137	236
435.654	220
438.169	208
440.684	224
443.198	224
445.712	212
448.223	210
450.735	190
453.246	194
455.755	200
458.264	186
460.771	192
463.279	178
465.786	180
468.291	176
470.796	194
473.301	190
475.803	170
478.306	178
480.807	178
483.308	178
485.807	178
488.307	176
490.804	170
493.302	184
495.798	174
498.294	182
500.788	188
503.283	196
505.775	194
508.269	194
510.759	186
513.251	194
515.74	200
518.23	190
520.718	204
523.204	190
525.692	194
528.177	208
530.663	214
533.147	216
535.629	216
538.113	252
540.594	260
543.074	266
545.555	252
548.034	254
550.512	266
552.989	240
555.467	246
557.942	248
560.417	246
562.892	242
565.365	254
567.838	252
570.309	252
572.78	242
575.251	256
577.72	236
580.189	220
582.656	212
585.123	216
587.589	212
590.055	198
592.52	210
594.983	194
597.446	224
599.908	220
602.369	214
604.829	224
607.289	244
609.747	284
612.205	270
614.663	318
617.119	416
619.574	688
622.029	1104
624.483	984
626.936	544
629.389	326
631.84	272
634.291	222
636.741	220
639.19	210
641.639	196
644.086	168
646.533	182
648.979	186
651.424	168
653.869	182
656.313	160
658.754	160
661.196	160
663.638	168
666.078	154
668.518	168
670.957	154
673.394	174
675.831	168
678.268	168
680.703	164
683.137	170
685.571	158
688.005	164
690.437	162
692.868	178
695.299	182
697.729	180
700.159	198
702.586	208
705.014	218
707.441	206
709.866	196
712.292	182
714.716	220
717.14	220
719.563	222
721.984	238
724.406	284
726.825	312
729.246	300
731.665	272
734.082	284
736.5	278
738.916	326
741.332	352
743.746	358
746.161	378
748.574	368
750.987	370
753.398	392
755.81	446
758.219	476
760.629	490
763.037	466
765.445	464
767.852	440
770.258	426
772.664	444
775.068	400
777.472	412
779.876	430
782.278	446
784.679	488
787.08	536
789.48	584
791.879	650
794.278	684
796.675	698
799.072	688
801.467	618
803.864	524
806.258	482
808.651	432
811.044	392
813.437	364
815.828	334
818.218	314
820.608	288
822.997	276
825.385	274
827.773	252
830.16	258
832.546	278
834.931	280
837.315	300
839.699	328
842.081	368
844.463	370
846.844	354
849.226	330
851.606	318
853.985	294
856.363	288
858.741	284
861.117	294
863.493	288
865.868	274
868.243	300
870.616	278
872.989	292
875.36	286
877.731	284
880.102	288
882.472	268
884.841	280
887.209	270
889.577	270
891.944	266
894.31	278
896.674	288
899.039	300
901.403	314
903.766	336
906.128	348
908.49	352
910.849	338
913.209	308
915.569	296
917.927	286
920.284	264
922.641	278
924.997	240
927.353	240
929.707	250
932.061	246
934.414	244
936.765	240
939.117	230
941.469	232
943.818	260
946.167	274
948.515	238
950.863	268
953.211	258
955.556	248
957.902	274
960.246	266
962.59	274
964.933	310
967.276	338
969.617	336
971.958	324
974.298	334
976.638	358
978.976	402
981.314	456
983.651	526
985.988	600
988.323	756
990.659	1164
992.992	1688
995.325	1868
997.658	2330
999.99	4128
1002.32	6638
1004.65	6138
1006.98	3380
1009.31	1554
1011.64	818
1013.97	596
1016.29	462
1018.62	470
1020.94	494
1023.27	626
1025.59	836
1027.91	1174
1030.24	1628
1032.56	1956
1034.88	1830
1037.2	1442
1039.52	988
1041.84	694
1044.15	548
1046.47	468
1048.79	438
1051.1	420
1053.42	410
1055.73	394
1058.04	388
1060.36	386
1062.67	406
1064.98	432
1067.29	430
1069.6	432
1071.91	432
1074.22	462
1076.52	416
1078.83	420
1081.14	440
1083.44	420
1085.75	402
1088.05	422
1090.35	418
1092.65	430
1094.95	428
1097.26	416
1099.56	412
1101.86	428
1104.15	396
1106.45	374
1108.75	354
1111.05	340
1113.34	346
1115.64	322
1117.93	322
1120.22	310
1122.52	288
1124.81	268
1127.1	260
1129.39	276
1131.68	260
1133.97	278
1136.26	292
1138.54	296
1140.83	318
1143.12	326
1145.4	364
1147.69	398
1149.97	492
1152.25	656
1154.54	862
1156.82	984
1159.1	888
1161.38	692
1163.66	562
1165.94	530
1168.22	474
1170.49	496
1172.77	514
1175.05	616
1177.32	746
1179.6	964
1181.87	1162
1184.14	1194
1186.42	1124
1188.69	1054
1190.96	1022
1193.23	1132
1195.5	1212
1197.77	1214
1200.03	1220
1202.3	1144
1204.57	1042
1206.83	966
1209.1	848
1211.36	726
1213.63	636
1215.89	542
1218.15	494
1220.41	472
1222.67	446
1224.93	460
1227.19	432
1229.45	436
1231.71	410
1233.97	394
1236.22	370
1238.48	374
1240.73	362
1242.99	378
1245.24	360
1247.5	374
1249.75	348
1252	362
1254.25	336
1256.5	358
1258.75	344
1261	352
1263.25	340
1265.49	354
1267.74	342
1269.99	348
1272.23	344
1274.48	342
1276.72	354
1278.96	344
1281.21	350
1283.45	344
1285.69	350
1287.93	358
1290.17	346
1292.41	392
1294.64	370
1296.88	362
1299.12	388
1301.36	404
1303.59	400
1305.82	406
1308.06	420
1310.29	422
1312.52	410
1314.76	440
1316.99	434
1319.22	466
1321.45	510
1323.68	508
1325.9	498
1328.13	502
1330.36	514
1332.58	534
1334.81	530
1337.04	488
1339.26	458
1341.48	434
1343.71	424
1345.93	382
1348.15	380
1350.37	376
1352.59	374
1354.81	338
1357.03	360
1359.24	352
1361.46	386
1363.68	376
1365.89	386
1368.11	374
1370.32	370
1372.54	374
1374.75	366
1376.96	366
1379.17	364
1381.38	328
1383.59	336
1385.8	302
1388.01	278
1390.22	280
1392.43	260
1394.63	258
1396.84	240
1399.05	276
1401.25	266
1403.45	276
1405.66	256
1407.86	264
1410.06	258
1412.26	272
1414.46	264
1416.66	276
1418.86	262
1421.06	260
1423.26	272
1425.46	254
1427.65	264
1429.85	278
1432.04	286
1434.24	318
1436.43	358
1438.62	392
1440.82	424
1443.01	484
1445.2	528
1447.39	574
1449.58	606
1451.77	592
1453.95	592
1456.14	566
1458.33	462
1460.52	346
1462.7	336
1464.89	314
1467.07	286
1469.25	280
1471.44	294
1473.62	272
1475.8	278
1477.98	258
1480.16	268
1482.34	254
1484.52	260
1486.7	254
1488.87	270
1491.05	272
1493.23	284
1495.4	286
1497.58	290
1499.75	270
1501.92	270
1504.1	240
1506.27	258
1508.44	268
1510.61	246
1512.78	264
1514.95	264
1517.12	280
1519.28	248
1521.45	262
1523.62	258
1525.78	260
1527.95	270
1530.11	284
1532.28	248
1534.44	286
1536.6	264
1538.76	252
1540.93	270
1543.09	278
1545.25	292
1547.41	272
1549.56	280
1551.72	284
1553.88	268
1556.03	268
1558.19	290
1560.35	300
1562.5	292
1564.65	306
1566.81	316
1568.96	324
1571.11	340
1573.26	370
1575.41	410
1577.56	470
1579.71	566
1581.86	806
1584.01	978
1586.15	844
1588.3	692
1590.45	610
1592.59	622
1594.74	682
1596.88	876
1599.02	1210
1601.17	1638
1603.31	1874
1605.45	1698
1607.59	1330
1609.73	934
1611.87	672
1614.01	542
1616.14	464
1618.28	422
1620.42	388
1622.55	364
1624.69	338
1626.82	346
1628.96	332
1631.09	316
1633.22	326
1635.36	300
1637.49	296
1639.62	306
1641.75	326
1643.88	304
1646	336
1648.13	348
1650.26	344
1652.39	320
1654.51	310
1656.64	298
1658.76	280
1660.89	304
1663.01	280
1665.13	274
1667.26	274
1669.38	294
1671.5	288
1673.62	298
1675.74	292
1677.86	278
1679.97	300
1682.09	284
1684.21	282
1686.33	278
1688.44	296
1690.56	270
1692.67	294
1694.78	280
1696.9	272
1699.01	256
1701.12	286
1703.23	282
1705.34	276
1707.45	270
1709.56	262
1711.67	270
1713.78	280
1715.88	276
1717.99	280
1720.1	282
1722.2	266
1724.31	284
1726.41	270
1728.51	268
1730.62	266
1732.72	290
1734.82	286
1736.92	266
1739.02	284
1741.12	258
1743.22	282
1745.32	294
1747.42	290
1749.51	276
1751.61	280
1753.7	268
1755.8	278
1757.89	266
1759.99	272
1762.08	284
1764.17	272
1766.26	272
1768.36	276
1770.45	284
1772.54	266
1774.62	272
1776.71	284
1778.8	274
1780.89	288
1782.98	280
1785.06	274
1787.15	272
1789.23	268
1791.32	278
1793.4	290
1795.48	268
1797.56	280
1799.65	262
1801.73	288
1803.81	288
1805.89	276
1807.97	260
1810.04	286
1812.12	278
1814.2	288
1816.28	280
1818.35	280
1820.43	298
1822.5	280
1824.58	288
1826.65	290
1828.72	278
1830.79	280
1832.86	286
1834.94	284
1837.01	280
1839.08	280
1841.15	278
1843.21	276
1845.28	298
1847.35	280
1849.41	294
1851.48	278
1853.55	288
1855.61	292
1857.67	284
1859.74	282
1861.8	306
1863.86	276
1865.92	264
1867.98	296
1870.05	288
1872.1	302
1874.16	286
1876.22	284
1878.28	288
1880.34	280
1882.39	280
1884.45	298
1886.5	262
1888.56	276
1890.61	294
1892.67	282
1894.72	300
1896.77	286
1898.82	280
1900.87	298
1902.92	310
1904.97	292
1907.02	302
1909.07	292
1911.12	312
1913.17	292
1915.21	288
1917.26	300
1919.3	290
1921.35	306
1923.39	286
1925.43	300
1927.48	312
1929.52	284
1931.56	292
1933.6	304
1935.64	324
1937.68	282
1939.72	314
1941.76	304
1943.8	294
1945.83	294
1947.87	302
1949.91	294
1951.94	286
1953.98	304
1956.01	294
1958.05	292
1960.08	290
1962.11	306
1964.14	318
1966.17	294
1968.2	302
1970.23	282
1972.26	290
1974.29	296
1976.32	282
1978.35	298
1980.37	308
1982.4	310
1984.43	292
1986.45	300
1988.48	286
1990.5	302
1992.52	308
1994.55	294
1996.57	296
1998.59	288
2000.61	288
2002.63	304
2004.65	306
2006.67	308
2008.69	300
2010.7	286
2012.72	304
2014.74	290
2016.75	294
2018.77	302
2020.78	284
2022.8	308
2024.81	300
2026.83	306
2028.84	300
2030.85	306
2032.86	312
2034.87	296
2036.88	314
2038.89	310
2040.9	310
2042.91	314
2044.91	302
2046.92	310
2048.93	306
2050.93	312
2052.94	308
2054.94	310
2056.95	318
2058.95	308
2060.95	328
2062.95	314
2064.96	304
2066.96	292
2068.96	300
2070.96	314
2072.96	306
2074.95	316
2076.95	308
2078.95	318
2080.95	322
2082.94	310
2084.94	316
2086.93	324
2088.93	316
2090.92	322
2092.91	304
2094.91	324
2096.9	312
2098.89	324
2100.88	312
2102.87	324
2104.86	300
2106.85	336
2108.84	298
2110.83	296
2112.81	324
2114.8	328
2116.78	320
2118.77	312
2120.75	306
2122.74	320
2124.72	316
2126.71	338
2128.69	320
2130.67	312
2132.65	326
2134.63	316
2136.61	308
2138.59	312
2140.57	304
2142.55	328
2144.53	310
2146.5	322
2148.48	318
2150.46	324
2152.43	340
2154.41	312
2156.38	318
2158.35	314
2160.33	328
2162.3	318
2164.27	316
2166.24	308
2168.21	322
2170.18	316
2172.15	322
2174.12	324
2176.09	332
2178.06	318
2180.03	308
2181.99	326
2183.96	330
2185.92	330
2187.89	322
2189.85	314
2191.82	312
2193.78	310
2195.74	322
2197.7	336
2199.67	324
2201.63	332
2203.59	326
2205.55	316
2207.51	320
2209.46	320
2211.42	342
2213.38	320
2215.34	336
2217.29	332
2219.25	322
2221.2	330
2223.16	322
2225.11	318
2227.06	316
2229.02	342
2230.97	340
2232.92	328
2234.87	332
2236.82	334
2238.77	294
2240.72	328
2242.67	332
2244.62	322
2246.57	316
2248.51	324
2250.46	338
2252.4	346
2254.35	308
2256.29	336
2258.24	314
2260.18	342
2262.13	328
2264.07	324
2266.01	320
2267.95	318
2269.89	322
2271.83	328
2273.77	330
2275.71	336
2277.65	316
2279.58	344
2281.52	340
2283.46	328
2285.4	332
2287.33	326
2289.27	314
2291.2	336
2293.13	338
2295.07	326
2297	322
2298.93	342
2300.86	346
2302.79	328
2304.72	346
2306.65	342
2308.58	354
2310.51	334
2312.44	340
2314.37	352
2316.29	332
2318.22	332
2320.15	334
2322.07	316
2324	340
2325.92	350
2327.84	348
2329.77	346
2331.69	346
2333.61	350
2335.53	346
2337.45	340
2339.37	336
2341.29	336
2343.21	348
2345.13	346
2347.05	338
2348.97	348
2350.88	348
2352.8	342
2354.71	332
2356.63	356
2358.54	344
2360.46	350
2362.37	348
2364.28	348
2366.2	340
2368.11	356
2370.02	346
2371.93	330
2373.84	352
2375.75	330
2377.66	346
2379.57	348
2381.47	340
2383.38	364
2385.29	342
2387.2	336
2389.1	332
2391.01	322
2392.91	334
2394.81	352
2396.72	338
2398.62	346
2400.52	346
2402.42	354
2404.33	334
2406.23	330
2408.13	342
2410.03	344
2411.92	336
2413.82	354
2415.72	348
2417.62	348
2419.51	354
2421.41	350
2423.31	336
2425.2	348
2427.1	354
2428.99	362
2430.88	368
2432.78	370
2434.67	370
2436.56	332
2438.45	356
2440.34	350
2442.23	384
2444.12	360
2446.01	372
2447.9	354
2449.79	354