File: Jesse_Dataset_v2/Pure Raman/Polystyrene/633nm/ps-ppo-7jan25-1,0000-map3_Y01_X10.txt
182.393	1034
184.993	980
187.593	980
190.193	918
192.79	932
195.387	916
197.983	940
200.578	946
203.174	920
205.766	964
208.36	990
210.951	984
213.542	1050
216.131	1042
218.721	1078
221.309	1048
223.897	1106
226.483	1050
229.069	932
231.654	928
234.238	822
236.821	762
239.404	692
241.984	614
244.566	538
247.145	458
249.723	412
252.302	416
254.878	396
257.455	360
260.03	360
262.604	332
265.178	338
267.75	342
270.322	334
272.893	316
275.463	320
278.032	326
280.601	310
283.168	290
285.734	284
288.301	296
290.866	278
293.429	264
295.992	252
298.556	232
301.117	232
303.677	234
306.236	226
308.795	230
311.354	236
313.911	238
316.467	254
319.022	242
321.577	242
324.13	240
326.684	236
329.236	236
331.787	256
334.337	236
336.887	226
339.435	228
341.983	244
344.529	238
347.075	226
349.621	218
352.165	238
354.708	216
357.251	214
359.793	214
362.334	232
364.874	220
367.413	226
369.951	226
372.489	240
375.026	234
377.562	260
380.097	244
382.631	248
385.164	264
387.697	250
390.229	268
392.76	272
395.29	284
397.819	290
400.346	300
402.873	318
405.4	338
407.926	356
410.451	334
412.976	324
415.499	318
418.02	298
420.542	288
423.063	252
425.583	270
428.101	246
430.619	250
433.137	246
435.654	236
438.169	232
440.684	222
443.198	216
445.712	220
448.223	212
450.735	218
453.246	194
455.755	194
458.264	192
460.771	188
463.279	206
465.786	190
468.291	178
470.796	178
473.301	186
475.803	180
478.306	194
480.807	170
483.308	182
485.807	186
488.307	168
490.804	178
493.302	192
495.798	176
498.294	184
500.788	202
503.283	198
505.775	206
508.269	198
510.759	178
513.251	188
515.74	192
518.23	184
520.718	194
523.204	198
525.692	218
528.177	224
530.663	216
533.147	240
535.629	230
538.113	260
540.594	250
543.074	262
545.555	266
548.034	268
550.512	248
552.989	262
555.467	248
557.942	250
560.417	252
562.892	260
565.365	246
567.838	252
570.309	252
572.78	250
575.251	262
577.72	256
580.189	246
582.656	244
585.123	208
587.589	226
590.055	208
592.52	208
594.983	212
597.446	216
599.908	218
602.369	244
604.829	222
607.289	268
609.747	274
612.205	308
614.663	322
617.119	416
619.574	724
622.029	1106
624.483	980
626.936	552
629.389	338
631.84	276
634.291	258
636.741	224
639.19	218
641.639	176
644.086	192
646.533	186
648.979	186
651.424	184
653.869	184
656.313	162
658.754	176
661.196	174
663.638	184
666.078	190
668.518	184
670.957	182
673.394	180
675.831	176
678.268	170
680.703	176
683.137	182
685.571	186
688.005	170
690.437	186
692.868	170
695.299	192
697.729	188
700.159	212
702.586	206
705.014	234
707.441	220
709.866	212
712.292	220
714.716	234
717.14	222
719.563	214
721.984	256
724.406	294
726.825	314
729.246	298
731.665	276
734.082	262
736.5	300
738.916	344
741.332	372
743.746	390
746.161	406
748.574	398
750.987	410
753.398	406
755.81	432
758.219	482
760.629	486
763.037	486
765.445	498
767.852	460
770.258	444
772.664	436
775.068	444
777.472	416
779.876	424
782.278	470
784.679	524
787.08	564
789.48	594
791.879	624
794.278	662
796.675	708
799.072	700
801.467	626
803.864	566
806.258	478
808.651	426
811.044	390
813.437	388
815.828	332
818.218	330
820.608	276
822.997	288
825.385	272
827.773	274
830.16	262
832.546	270
834.931	286
837.315	326
839.699	356
842.081	374
844.463	376
846.844	378
849.226	332
851.606	332
853.985	312
856.363	298
858.741	308
861.117	302
863.493	286
865.868	306
868.243	308
870.616	310
872.989	328
875.36	310
877.731	304
880.102	294
882.472	296
884.841	280
887.209	286
889.577	286
891.944	274
894.31	286
896.674	284
899.039	312
901.403	344
903.766	346
906.128	366
908.49	360
910.849	344
913.209	322
915.569	298
917.927	292
920.284	276
922.641	258
924.997	250
927.353	270
929.707	244
932.061	262
934.414	260
936.765	260
939.117	268
941.469	282
943.818	266
946.167	260
948.515	282
950.863	254
953.211	274
955.556	258
957.902	286
960.246	280
962.59	322
964.933	318
967.276	334
969.617	322
971.958	330
974.298	324
976.638	374
978.976	396
981.314	468
983.651	514
985.988	610
988.323	782
990.659	1162
992.992	1680
995.325	1880
997.658	2352
999.99	4214
1002.32	6448
1004.65	6144
1006.98	3374
1009.31	1604
1011.64	810
1013.97	562
1016.29	504
1018.62	464
1020.94	510
1023.27	630
1025.59	842
1027.91	1186
1030.24	1658
1032.56	1960
1034.88	1878
1037.2	1444
1039.52	964
1041.84	710
1044.15	554
1046.47	490
1048.79	452
1051.1	418
1053.42	402
1055.73	402
1058.04	380
1060.36	406
1062.67	430
1064.98	442
1067.29	446
1069.6	416
1071.91	462
1074.22	446
1076.52	446
1078.83	448
1081.14	430
1083.44	430
1085.75	424
1088.05	432
1090.35	436
1092.65	414
1094.95	430
1097.26	432
1099.56	446
1101.86	416
1104.15	408
1106.45	392
1108.75	376
1111.05	372
1113.34	320
1115.64	342
1117.93	326
1120.22	314
1122.52	284
1124.81	290
1127.1	286
1129.39	286
1131.68	286
1133.97	266
1136.26	286
1138.54	300
1140.83	308
1143.12	338
1145.4	364
1147.69	420
1149.97	490
1152.25	662
1154.54	882
1156.82	960
1159.1	890
1161.38	716
1163.66	590
1165.94	530
1168.22	492
1170.49	530
1172.77	546
1175.05	640
1177.32	788
1179.6	968
1181.87	1144
1184.14	1226
1186.42	1108
1188.69	1024
1190.96	1064
1193.23	1122
1195.5	1202
1197.77	1236
1200.03	1226
1202.3	1140
1204.57	1100
1206.83	986
1209.1	822
1211.36	746
1213.63	648
1215.89	564
1218.15	516
1220.41	486
1222.67	476
1224.93	458
1227.19	432
1229.45	470
1231.71	422
1233.97	402
1236.22	400
1238.48	386
1240.73	372
1242.99	380
1245.24	374
1247.5	352
1249.75	356
1252	336
1254.25	384
1256.5	354
1258.75	368
1261	340
1263.25	344
1265.49	368
1267.74	358
1269.99	372
1272.23	358
1274.48	358
1276.72	338
1278.96	344
1281.21	370
1283.45	362
1285.69	380
1287.93	360
1290.17	356
1292.41	388
1294.64	398
1296.88	392
1299.12	418
1301.36	420
1303.59	444
1305.82	422
1308.06	440
1310.29	422
1312.52	444
1314.76	450
1316.99	466
1319.22	498
1321.45	516
1323.68	524
1325.9	530
1328.13	534
1330.36	552
1332.58	518
1334.81	516
1337.04	504
1339.26	458
1341.48	438
1343.71	440
1345.93	424
1348.15	380
1350.37	372
1352.59	390
1354.81	386
1357.03	394
1359.24	382
1361.46	408
1363.68	384
1365.89	382
1368.11	396
1370.32	396
1372.54	392
1374.75	390
1376.96	372
1379.17	360
1381.38	362
1383.59	352
1385.8	328
1388.01	294
1390.22	294
1392.43	284
1394.63	274
1396.84	282
1399.05	282
1401.25	268
1403.45	288
1405.66	288
1407.86	300
1410.06	274
1412.26	268
1414.46	286
1416.66	278
1418.86	290
1421.06	266
1423.26	282
1425.46	286
1427.65	288
1429.85	298
1432.04	296
1434.24	324
1436.43	374
1438.62	414
1440.82	470
1443.01	496
1445.2	548
1447.39	584
1449.58	620
1451.77	630
1453.95	580
1456.14	556
1458.33	472
1460.52	388
1462.7	364
1464.89	328
1467.07	322
1469.25	288
1471.44	294
1473.62	276
1475.8	294
1477.98	290
1480.16	302
1482.34	292
1484.52	300
1486.7	302
1488.87	314
1491.05	300
1493.23	304
1495.4	322
1497.58	310
1499.75	292
1501.92	282
1504.1	288
1506.27	290
1508.44	276
1510.61	300
1512.78	286
1514.95	264
1517.12	284
1519.28	312
1521.45	278
1523.62	284
1525.78	294
1527.95	298
1530.11	278
1532.28	290
1534.44	290
1536.6	292
1538.76	296
1540.93	282
1543.09	284
1545.25	318
1547.41	306
1549.56	304
1551.72	310
1553.88	292
1556.03	310
1558.19	332
1560.35	314
1562.5	312
1564.65	326
1566.81	326
1568.96	370
1571.11	350
1573.26	390
1575.41	418
1577.56	502
1579.71	626
1581.86	764
1584.01	1012
1586.15	926
1588.3	718
1590.45	602
1592.59	600
1594.74	702
1596.88	886
1599.02	1228
1601.17	1686
1603.31	1910
1605.45	1746
1607.59	1298
1609.73	946
1611.87	702
1614.01	542
1616.14	490
1618.28	444
1620.42	402
1622.55	394
1624.69	382
1626.82	366
1628.96	356
1631.09	346
1633.22	330
1635.36	330
1637.49	332
1639.62	376
1641.75	340
1643.88	332
1646	356
1648.13	364
1650.26	352
1652.39	352
1654.51	326
1656.64	322
1658.76	316
1660.89	308
1663.01	304
1665.13	312
1667.26	288
1669.38	324
1671.5	304
1673.62	314
1675.74	308
1677.86	322
1679.97	304
1682.09	310
1684.21	306
1686.33	312
1688.44	334
1690.56	350
1692.67	320
1694.78	306
1696.9	284
1699.01	308
1701.12	274
1703.23	320
1705.34	306
1707.45	288
1709.56	310
1711.67	304
1713.78	280
1715.88	308
1717.99	298
1720.1	292
1722.2	296
1724.31	306
1726.41	282
1728.51	292
1730.62	304
1732.72	296
1734.82	292
1736.92	306
1739.02	296
1741.12	304
1743.22	296
1745.32	290
1747.42	310
1749.51	292
1751.61	286
1753.7	284
1755.8	302
1757.89	304
1759.99	284
1762.08	298
1764.17	286
1766.26	304
1768.36	300
1770.45	282
1772.54	304
1774.62	280
1776.71	288
1778.8	308
1780.89	296
1782.98	302
1785.06	316
1787.15	304
1789.23	300
1791.32	302
1793.4	302
1795.48	322
1797.56	306
1799.65	298
1801.73	306
1803.81	302
1805.89	294
1807.97	326
1810.04	294
1812.12	298
1814.2	318
1816.28	300
1818.35	330
1820.43	314
1822.5	312
1824.58	330
1826.65	306
1828.72	328
1830.79	322
1832.86	324
1834.94	300
1837.01	298
1839.08	320
1841.15	304
1843.21	308
1845.28	288
1847.35	298
1849.41	308
1851.48	282
1853.55	288
1855.61	314
1857.67	306
1859.74	282
1861.8	318
1863.86	286
1865.92	312
1867.98	310
1870.05	284
1872.1	304
1874.16	326
1876.22	328
1878.28	304
1880.34	298
1882.39	324
1884.45	292
1886.5	292
1888.56	314
1890.61	306
1892.67	320
1894.72	322
1896.77	306
1898.82	292
1900.87	314
1902.92	326
1904.97	318
1907.02	342
1909.07	328
1911.12	302
1913.17	306
1915.21	336
1917.26	328
1919.3	314
1921.35	310
1923.39	314
1925.43	334
1927.48	318
1929.52	342
1931.56	342
1933.6	334
1935.64	336
1937.68	338
1939.72	316
1941.76	328
1943.8	326
1945.83	304
1947.87	320
1949.91	324
1951.94	330
1953.98	330
1956.01	324
1958.05	334
1960.08	322
1962.11	332
1964.14	312
1966.17	320
1968.2	306
1970.23	322
1972.26	312
1974.29	338
1976.32	320
1978.35	308
1980.37	344
1982.4	304
1984.43	312
1986.45	334
1988.48	306
1990.5	326
1992.52	320
1994.55	310
1996.57	342
1998.59	320
2000.61	320
2002.63	328
2004.65	332
2006.67	326
2008.69	314
2010.7	308
2012.72	328
2014.74	324
2016.75	318
2018.77	334
2020.78	322
2022.8	322
2024.81	338
2026.83	330
2028.84	328
2030.85	340
2032.86	340
2034.87	330
2036.88	308
2038.89	342
2040.9	340
2042.91	342
2044.91	348
2046.92	348
2048.93	322
2050.93	332
2052.94	342
2054.94	326
2056.95	348
2058.95	348
2060.95	328
2062.95	342
2064.96	340
2066.96	354
2068.96	344
2070.96	338
2072.96	332
2074.95	334
2076.95	330
2078.95	348
2080.95	338
2082.94	350
2084.94	348
2086.93	344
2088.93	332
2090.92	314
2092.91	344
2094.91	338
2096.9	370
2098.89	340
2100.88	324
2102.87	344
2104.86	338
2106.85	332
2108.84	358
2110.83	358
2112.81	342
2114.8	338
2116.78	340
2118.77	352
2120.75	342
2122.74	344
2124.72	348
2126.71	350
2128.69	348
2130.67	338
2132.65	358
2134.63	322
2136.61	344
2138.59	350
2140.57	352
2142.55	324
2144.53	340
2146.5	366
2148.48	342
2150.46	350
2152.43	356
2154.41	352
2156.38	354
2158.35	342
2160.33	346
2162.3	354
2164.27	352
2166.24	344
2168.21	340
2170.18	334
2172.15	336
2174.12	336
2176.09	348
2178.06	354
2180.03	344
2181.99	346
2183.96	352
2185.92	360
2187.89	350
2189.85	362
2191.82	368
2193.78	348
2195.74	356
2197.7	352
2199.67	354
2201.63	356
2203.59	348
2205.55	346
2207.51	344
2209.46	342
2211.42	340
2213.38	350
2215.34	370
2217.29	358
2219.25	354
2221.2	346
2223.16	358
2225.11	344
2227.06	362
2229.02	352
2230.97	348
2232.92	346
2234.87	388
2236.82	360
2238.77	332
2240.72	362
2242.67	354
2244.62	348
2246.57	360
2248.51	346
2250.46	354
2252.4	360
2254.35	364
2256.29	338
2258.24	356
2260.18	362
2262.13	344
2264.07	352
2266.01	356
2267.95	362
2269.89	334
2271.83	352
2273.77	366
2275.71	360
2277.65	354
2279.58	348
2281.52	372
2283.46	386
2285.4	358
2287.33	346
2289.27	350
2291.2	354
2293.13	346
2295.07	354
2297	368
2298.93	366
2300.86	366
2302.79	372
2304.72	340
2306.65	350
2308.58	366
2310.51	376
2312.44	386
2314.37	382
2316.29	372
2318.22	356
2320.15	346
2322.07	370
2324	360
2325.92	358
2327.84	368
2329.77	352
2331.69	372
2333.61	366
2335.53	352
2337.45	350
2339.37	362
2341.29	388
2343.21	356
2345.13	374
2347.05	370
2348.97	388
2350.88	354
2352.8	368
2354.71	372
2356.63	374
2358.54	370
2360.46	368
2362.37	346
2364.28	372
2366.2	360
2368.11	378
2370.02	372
2371.93	374
2373.84	344
2375.75	356
2377.66	368
2379.57	352
2381.47	364
2383.38	364
2385.29	354
2387.2	386
2389.1	368
2391.01	378
2392.91	368
2394.81	364
2396.72	366
2398.62	376
2400.52	378
2402.42	368
2404.33	356
2406.23	378
2408.13	372
2410.03	352
2411.92	370
2413.82	356
2415.72	360
2417.62	362
2419.51	356
2421.41	362
2423.31	368
2425.2	372
2427.1	380
2428.99	376
2430.88	364
2432.78	368
2434.67	350
2436.56	364
2438.45	366
2440.34	402
2442.23	380
2444.12	384
2446.01	380
2447.9	366
2449.79	398