File: Jesse_Dataset_v2/Pure Raman/Polystyrene/633nm/ps-ppo-7jan25-1,0000-map3_Y06_X09.txt
182.393	1076
184.993	1032
187.593	992
190.193	992
192.79	970
195.387	956
197.983	972
200.578	964
203.174	984
205.766	990
208.36	1002
210.951	1020
213.542	1084
216.131	1092
218.721	1120
221.309	1112
223.897	1094
226.483	1048
229.069	1008
231.654	974
234.238	862
236.821	788
239.404	710
241.984	624
244.566	576
247.145	480
249.723	460
252.302	436
254.878	410
257.455	398
260.03	380
262.604	384
265.178	364
267.75	364
270.322	382
272.893	362
275.463	352
278.032	336
280.601	326
283.168	326
285.734	318
288.301	324
290.866	290
293.429	284
295.992	278
298.556	266
301.117	282
303.677	274
306.236	262
308.795	242
311.354	268
313.911	256
316.467	266
319.022	276
321.577	248
324.13	250
326.684	262
329.236	254
331.787	262
334.337	282
336.887	264
339.435	248
341.983	256
344.529	268
347.075	262
349.621	248
352.165	238
354.708	250
357.251	242
359.793	246
362.334	236
364.874	244
367.413	252
369.951	256
372.489	250
375.026	250
377.562	266
380.097	282
382.631	278
385.164	312
387.697	312
390.229	296
392.76	314
395.29	310
397.819	326
400.346	318
402.873	366
405.4	356
407.926	376
410.451	382
412.976	354
415.499	356
418.02	298
420.542	300
423.063	298
425.583	300
428.101	296
430.619	270
433.137	250
435.654	258
438.169	250
440.684	256
443.198	238
445.712	246
448.223	260
450.735	232
453.246	232
455.755	246
458.264	200
460.771	218
463.279	210
465.786	214
468.291	220
470.796	224
473.301	208
475.803	220
478.306	200
480.807	206
483.308	210
485.807	198
488.307	216
490.804	218
493.302	210
495.798	218
498.294	222
500.788	226
503.283	208
505.775	222
508.269	216
510.759	222
513.251	226
515.74	216
518.23	244
520.718	234
523.204	238
525.692	246
528.177	248
530.663	256
533.147	258
535.629	266
538.113	310
540.594	292
543.074	308
545.555	306
548.034	286
550.512	284
552.989	276
555.467	278
557.942	290
560.417	258
562.892	290
565.365	280
567.838	276
570.309	302
572.78	274
575.251	298
577.72	294
580.189	268
582.656	242
585.123	256
587.589	252
590.055	244
592.52	240
594.983	260
597.446	238
599.908	244
602.369	242
604.829	258
607.289	282
609.747	310
612.205	310
614.663	338
617.119	470
619.574	750
622.029	1106
624.483	1002
626.936	552
629.389	356
631.84	306
634.291	254
636.741	258
639.19	218
641.639	222
644.086	224
646.533	214
648.979	198
651.424	198
653.869	208
656.313	196
658.754	214
661.196	202
663.638	198
666.078	196
668.518	190
670.957	196
673.394	202
675.831	198
678.268	196
680.703	200
683.137	208
685.571	196
688.005	198
690.437	200
692.868	226
695.299	202
697.729	226
700.159	234
702.586	238
705.014	248
707.441	252
709.866	246
712.292	228
714.716	244
717.14	252
719.563	238
721.984	278
724.406	320
726.825	322
729.246	314
731.665	304
734.082	296
736.5	342
738.916	368
741.332	396
743.746	404
746.161	416
748.574	422
750.987	448
753.398	450
755.81	458
758.219	492
760.629	504
763.037	514
765.445	498
767.852	484
770.258	458
772.664	434
775.068	428
777.472	444
779.876	460
782.278	468
784.679	522
787.08	576
789.48	642
791.879	658
794.278	712
796.675	720
799.072	698
801.467	618
803.864	592
806.258	498
808.651	458
811.044	438
813.437	406
815.828	398
818.218	344
820.608	310
822.997	300
825.385	278
827.773	290
830.16	288
832.546	296
834.931	332
837.315	348
839.699	372
842.081	382
844.463	384
846.844	394
849.226	342
851.606	350
853.985	328
856.363	322
858.741	306
861.117	324
863.493	322
865.868	332
868.243	340
870.616	314
872.989	320
875.36	316
877.731	322
880.102	300
882.472	310
884.841	326
887.209	292
889.577	308
891.944	306
894.31	304
896.674	318
899.039	308
901.403	354
903.766	380
906.128	386
908.49	370
910.849	372
913.209	350
915.569	336
917.927	306
920.284	296
922.641	268
924.997	276
927.353	278
929.707	280
932.061	290
934.414	292
936.765	300
939.117	304
941.469	294
943.818	282
946.167	294
948.515	286
950.863	278
953.211	296
955.556	290
957.902	312
960.246	306
962.59	328
964.933	326
967.276	358
969.617	352
971.958	348
974.298	382
976.638	392
978.976	404
981.314	510
983.651	552
985.988	650
988.323	790
990.659	1212
992.992	1742
995.325	1920
997.658	2318
999.99	4296
1002.32	6612
1004.65	6100
1006.98	3470
1009.31	1568
1011.64	848
1013.97	582
1016.29	496
1018.62	482
1020.94	532
1023.27	642
1025.59	884
1027.91	1212
1030.24	1614
1032.56	2042
1034.88	1912
1037.2	1490
1039.52	1010
1041.84	714
1044.15	578
1046.47	524
1048.79	484
1051.1	446
1053.42	434
1055.73	410
1058.04	428
1060.36	444
1062.67	436
1064.98	418
1067.29	472
1069.6	476
1071.91	472
1074.22	448
1076.52	464
1078.83	472
1081.14	438
1083.44	446
1085.75	438
1088.05	440
1090.35	438
1092.65	466
1094.95	426
1097.26	474
1099.56	482
1101.86	452
1104.15	406
1106.45	402
1108.75	406
1111.05	366
1113.34	378
1115.64	374
1117.93	342
1120.22	338
1122.52	318
1124.81	308
1127.1	306
1129.39	278
1131.68	310
1133.97	308
1136.26	310
1138.54	338
1140.83	346
1143.12	374
1145.4	368
1147.69	442
1149.97	544
1152.25	670
1154.54	928
1156.82	1004
1159.1	928
1161.38	740
1163.66	612
1165.94	546
1168.22	538
1170.49	562
1172.77	582
1175.05	674
1177.32	814
1179.6	1038
1181.87	1190
1184.14	1220
1186.42	1162
1188.69	1056
1190.96	1112
1193.23	1164
1195.5	1202
1197.77	1262
1200.03	1252
1202.3	1162
1204.57	1082
1206.83	992
1209.1	862
1211.36	764
1213.63	642
1215.89	570
1218.15	558
1220.41	518
1222.67	520
1224.93	482
1227.19	460
1229.45	466
1231.71	442
1233.97	434
1236.22	424
1238.48	406
1240.73	408
1242.99	392
1245.24	368
1247.5	366
1249.75	410
1252	376
1254.25	376
1256.5	386
1258.75	392
1261	390
1263.25	380
1265.49	380
1267.74	386
1269.99	352
1272.23	382
1274.48	374
1276.72	380
1278.96	364
1281.21	368
1283.45	380
1285.69	376
1287.93	372
1290.17	386
1292.41	414
1294.64	430
1296.88	420
1299.12	440
1301.36	448
1303.59	450
1305.82	436
1308.06	438
1310.29	452
1312.52	482
1314.76	460
1316.99	492
1319.22	490
1321.45	534
1323.68	536
1325.9	562
1328.13	538
1330.36	564
1332.58	534
1334.81	538
1337.04	536
1339.26	476
1341.48	466
1343.71	426
1345.93	432
1348.15	400
1350.37	410
1352.59	390
1354.81	406
1357.03	394
1359.24	376
1361.46	372
1363.68	390
1365.89	428
1368.11	402
1370.32	400
1372.54	388
1374.75	398
1376.96	402
1379.17	384
1381.38	368
1383.59	358
1385.8	352
1388.01	332
1390.22	322
1392.43	286
1394.63	284
1396.84	310
1399.05	278
1401.25	308
1403.45	294
1405.66	304
1407.86	302
1410.06	276
1412.26	302
1414.46	274
1416.66	276
1418.86	286
1421.06	298
1423.26	286
1425.46	292
1427.65	322
1429.85	324
1432.04	338
1434.24	370
1436.43	400
1438.62	454
1440.82	478
1443.01	514
1445.2	578
1447.39	600
1449.58	652
1451.77	632
1453.95	614
1456.14	564
1458.33	498
1460.52	396
1462.7	368
1464.89	354
1467.07	326
1469.25	306
1471.44	312
1473.62	306
1475.8	312
1477.98	310
1480.16	310
1482.34	302
1484.52	292
1486.7	306
1488.87	286
1491.05	322
1493.23	320
1495.4	338
1497.58	322
1499.75	310
1501.92	294
1504.1	304
1506.27	294
1508.44	284
1510.61	286
1512.78	278
1514.95	288
1517.12	282
1519.28	296
1521.45	300
1523.62	310
1525.78	304
1527.95	298
1530.11	292
1532.28	296
1534.44	284
1536.6	304
1538.76	304
1540.93	292
1543.09	316
1545.25	286
1547.41	302
1549.56	294
1551.72	326
1553.88	304
1556.03	314
1558.19	306
1560.35	316
1562.5	344
1564.65	346
1566.81	350
1568.96	346
1571.11	370
1573.26	410
1575.41	444
1577.56	470
1579.71	606
1581.86	838
1584.01	988
1586.15	936
1588.3	718
1590.45	650
1592.59	622
1594.74	702
1596.88	898
1599.02	1210
1601.17	1634
1603.31	1906
1605.45	1724
1607.59	1322
1609.73	972
1611.87	702
1614.01	556
1616.14	514
1618.28	430
1620.42	414
1622.55	410
1624.69	384
1626.82	370
1628.96	356
1631.09	336
1633.22	336
1635.36	336
1637.49	356
1639.62	342
1641.75	338
1643.88	360
1646	372
1648.13	368
1650.26	354
1652.39	324
1654.51	322
1656.64	308
1658.76	316
1660.89	294
1663.01	310
1665.13	310
1667.26	306
1669.38	306
1671.5	284
1673.62	310
1675.74	316
1677.86	300
1679.97	314
1682.09	316
1684.21	312
1686.33	312
1688.44	318
1690.56	302
1692.67	326
1694.78	300
1696.9	326
1699.01	316
1701.12	316
1703.23	306
1705.34	300
1707.45	310
1709.56	318
1711.67	316
1713.78	302
1715.88	286
1717.99	298
1720.1	292
1722.2	304
1724.31	284
1726.41	300
1728.51	300
1730.62	292
1732.72	294
1734.82	298
1736.92	288
1739.02	302
1741.12	294
1743.22	304
1745.32	304
1747.42	298
1749.51	316
1751.61	302
1753.7	298
1755.8	298
1757.89	302
1759.99	286
1762.08	314
1764.17	290
1766.26	284
1768.36	308
1770.45	332
1772.54	308
1774.62	296
1776.71	306
1778.8	284
1780.89	306
1782.98	298
1785.06	296
1787.15	292
1789.23	304
1791.32	302
1793.4	312
1795.48	298
1797.56	308
1799.65	314
1801.73	300
1803.81	306
1805.89	314
1807.97	320
1810.04	316
1812.12	304
1814.2	320
1816.28	296
1818.35	302
1820.43	314
1822.5	320
1824.58	320
1826.65	310
1828.72	334
1830.79	304
1832.86	322
1834.94	322
1837.01	296
1839.08	318
1841.15	304
1843.21	300
1845.28	310
1847.35	314
1849.41	300
1851.48	324
1853.55	298
1855.61	292
1857.67	292
1859.74	302
1861.8	314
1863.86	296
1865.92	324
1867.98	320
1870.05	328
1872.1	308
1874.16	320
1876.22	304
1878.28	314
1880.34	308
1882.39	310
1884.45	316
1886.5	306
1888.56	318
1890.61	306
1892.67	298
1894.72	314
1896.77	302
1898.82	334
1900.87	304
1902.92	288
1904.97	338
1907.02	314
1909.07	306
1911.12	332
1913.17	330
1915.21	318
1917.26	312
1919.3	312
1921.35	314
1923.39	326
1925.43	318
1927.48	330
1929.52	310
1931.56	332
1933.6	336
1935.64	324
1937.68	334
1939.72	322
1941.76	304
1943.8	318
1945.83	338
1947.87	336
1949.91	346
1951.94	330
1953.98	328
1956.01	312
1958.05	330
1960.08	330
1962.11	342
1964.14	330
1966.17	314
1968.2	326
1970.23	338
1972.26	336
1974.29	328
1976.32	328
1978.35	316
1980.37	320
1982.4	326
1984.43	334
1986.45	328
1988.48	334
1990.5	336
1992.52	320
1994.55	316
1996.57	328
1998.59	314
2000.61	322
2002.63	320
2004.65	324
2006.67	310
2008.69	312
2010.7	314
2012.72	302
2014.74	336
2016.75	318
2018.77	334
2020.78	332
2022.8	322
2024.81	336
2026.83	328
2028.84	320
2030.85	326
2032.86	336
2034.87	322
2036.88	350
2038.89	328
2040.9	344
2042.91	346
2044.91	328
2046.92	342
2048.93	328
2050.93	340
2052.94	350
2054.94	334
2056.95	338
2058.95	322
2060.95	340
2062.95	336
2064.96	336
2066.96	336
2068.96	336
2070.96	328
2072.96	342
2074.95	342
2076.95	320
2078.95	354
2080.95	338
2082.94	338
2084.94	326
2086.93	322
2088.93	324
2090.92	334
2092.91	320
2094.91	318
2096.9	332
2098.89	330
2100.88	350
2102.87	342
2104.86	338
2106.85	328
2108.84	316
2110.83	332
2112.81	336
2114.8	328
2116.78	348
2118.77	354
2120.75	332
2122.74	338
2124.72	344
2126.71	336
2128.69	348
2130.67	332
2132.65	332
2134.63	358
2136.61	338
2138.59	332
2140.57	336
2142.55	320
2144.53	358
2146.5	352
2148.48	332
2150.46	336
2152.43	340
2154.41	344
2156.38	348
2158.35	342
2160.33	322
2162.3	340
2164.27	350
2166.24	326
2168.21	330
2170.18	346
2172.15	338
2174.12	336
2176.09	338
2178.06	326
2180.03	332
2181.99	356
2183.96	352
2185.92	336
2187.89	360
2189.85	354
2191.82	352
2193.78	352
2195.74	330
2197.7	342
2199.67	344
2201.63	354
2203.59	356
2205.55	356
2207.51	344
2209.46	360
2211.42	342
2213.38	334
2215.34	344
2217.29	342
2219.25	340
2221.2	348
2223.16	340
2225.11	344
2227.06	336
2229.02	352
2230.97	352
2232.92	356
2234.87	356
2236.82	362
2238.77	356
2240.72	344
2242.67	352
2244.62	340
2246.57	336
2248.51	342
2250.46	350
2252.4	362
2254.35	352
2256.29	362
2258.24	356
2260.18	314
2262.13	362
2264.07	334
2266.01	360
2267.95	344
2269.89	350
2271.83	332
2273.77	346
2275.71	336
2277.65	348
2279.58	368
2281.52	352
2283.46	350
2285.4	330
2287.33	378
2289.27	352
2291.2	338
2293.13	342
2295.07	346
2297	358
2298.93	336
2300.86	336
2302.79	366
2304.72	330
2306.65	370
2308.58	360
2310.51	348
2312.44	352
2314.37	362
2316.29	356
2318.22	360
2320.15	356
2322.07	352
2324	362
2325.92	352
2327.84	352
2329.77	366
2331.69	368
2333.61	350
2335.53	360
2337.45	346
2339.37	336
2341.29	348
2343.21	380
2345.13	336
2347.05	372
2348.97	344
2350.88	388
2352.8	370
2354.71	364
2356.63	366
2358.54	346
2360.46	360
2362.37	352
2364.28	346
2366.2	348
2368.11	362
2370.02	368
2371.93	340
2373.84	384
2375.75	356
2377.66	364
2379.57	340
2381.47	356
2383.38	350
2385.29	362
2387.2	356
2389.1	358
2391.01	358
2392.91	364
2394.81	352
2396.72	352
2398.62	370
2400.52	368
2402.42	364
2404.33	346
2406.23	364
2408.13	356
2410.03	380
2411.92	376
2413.82	348
2415.72	370
2417.62	368
2419.51	364
2421.41	348
2423.31	356
2425.2	374
2427.1	366
2428.99	378
2430.88	364
2432.78	360
2434.67	368
2436.56	356
2438.45	374
2440.34	370
2442.23	350
2444.12	384
2446.01	378
2447.9	382
2449.79	364