File: Jesse_Dataset_v2/Pure Raman/Polystyrene/633nm/ps-ppo-7jan25-1,0000-map3_Y07_X06.txt
182.393	1034
184.993	1010
187.593	972
190.193	954
192.79	938
195.387	946
197.983	954
200.578	942
203.174	968
205.766	982
208.36	980
210.951	1026
213.542	1024
216.131	1074
218.721	1086
221.309	1086
223.897	1086
226.483	1030
229.069	1010
231.654	928
234.238	862
236.821	752
239.404	692
241.984	608
244.566	550
247.145	486
249.723	452
252.302	432
254.878	394
257.455	372
260.03	358
262.604	378
265.178	336
267.75	332
270.322	340
272.893	348
275.463	322
278.032	332
280.601	308
283.168	308
285.734	298
288.301	286
290.866	274
293.429	270
295.992	248
298.556	254
301.117	250
303.677	244
306.236	222
308.795	246
311.354	234
313.911	266
316.467	244
319.022	248
321.577	254
324.13	230
326.684	250
329.236	244
331.787	254
334.337	248
336.887	244
339.435	252
341.983	236
344.529	238
347.075	214
349.621	232
352.165	232
354.708	236
357.251	216
359.793	240
362.334	234
364.874	234
367.413	230
369.951	238
372.489	232
375.026	230
377.562	236
380.097	266
382.631	272
385.164	254
387.697	284
390.229	282
392.76	276
395.29	300
397.819	292
400.346	314
402.873	310
405.4	326
407.926	358
410.451	348
412.976	324
415.499	310
418.02	312
420.542	288
423.063	282
425.583	272
428.101	254
430.619	242
433.137	252
435.654	242
438.169	250
440.684	250
443.198	242
445.712	228
448.223	218
450.735	218
453.246	210
455.755	198
458.264	214
460.771	210
463.279	206
465.786	188
468.291	192
470.796	192
473.301	202
475.803	170
478.306	206
480.807	188
483.308	190
485.807	202
488.307	180
490.804	194
493.302	192
495.798	204
498.294	184
500.788	194
503.283	204
505.775	210
508.269	218
510.759	192
513.251	188
515.74	200
518.23	210
520.718	196
523.204	206
525.692	204
528.177	236
530.663	236
533.147	252
535.629	254
538.113	260
540.594	268
543.074	260
545.555	272
548.034	246
550.512	248
552.989	256
555.467	266
557.942	272
560.417	264
562.892	248
565.365	260
567.838	260
570.309	262
572.78	278
575.251	288
577.72	266
580.189	258
582.656	252
585.123	240
587.589	228
590.055	232
592.52	230
594.983	220
597.446	220
599.908	222
602.369	224
604.829	250
607.289	278
609.747	280
612.205	304
614.663	318
617.119	434
619.574	696
622.029	1092
624.483	970
626.936	532
629.389	324
631.84	292
634.291	268
636.741	224
639.19	224
641.639	216
644.086	198
646.533	178
648.979	192
651.424	182
653.869	186
656.313	178
658.754	194
661.196	182
663.638	170
666.078	176
668.518	192
670.957	182
673.394	186
675.831	186
678.268	172
680.703	184
683.137	188
685.571	182
688.005	192
690.437	192
692.868	192
695.299	192
697.729	196
700.159	204
702.586	226
705.014	222
707.441	240
709.866	228
712.292	226
714.716	236
717.14	224
719.563	222
721.984	244
724.406	308
726.825	336
729.246	298
731.665	288
734.082	272
736.5	292
738.916	360
741.332	382
743.746	390
746.161	390
748.574	382
750.987	394
753.398	436
755.81	464
758.219	468
760.629	500
763.037	484
765.445	476
767.852	450
770.258	470
772.664	428
775.068	426
777.472	420
779.876	412
782.278	452
784.679	514
787.08	560
789.48	602
791.879	648
794.278	686
796.675	682
799.072	662
801.467	640
803.864	564
806.258	506
808.651	430
811.044	400
813.437	392
815.828	360
818.218	340
820.608	308
822.997	294
825.385	272
827.773	258
830.16	288
832.546	270
834.931	308
837.315	298
839.699	358
842.081	388
844.463	374
846.844	356
849.226	354
851.606	326
853.985	316
856.363	286
858.741	284
861.117	302
863.493	302
865.868	300
868.243	310
870.616	290
872.989	292
875.36	310
877.731	294
880.102	300
882.472	312
884.841	266
887.209	286
889.577	286
891.944	296
894.31	280
896.674	294
899.039	300
901.403	322
903.766	340
906.128	358
908.49	362
910.849	352
913.209	326
915.569	320
917.927	286
920.284	282
922.641	268
924.997	270
927.353	268
929.707	256
932.061	244
934.414	262
936.765	268
939.117	262
941.469	276
943.818	262
946.167	276
948.515	266
950.863	264
953.211	260
955.556	284
957.902	256
960.246	288
962.59	298
964.933	332
967.276	330
969.617	348
971.958	322
974.298	344
976.638	376
978.976	416
981.314	446
983.651	564
985.988	630
988.323	782
990.659	1154
992.992	1740
995.325	1868
997.658	2352
999.99	4206
1002.32	6564
1004.65	6084
1006.98	3360
1009.31	1574
1011.64	850
1013.97	590
1016.29	470
1018.62	478
1020.94	508
1023.27	614
1025.59	850
1027.91	1170
1030.24	1648
1032.56	1990
1034.88	1906
1037.2	1420
1039.52	972
1041.84	712
1044.15	554
1046.47	506
1048.79	442
1051.1	418
1053.42	392
1055.73	392
1058.04	382
1060.36	406
1062.67	410
1064.98	422
1067.29	452
1069.6	454
1071.91	428
1074.22	434
1076.52	438
1078.83	414
1081.14	426
1083.44	418
1085.75	414
1088.05	422
1090.35	434
1092.65	426
1094.95	400
1097.26	424
1099.56	408
1101.86	426
1104.15	418
1106.45	372
1108.75	360
1111.05	358
1113.34	330
1115.64	334
1117.93	332
1120.22	322
1122.52	304
1124.81	280
1127.1	282
1129.39	282
1131.68	292
1133.97	286
1136.26	288
1138.54	292
1140.83	310
1143.12	344
1145.4	360
1147.69	424
1149.97	508
1152.25	658
1154.54	890
1156.82	1004
1159.1	862
1161.38	718
1163.66	562
1165.94	514
1168.22	484
1170.49	484
1172.77	542
1175.05	626
1177.32	758
1179.6	1000
1181.87	1172
1184.14	1216
1186.42	1116
1188.69	1034
1190.96	1074
1193.23	1146
1195.5	1174
1197.77	1230
1200.03	1198
1202.3	1120
1204.57	1088
1206.83	968
1209.1	840
1211.36	720
1213.63	618
1215.89	552
1218.15	510
1220.41	470
1222.67	448
1224.93	468
1227.19	440
1229.45	426
1231.71	422
1233.97	402
1236.22	384
1238.48	358
1240.73	370
1242.99	378
1245.24	360
1247.5	360
1249.75	362
1252	348
1254.25	352
1256.5	334
1258.75	356
1261	368
1263.25	346
1265.49	352
1267.74	364
1269.99	340
1272.23	344
1274.48	340
1276.72	340
1278.96	338
1281.21	340
1283.45	352
1285.69	354
1287.93	360
1290.17	364
1292.41	390
1294.64	378
1296.88	382
1299.12	414
1301.36	424
1303.59	398
1305.82	414
1308.06	436
1310.29	412
1312.52	416
1314.76	442
1316.99	476
1319.22	462
1321.45	484
1323.68	522
1325.9	528
1328.13	534
1330.36	516
1332.58	516
1334.81	544
1337.04	498
1339.26	448
1341.48	442
1343.71	422
1345.93	382
1348.15	380
1350.37	380
1352.59	364
1354.81	372
1357.03	400
1359.24	368
1361.46	376
1363.68	382
1365.89	384
1368.11	374
1370.32	382
1372.54	414
1374.75	368
1376.96	362
1379.17	374
1381.38	330
1383.59	324
1385.8	316
1388.01	280
1390.22	288
1392.43	286
1394.63	254
1396.84	272
1399.05	282
1401.25	284
1403.45	278
1405.66	278
1407.86	260
1410.06	262
1412.26	256
1414.46	258
1416.66	284
1418.86	262
1421.06	258
1423.26	264
1425.46	256
1427.65	272
1429.85	274
1432.04	296
1434.24	328
1436.43	364
1438.62	402
1440.82	450
1443.01	466
1445.2	526
1447.39	558
1449.58	584
1451.77	586
1453.95	568
1456.14	544
1458.33	450
1460.52	414
1462.7	338
1464.89	312
1467.07	314
1469.25	294
1471.44	262
1473.62	272
1475.8	282
1477.98	284
1480.16	288
1482.34	276
1484.52	284
1486.7	264
1488.87	260
1491.05	286
1493.23	288
1495.4	314
1497.58	298
1499.75	274
1501.92	270
1504.1	266
1506.27	280
1508.44	256
1510.61	268
1512.78	284
1514.95	262
1517.12	260
1519.28	264
1521.45	276
1523.62	256
1525.78	248
1527.95	272
1530.11	274
1532.28	266
1534.44	276
1536.6	244
1538.76	282
1540.93	282
1543.09	256
1545.25	262
1547.41	268
1549.56	268
1551.72	282
1553.88	288
1556.03	282
1558.19	288
1560.35	268
1562.5	304
1564.65	298
1566.81	300
1568.96	326
1571.11	366
1573.26	374
1575.41	416
1577.56	452
1579.71	618
1581.86	774
1584.01	956
1586.15	906
1588.3	720
1590.45	594
1592.59	572
1594.74	700
1596.88	874
1599.02	1162
1601.17	1674
1603.31	1886
1605.45	1704
1607.59	1264
1609.73	940
1611.87	684
1614.01	558
1616.14	450
1618.28	430
1620.42	428
1622.55	362
1624.69	354
1626.82	346
1628.96	344
1631.09	324
1633.22	318
1635.36	308
1637.49	338
1639.62	304
1641.75	338
1643.88	338
1646	344
1648.13	346
1650.26	346
1652.39	322
1654.51	318
1656.64	312
1658.76	284
1660.89	298
1663.01	290
1665.13	310
1667.26	278
1669.38	274
1671.5	288
1673.62	296
1675.74	284
1677.86	280
1679.97	310
1682.09	280
1684.21	286
1686.33	318
1688.44	290
1690.56	286
1692.67	284
1694.78	278
1696.9	306
1699.01	282
1701.12	288
1703.23	270
1705.34	286
1707.45	280
1709.56	274
1711.67	276
1713.78	280
1715.88	286
1717.99	276
1720.1	280
1722.2	276
1724.31	298
1726.41	278
1728.51	266
1730.62	280
1732.72	294
1734.82	288
1736.92	266
1739.02	274
1741.12	278
1743.22	298
1745.32	254
1747.42	272
1749.51	260
1751.61	284
1753.7	286
1755.8	294
1757.89	296
1759.99	260
1762.08	258
1764.17	278
1766.26	258
1768.36	280
1770.45	274
1772.54	296
1774.62	286
1776.71	284
1778.8	276
1780.89	286
1782.98	274
1785.06	260
1787.15	294
1789.23	298
1791.32	306
1793.4	296
1795.48	284
1797.56	280
1799.65	280
1801.73	262
1803.81	294
1805.89	298
1807.97	294
1810.04	278
1812.12	310
1814.2	310
1816.28	296
1818.35	286
1820.43	286
1822.5	306
1824.58	282
1826.65	302
1828.72	290
1830.79	292
1832.86	296
1834.94	306
1837.01	278
1839.08	290
1841.15	300
1843.21	286
1845.28	308
1847.35	274
1849.41	280
1851.48	296
1853.55	286
1855.61	270
1857.67	284
1859.74	302
1861.8	314
1863.86	284
1865.92	294
1867.98	308
1870.05	302
1872.1	298
1874.16	272
1876.22	298
1878.28	292
1880.34	282
1882.39	300
1884.45	298
1886.5	284
1888.56	268
1890.61	308
1892.67	294
1894.72	306
1896.77	296
1898.82	294
1900.87	298
1902.92	298
1904.97	290
1907.02	294
1909.07	310
1911.12	298
1913.17	308
1915.21	304
1917.26	310
1919.3	302
1921.35	296
1923.39	290
1925.43	308
1927.48	302
1929.52	316
1931.56	302
1933.6	312
1935.64	298
1937.68	304
1939.72	310
1941.76	300
1943.8	310
1945.83	322
1947.87	310
1949.91	326
1951.94	306
1953.98	302
1956.01	310
1958.05	312
1960.08	316
1962.11	298
1964.14	296
1966.17	310
1968.2	312
1970.23	282
1972.26	308
1974.29	292
1976.32	278
1978.35	300
1980.37	292
1982.4	314
1984.43	298
1986.45	292
1988.48	298
1990.5	294
1992.52	294
1994.55	310
1996.57	302
1998.59	282
2000.61	300
2002.63	306
2004.65	312
2006.67	302
2008.69	310
2010.7	308
2012.72	298
2014.74	312
2016.75	312
2018.77	332
2020.78	312
2022.8	296
2024.81	314
2026.83	312
2028.84	316
2030.85	308
2032.86	304
2034.87	308
2036.88	312
2038.89	306
2040.9	300
2042.91	330
2044.91	336
2046.92	322
2048.93	320
2050.93	296
2052.94	326
2054.94	316
2056.95	334
2058.95	310
2060.95	320
2062.95	298
2064.96	312
2066.96	312
2068.96	312
2070.96	298
2072.96	304
2074.95	324
2076.95	316
2078.95	326
2080.95	314
2082.94	326
2084.94	300
2086.93	322
2088.93	296
2090.92	316
2092.91	340
2094.91	326
2096.9	312
2098.89	316
2100.88	316
2102.87	338
2104.86	328
2106.85	332
2108.84	308
2110.83	316
2112.81	314
2114.8	332
2116.78	316
2118.77	322
2120.75	332
2122.74	316
2124.72	312
2126.71	324
2128.69	330
2130.67	312
2132.65	330
2134.63	300
2136.61	306
2138.59	330
2140.57	316
2142.55	336
2144.53	322
2146.5	318
2148.48	310
2150.46	310
2152.43	324
2154.41	300
2156.38	326
2158.35	320
2160.33	320
2162.3	322
2164.27	326
2166.24	310
2168.21	324
2170.18	324
2172.15	294
2174.12	296
2176.09	328
2178.06	320
2180.03	314
2181.99	336
2183.96	320
2185.92	336
2187.89	316
2189.85	334
2191.82	322
2193.78	324
2195.74	330
2197.7	340
2199.67	342
2201.63	342
2203.59	328
2205.55	324
2207.51	286
2209.46	320
2211.42	326
2213.38	334
2215.34	332
2217.29	334
2219.25	328
2221.2	326
2223.16	336
2225.11	332
2227.06	322
2229.02	324
2230.97	332
2232.92	316
2234.87	344
2236.82	334
2238.77	356
2240.72	322
2242.67	348
2244.62	334
2246.57	320
2248.51	330
2250.46	320
2252.4	332
2254.35	340
2256.29	334
2258.24	334
2260.18	322
2262.13	334
2264.07	322
2266.01	340
2267.95	326
2269.89	332
2271.83	316
2273.77	328
2275.71	328
2277.65	326
2279.58	332
2281.52	340
2283.46	332
2285.4	336
2287.33	328
2289.27	346
2291.2	324
2293.13	348
2295.07	338
2297	340
2298.93	350
2300.86	330
2302.79	338
2304.72	346
2306.65	336
2308.58	330
2310.51	324
2312.44	354
2314.37	336
2316.29	344
2318.22	342
2320.15	342
2322.07	336
2324	338
2325.92	316
2327.84	352
2329.77	354
2331.69	334
2333.61	336
2335.53	350
2337.45	316
2339.37	332
2341.29	330
2343.21	348
2345.13	340
2347.05	336
2348.97	328
2350.88	332
2352.8	344
2354.71	348
2356.63	344
2358.54	346
2360.46	338
2362.37	338
2364.28	360
2366.2	338
2368.11	336
2370.02	344
2371.93	340
2373.84	336
2375.75	330
2377.66	352
2379.57	326
2381.47	358
2383.38	344
2385.29	332
2387.2	328
2389.1	344
2391.01	322
2392.91	354
2394.81	316
2396.72	350
2398.62	336
2400.52	358
2402.42	354
2404.33	352
2406.23	358
2408.13	350
2410.03	344
2411.92	354
2413.82	354
2415.72	368
2417.62	356
2419.51	358
2421.41	366
2423.31	344
2425.2	338
2427.1	342
2428.99	354
2430.88	318
2432.78	352
2434.67	346
2436.56	354
2438.45	356
2440.34	340
2442.23	348
2444.12	352
2446.01	366
2447.9	366
2449.79	366