File: Jesse_Dataset_v2/Pure Raman/Polystyrene/633nm/ps-ppo-7jan25-1,0000-map3_Y01_X07.txt
182.393	1122
184.993	1046
187.593	1046
190.193	1048
192.79	996
195.387	994
197.983	1016
200.578	998
203.174	1054
205.766	1058
208.36	1074
210.951	1086
213.542	1080
216.131	1156
218.721	1164
221.309	1140
223.897	1124
226.483	1134
229.069	1062
231.654	1010
234.238	920
236.821	840
239.404	732
241.984	682
244.566	594
247.145	532
249.723	478
252.302	464
254.878	434
257.455	416
260.03	422
262.604	404
265.178	412
267.75	398
270.322	406
272.893	418
275.463	372
278.032	380
280.601	380
283.168	370
285.734	366
288.301	332
290.866	316
293.429	314
295.992	316
298.556	288
301.117	294
303.677	294
306.236	292
308.795	298
311.354	286
313.911	312
316.467	306
319.022	304
321.577	276
324.13	298
326.684	282
329.236	312
331.787	294
334.337	302
336.887	316
339.435	298
341.983	304
344.529	294
347.075	284
349.621	278
352.165	270
354.708	278
357.251	282
359.793	270
362.334	284
364.874	286
367.413	266
369.951	278
372.489	282
375.026	290
377.562	298
380.097	308
382.631	296
385.164	316
387.697	320
390.229	318
392.76	306
395.29	316
397.819	338
400.346	306
402.873	344
405.4	388
407.926	398
410.451	422
412.976	390
415.499	364
418.02	346
420.542	334
423.063	328
425.583	304
428.101	286
430.619	278
433.137	268
435.654	278
438.169	270
440.684	282
443.198	268
445.712	254
448.223	256
450.735	240
453.246	238
455.755	232
458.264	220
460.771	228
463.279	246
465.786	226
468.291	232
470.796	236
473.301	238
475.803	220
478.306	220
480.807	228
483.308	238
485.807	224
488.307	234
490.804	216
493.302	232
495.798	244
498.294	228
500.788	218
503.283	216
505.775	244
508.269	244
510.759	222
513.251	240
515.74	238
518.23	244
520.718	244
523.204	242
525.692	262
528.177	238
530.663	262
533.147	256
535.629	284
538.113	290
540.594	304
543.074	296
545.555	294
548.034	306
550.512	290
552.989	286
555.467	292
557.942	290
560.417	272
562.892	302
565.365	316
567.838	276
570.309	298
572.78	290
575.251	312
577.72	284
580.189	288
582.656	262
585.123	264
587.589	240
590.055	248
592.52	250
594.983	250
597.446	248
599.908	262
602.369	264
604.829	292
607.289	324
609.747	310
612.205	330
614.663	336
617.119	450
619.574	736
622.029	1084
624.483	1028
626.936	560
629.389	358
631.84	312
634.291	296
636.741	256
639.19	244
641.639	234
644.086	212
646.533	204
648.979	226
651.424	216
653.869	210
656.313	208
658.754	214
661.196	208
663.638	194
666.078	206
668.518	214
670.957	218
673.394	198
675.831	196
678.268	194
680.703	206
683.137	206
685.571	204
688.005	206
690.437	212
692.868	224
695.299	210
697.729	222
700.159	224
702.586	240
705.014	244
707.441	234
709.866	274
712.292	252
714.716	266
717.14	252
719.563	266
721.984	304
724.406	326
726.825	322
729.246	322
731.665	308
734.082	332
736.5	340
738.916	378
741.332	392
743.746	400
746.161	424
748.574	432
750.987	428
753.398	432
755.81	460
758.219	508
760.629	498
763.037	484
765.445	506
767.852	482
770.258	494
772.664	434
775.068	458
777.472	446
779.876	432
782.278	496
784.679	544
787.08	580
789.48	644
791.879	692
794.278	742
796.675	720
799.072	696
801.467	660
803.864	570
806.258	514
808.651	458
811.044	436
813.437	410
815.828	374
818.218	358
820.608	320
822.997	328
825.385	316
827.773	316
830.16	306
832.546	320
834.931	314
837.315	348
839.699	394
842.081	416
844.463	396
846.844	376
849.226	360
851.606	348
853.985	338
856.363	338
858.741	308
861.117	348
863.493	318
865.868	322
868.243	342
870.616	330
872.989	342
875.36	334
877.731	338
880.102	306
882.472	328
884.841	316
887.209	316
889.577	312
891.944	340
894.31	320
896.674	312
899.039	360
901.403	338
903.766	378
906.128	384
908.49	384
910.849	384
913.209	372
915.569	350
917.927	316
920.284	310
922.641	296
924.997	286
927.353	302
929.707	288
932.061	306
934.414	294
936.765	302
939.117	282
941.469	304
943.818	316
946.167	316
948.515	320
950.863	300
953.211	306
955.556	316
957.902	320
960.246	314
962.59	326
964.933	360
967.276	360
969.617	364
971.958	386
974.298	388
976.638	396
978.976	440
981.314	484
983.651	574
985.988	662
988.323	812
990.659	1206
992.992	1736
995.325	1950
997.658	2378
999.99	4136
1002.32	6574
1004.65	6152
1006.98	3424
1009.31	1642
1011.64	882
1013.97	634
1016.29	532
1018.62	504
1020.94	568
1023.27	682
1025.59	854
1027.91	1240
1030.24	1702
1032.56	1986
1034.88	1926
1037.2	1520
1039.52	1026
1041.84	702
1044.15	616
1046.47	542
1048.79	508
1051.1	474
1053.42	478
1055.73	434
1058.04	454
1060.36	444
1062.67	452
1064.98	482
1067.29	474
1069.6	492
1071.91	512
1074.22	494
1076.52	480
1078.83	476
1081.14	462
1083.44	490
1085.75	466
1088.05	476
1090.35	470
1092.65	474
1094.95	474
1097.26	492
1099.56	514
1101.86	470
1104.15	456
1106.45	418
1108.75	428
1111.05	418
1113.34	404
1115.64	394
1117.93	362
1120.22	352
1122.52	360
1124.81	342
1127.1	346
1129.39	346
1131.68	344
1133.97	336
1136.26	346
1138.54	366
1140.83	364
1143.12	380
1145.4	438
1147.69	488
1149.97	572
1152.25	694
1154.54	924
1156.82	1042
1159.1	926
1161.38	750
1163.66	626
1165.94	568
1168.22	586
1170.49	552
1172.77	606
1175.05	684
1177.32	842
1179.6	1062
1181.87	1220
1184.14	1244
1186.42	1158
1188.69	1136
1190.96	1140
1193.23	1246
1195.5	1262
1197.77	1278
1200.03	1242
1202.3	1258
1204.57	1172
1206.83	1020
1209.1	896
1211.36	810
1213.63	696
1215.89	626
1218.15	568
1220.41	570
1222.67	546
1224.93	512
1227.19	512
1229.45	500
1231.71	492
1233.97	482
1236.22	472
1238.48	472
1240.73	456
1242.99	446
1245.24	426
1247.5	446
1249.75	406
1252	412
1254.25	430
1256.5	412
1258.75	432
1261	438
1263.25	450
1265.49	390
1267.74	426
1269.99	432
1272.23	404
1274.48	418
1276.72	434
1278.96	412
1281.21	438
1283.45	432
1285.69	416
1287.93	438
1290.17	446
1292.41	434
1294.64	452
1296.88	472
1299.12	476
1301.36	496
1303.59	474
1305.82	472
1308.06	520
1310.29	494
1312.52	472
1314.76	514
1316.99	514
1319.22	544
1321.45	588
1323.68	582
1325.9	604
1328.13	622
1330.36	602
1332.58	588
1334.81	590
1337.04	562
1339.26	528
1341.48	528
1343.71	498
1345.93	466
1348.15	452
1350.37	456
1352.59	444
1354.81	438
1357.03	444
1359.24	432
1361.46	478
1363.68	450
1365.89	458
1368.11	472
1370.32	446
1372.54	446
1374.75	450
1376.96	450
1379.17	436
1381.38	412
1383.59	416
1385.8	390
1388.01	376
1390.22	360
1392.43	352
1394.63	354
1396.84	356
1399.05	362
1401.25	350
1403.45	340
1405.66	340
1407.86	354
1410.06	324
1412.26	346
1414.46	348
1416.66	318
1418.86	340
1421.06	348
1423.26	332
1425.46	334
1427.65	346
1429.85	374
1432.04	382
1434.24	410
1436.43	422
1438.62	474
1440.82	510
1443.01	568
1445.2	614
1447.39	670
1449.58	652
1451.77	688
1453.95	670
1456.14	598
1458.33	554
1460.52	442
1462.7	420
1464.89	426
1467.07	382
1469.25	366
1471.44	352
1473.62	354
1475.8	368
1477.98	356
1480.16	366
1482.34	384
1484.52	342
1486.7	328
1488.87	362
1491.05	368
1493.23	356
1495.4	378
1497.58	364
1499.75	344
1501.92	358
1504.1	350
1506.27	358
1508.44	330
1510.61	350
1512.78	352
1514.95	334
1517.12	352
1519.28	340
1521.45	344
1523.62	350
1525.78	328
1527.95	354
1530.11	360
1532.28	350
1534.44	342
1536.6	346
1538.76	350
1540.93	358
1543.09	346
1545.25	352
1547.41	324
1549.56	358
1551.72	356
1553.88	380
1556.03	350
1558.19	358
1560.35	352
1562.5	372
1564.65	406
1566.81	378
1568.96	416
1571.11	424
1573.26	430
1575.41	478
1577.56	548
1579.71	664
1581.86	880
1584.01	1030
1586.15	974
1588.3	790
1590.45	682
1592.59	706
1594.74	762
1596.88	936
1599.02	1326
1601.17	1756
1603.31	1898
1605.45	1780
1607.59	1358
1609.73	994
1611.87	762
1614.01	602
1616.14	532
1618.28	490
1620.42	446
1622.55	452
1624.69	424
1626.82	428
1628.96	408
1631.09	402
1633.22	376
1635.36	376
1637.49	378
1639.62	382
1641.75	392
1643.88	416
1646	384
1648.13	396
1650.26	432
1652.39	400
1654.51	374
1656.64	352
1658.76	384
1660.89	370
1663.01	332
1665.13	348
1667.26	354
1669.38	366
1671.5	358
1673.62	364
1675.74	360
1677.86	352
1679.97	358
1682.09	344
1684.21	346
1686.33	342
1688.44	332
1690.56	360
1692.67	352
1694.78	344
1696.9	368
1699.01	350
1701.12	356
1703.23	336
1705.34	352
1707.45	330
1709.56	338
1711.67	330
1713.78	328
1715.88	342
1717.99	338
1720.1	352
1722.2	350
1724.31	330
1726.41	336
1728.51	328
1730.62	344
1732.72	320
1734.82	336
1736.92	328
1739.02	342
1741.12	322
1743.22	352
1745.32	348
1747.42	330
1749.51	346
1751.61	344
1753.7	350
1755.8	326
1757.89	334
1759.99	308
1762.08	328
1764.17	332
1766.26	334
1768.36	336
1770.45	316
1772.54	362
1774.62	328
1776.71	340
1778.8	342
1780.89	322
1782.98	316
1785.06	342
1787.15	322
1789.23	344
1791.32	342
1793.4	336
1795.48	348
1797.56	320
1799.65	336
1801.73	354
1803.81	336
1805.89	344
1807.97	344
1810.04	354
1812.12	330
1814.2	336
1816.28	338
1818.35	336
1820.43	330
1822.5	344
1824.58	344
1826.65	344
1828.72	330
1830.79	320
1832.86	344
1834.94	336
1837.01	326
1839.08	332
1841.15	328
1843.21	320
1845.28	314
1847.35	320
1849.41	336
1851.48	330
1853.55	358
1855.61	314
1857.67	300
1859.74	330
1861.8	320
1863.86	338
1865.92	330
1867.98	328
1870.05	314
1872.1	354
1874.16	326
1876.22	322
1878.28	350
1880.34	348
1882.39	340
1884.45	348
1886.5	340
1888.56	314
1890.61	340
1892.67	334
1894.72	354
1896.77	330
1898.82	334
1900.87	324
1902.92	350
1904.97	328
1907.02	358
1909.07	358
1911.12	350
1913.17	352
1915.21	332
1917.26	354
1919.3	324
1921.35	360
1923.39	346
1925.43	352
1927.48	330
1929.52	358
1931.56	336
1933.6	342
1935.64	350
1937.68	348
1939.72	354
1941.76	336
1943.8	346
1945.83	352
1947.87	350
1949.91	352
1951.94	340
1953.98	340
1956.01	336
1958.05	344
1960.08	346
1962.11	362
1964.14	348
1966.17	362
1968.2	336
1970.23	350
1972.26	350
1974.29	360
1976.32	338
1978.35	350
1980.37	324
1982.4	344
1984.43	344
1986.45	326
1988.48	364
1990.5	320
1992.52	344
1994.55	322
1996.57	326
1998.59	344
2000.61	338
2002.63	358
2004.65	338
2006.67	318
2008.69	338
2010.7	340
2012.72	352
2014.74	354
2016.75	336
2018.77	348
2020.78	354
2022.8	338
2024.81	354
2026.83	348
2028.84	350
2030.85	328
2032.86	350
2034.87	352
2036.88	316
2038.89	346
2040.9	304
2042.91	346
2044.91	352
2046.92	352
2048.93	330
2050.93	352
2052.94	332
2054.94	372
2056.95	352
2058.95	340
2060.95	352
2062.95	348
2064.96	352
2066.96	356
2068.96	358
2070.96	354
2072.96	342
2074.95	364
2076.95	342
2078.95	350
2080.95	334
2082.94	362
2084.94	342
2086.93	336
2088.93	358
2090.92	354
2092.91	356
2094.91	330
2096.9	342
2098.89	340
2100.88	348
2102.87	366
2104.86	368
2106.85	338
2108.84	348
2110.83	352
2112.81	348
2114.8	338
2116.78	360
2118.77	352
2120.75	344
2122.74	340
2124.72	348
2126.71	362
2128.69	356
2130.67	348
2132.65	362
2134.63	352
2136.61	348
2138.59	336
2140.57	344
2142.55	364
2144.53	340
2146.5	340
2148.48	362
2150.46	352
2152.43	338
2154.41	350
2156.38	346
2158.35	338
2160.33	338
2162.3	366
2164.27	344
2166.24	352
2168.21	368
2170.18	358
2172.15	344
2174.12	372
2176.09	358
2178.06	350
2180.03	356
2181.99	352
2183.96	342
2185.92	370
2187.89	350
2189.85	366
2191.82	344
2193.78	354
2195.74	368
2197.7	348
2199.67	340
2201.63	358
2203.59	360
2205.55	368
2207.51	358
2209.46	348
2211.42	350
2213.38	346
2215.34	370
2217.29	360
2219.25	340
2221.2	364
2223.16	374
2225.11	348
2227.06	366
2229.02	350
2230.97	346
2232.92	370
2234.87	354
2236.82	352
2238.77	344
2240.72	354
2242.67	356
2244.62	354
2246.57	366
2248.51	346
2250.46	362
2252.4	356
2254.35	360
2256.29	380
2258.24	340
2260.18	368
2262.13	348
2264.07	366
2266.01	362
2267.95	350
2269.89	360
2271.83	368
2273.77	348
2275.71	346
2277.65	352
2279.58	362
2281.52	362
2283.46	356
2285.4	360
2287.33	356
2289.27	376
2291.2	352
2293.13	366
2295.07	390
2297	358
2298.93	368
2300.86	360
2302.79	360
2304.72	364
2306.65	380
2308.58	368
2310.51	370
2312.44	372
2314.37	368
2316.29	352
2318.22	398
2320.15	374
2322.07	358
2324	344
2325.92	388
2327.84	368
2329.77	344
2331.69	342
2333.61	372
2335.53	372
2337.45	384
2339.37	362
2341.29	372
2343.21	366
2345.13	370
2347.05	366
2348.97	380
2350.88	380
2352.8	374
2354.71	370
2356.63	374
2358.54	392
2360.46	376
2362.37	370
2364.28	386
2366.2	350
2368.11	348
2370.02	368
2371.93	360
2373.84	368
2375.75	360
2377.66	378
2379.57	370
2381.47	370
2383.38	374
2385.29	388
2387.2	376
2389.1	370
2391.01	372
2392.91	378
2394.81	380
2396.72	366
2398.62	380
2400.52	386
2402.42	366
2404.33	376
2406.23	382
2408.13	366
2410.03	370
2411.92	354
2413.82	362
2415.72	386
2417.62	380
2419.51	366
2421.41	390
2423.31	388
2425.2	362
2427.1	382
2428.99	376
2430.88	374
2432.78	358
2434.67	364
2436.56	388
2438.45	382
2440.34	396
2442.23	362
2444.12	390
2446.01	390
2447.9	392
2449.79	392