File: Jesse_Dataset_v2/Pure Raman/Polystyrene/633nm/ps-ppo-7jan25-1,0000-map3_Y08_X08.txt
182.393	1054
184.993	1058
187.593	1028
190.193	1014
192.79	996
195.387	986
197.983	970
200.578	970
203.174	964
205.766	996
208.36	1030
210.951	1048
213.542	1094
216.131	1128
218.721	1102
221.309	1106
223.897	1110
226.483	1050
229.069	996
231.654	932
234.238	876
236.821	794
239.404	730
241.984	614
244.566	572
247.145	488
249.723	484
252.302	430
254.878	410
257.455	408
260.03	386
262.604	362
265.178	378
267.75	366
270.322	370
272.893	348
275.463	350
278.032	362
280.601	350
283.168	310
285.734	316
288.301	304
290.866	296
293.429	278
295.992	284
298.556	246
301.117	276
303.677	268
306.236	246
308.795	280
311.354	264
313.911	250
316.467	284
319.022	270
321.577	264
324.13	266
326.684	262
329.236	276
331.787	274
334.337	272
336.887	264
339.435	264
341.983	254
344.529	254
347.075	274
349.621	252
352.165	244
354.708	242
357.251	262
359.793	244
362.334	250
364.874	256
367.413	238
369.951	238
372.489	260
375.026	270
377.562	280
380.097	256
382.631	274
385.164	296
387.697	288
390.229	264
392.76	294
395.29	304
397.819	306
400.346	304
402.873	322
405.4	344
407.926	378
410.451	354
412.976	346
415.499	328
418.02	304
420.542	314
423.063	290
425.583	270
428.101	262
430.619	266
433.137	252
435.654	236
438.169	248
440.684	240
443.198	236
445.712	236
448.223	232
450.735	220
453.246	216
455.755	214
458.264	212
460.771	204
463.279	206
465.786	206
468.291	206
470.796	220
473.301	188
475.803	194
478.306	188
480.807	198
483.308	190
485.807	204
488.307	192
490.804	210
493.302	192
495.798	188
498.294	180
500.788	198
503.283	218
505.775	212
508.269	218
510.759	218
513.251	204
515.74	220
518.23	206
520.718	218
523.204	214
525.692	218
528.177	234
530.663	240
533.147	226
535.629	244
538.113	272
540.594	284
543.074	284
545.555	278
548.034	270
550.512	272
552.989	286
555.467	256
557.942	280
560.417	268
562.892	282
565.365	272
567.838	252
570.309	280
572.78	268
575.251	274
577.72	274
580.189	256
582.656	240
585.123	230
587.589	234
590.055	236
592.52	216
594.983	238
597.446	210
599.908	216
602.369	232
604.829	232
607.289	254
609.747	282
612.205	292
614.663	326
617.119	420
619.574	706
622.029	1138
624.483	1002
626.936	550
629.389	356
631.84	284
634.291	270
636.741	220
639.19	208
641.639	200
644.086	192
646.533	182
648.979	202
651.424	174
653.869	184
656.313	192
658.754	178
661.196	178
663.638	166
666.078	172
668.518	180
670.957	170
673.394	180
675.831	186
678.268	190
680.703	184
683.137	176
685.571	180
688.005	172
690.437	164
692.868	186
695.299	184
697.729	208
700.159	198
702.586	228
705.014	222
707.441	224
709.866	208
712.292	230
714.716	216
717.14	216
719.563	232
721.984	276
724.406	308
726.825	328
729.246	292
731.665	276
734.082	280
736.5	324
738.916	340
741.332	382
743.746	376
746.161	412
748.574	400
750.987	394
753.398	430
755.81	454
758.219	464
760.629	484
763.037	476
765.445	494
767.852	470
770.258	458
772.664	430
775.068	402
777.472	446
779.876	430
782.278	476
784.679	510
787.08	542
789.48	596
791.879	680
794.278	688
796.675	718
799.072	684
801.467	632
803.864	564
806.258	500
808.651	432
811.044	416
813.437	364
815.828	376
818.218	344
820.608	304
822.997	286
825.385	260
827.773	272
830.16	276
832.546	300
834.931	298
837.315	342
839.699	354
842.081	364
844.463	370
846.844	366
849.226	344
851.606	318
853.985	334
856.363	318
858.741	312
861.117	306
863.493	314
865.868	308
868.243	308
870.616	314
872.989	296
875.36	304
877.731	308
880.102	316
882.472	294
884.841	310
887.209	308
889.577	286
891.944	288
894.31	300
896.674	294
899.039	308
901.403	340
903.766	366
906.128	378
908.49	380
910.849	338
913.209	334
915.569	298
917.927	276
920.284	270
922.641	262
924.997	272
927.353	276
929.707	272
932.061	250
934.414	266
936.765	272
939.117	268
941.469	272
943.818	268
946.167	274
948.515	272
950.863	278
953.211	288
955.556	270
957.902	284
960.246	290
962.59	308
964.933	328
967.276	344
969.617	330
971.958	330
974.298	360
976.638	372
978.976	418
981.314	490
983.651	532
985.988	602
988.323	770
990.659	1188
992.992	1734
995.325	1880
997.658	2346
999.99	4266
1002.32	6554
1004.65	6034
1006.98	3404
1009.31	1576
1011.64	814
1013.97	594
1016.29	508
1018.62	454
1020.94	534
1023.27	650
1025.59	868
1027.91	1188
1030.24	1658
1032.56	1968
1034.88	1872
1037.2	1412
1039.52	982
1041.84	732
1044.15	540
1046.47	492
1048.79	442
1051.1	436
1053.42	434
1055.73	416
1058.04	396
1060.36	430
1062.67	430
1064.98	424
1067.29	428
1069.6	468
1071.91	454
1074.22	462
1076.52	448
1078.83	426
1081.14	428
1083.44	422
1085.75	454
1088.05	440
1090.35	436
1092.65	446
1094.95	414
1097.26	444
1099.56	420
1101.86	460
1104.15	406
1106.45	426
1108.75	390
1111.05	380
1113.34	354
1115.64	344
1117.93	350
1120.22	340
1122.52	324
1124.81	294
1127.1	284
1129.39	298
1131.68	310
1133.97	302
1136.26	298
1138.54	330
1140.83	334
1143.12	348
1145.4	380
1147.69	422
1149.97	532
1152.25	684
1154.54	888
1156.82	994
1159.1	886
1161.38	712
1163.66	580
1165.94	528
1168.22	516
1170.49	540
1172.77	566
1175.05	666
1177.32	808
1179.6	990
1181.87	1170
1184.14	1208
1186.42	1086
1188.69	1052
1190.96	1100
1193.23	1148
1195.5	1224
1197.77	1236
1200.03	1238
1202.3	1196
1204.57	1100
1206.83	998
1209.1	856
1211.36	744
1213.63	628
1215.89	566
1218.15	510
1220.41	496
1222.67	506
1224.93	490
1227.19	486
1229.45	474
1231.71	426
1233.97	396
1236.22	400
1238.48	390
1240.73	364
1242.99	396
1245.24	400
1247.5	386
1249.75	390
1252	372
1254.25	394
1256.5	372
1258.75	384
1261	384
1263.25	374
1265.49	370
1267.74	368
1269.99	372
1272.23	376
1274.48	358
1276.72	368
1278.96	388
1281.21	380
1283.45	354
1285.69	380
1287.93	394
1290.17	394
1292.41	396
1294.64	384
1296.88	412
1299.12	418
1301.36	434
1303.59	428
1305.82	468
1308.06	448
1310.29	444
1312.52	450
1314.76	452
1316.99	462
1319.22	486
1321.45	494
1323.68	516
1325.9	562
1328.13	586
1330.36	570
1332.58	554
1334.81	558
1337.04	522
1339.26	478
1341.48	470
1343.71	474
1345.93	422
1348.15	422
1350.37	412
1352.59	410
1354.81	402
1357.03	384
1359.24	398
1361.46	394
1363.68	396
1365.89	392
1368.11	394
1370.32	400
1372.54	404
1374.75	404
1376.96	392
1379.17	378
1381.38	370
1383.59	364
1385.8	348
1388.01	312
1390.22	300
1392.43	318
1394.63	302
1396.84	314
1399.05	288
1401.25	308
1403.45	302
1405.66	312
1407.86	308
1410.06	286
1412.26	312
1414.46	288
1416.66	280
1418.86	290
1421.06	284
1423.26	298
1425.46	264
1427.65	282
1429.85	312
1432.04	312
1434.24	356
1436.43	390
1438.62	420
1440.82	476
1443.01	530
1445.2	562
1447.39	602
1449.58	630
1451.77	654
1453.95	618
1456.14	556
1458.33	476
1460.52	400
1462.7	358
1464.89	340
1467.07	324
1469.25	296
1471.44	308
1473.62	304
1475.8	306
1477.98	288
1480.16	290
1482.34	300
1484.52	308
1486.7	300
1488.87	286
1491.05	282
1493.23	316
1495.4	336
1497.58	312
1499.75	314
1501.92	280
1504.1	302
1506.27	300
1508.44	298
1510.61	284
1512.78	264
1514.95	290
1517.12	292
1519.28	290
1521.45	294
1523.62	266
1525.78	296
1527.95	296
1530.11	320
1532.28	302
1534.44	300
1536.6	284
1538.76	274
1540.93	296
1543.09	300
1545.25	298
1547.41	296
1549.56	314
1551.72	302
1553.88	310
1556.03	312
1558.19	304
1560.35	326
1562.5	346
1564.65	332
1566.81	328
1568.96	344
1571.11	386
1573.26	418
1575.41	432
1577.56	506
1579.71	602
1581.86	820
1584.01	1018
1586.15	936
1588.3	744
1590.45	646
1592.59	616
1594.74	732
1596.88	908
1599.02	1244
1601.17	1730
1603.31	1872
1605.45	1746
1607.59	1318
1609.73	912
1611.87	690
1614.01	574
1616.14	500
1618.28	472
1620.42	430
1622.55	402
1624.69	374
1626.82	376
1628.96	356
1631.09	370
1633.22	346
1635.36	324
1637.49	340
1639.62	366
1641.75	338
1643.88	362
1646	374
1648.13	356
1650.26	364
1652.39	352
1654.51	358
1656.64	336
1658.76	320
1660.89	332
1663.01	310
1665.13	302
1667.26	304
1669.38	296
1671.5	296
1673.62	318
1675.74	304
1677.86	304
1679.97	316
1682.09	326
1684.21	310
1686.33	296
1688.44	296
1690.56	300
1692.67	310
1694.78	326
1696.9	308
1699.01	306
1701.12	308
1703.23	298
1705.34	304
1707.45	328
1709.56	294
1711.67	298
1713.78	292
1715.88	302
1717.99	296
1720.1	304
1722.2	298
1724.31	300
1726.41	302
1728.51	268
1730.62	306
1732.72	302
1734.82	316
1736.92	314
1739.02	328
1741.12	316
1743.22	332
1745.32	306
1747.42	310
1749.51	298
1751.61	302
1753.7	306
1755.8	308
1757.89	288
1759.99	328
1762.08	288
1764.17	302
1766.26	298
1768.36	282
1770.45	304
1772.54	312
1774.62	296
1776.71	314
1778.8	280
1780.89	308
1782.98	328
1785.06	276
1787.15	310
1789.23	302
1791.32	312
1793.4	330
1795.48	318
1797.56	308
1799.65	284
1801.73	308
1803.81	326
1805.89	326
1807.97	316
1810.04	322
1812.12	308
1814.2	294
1816.28	310
1818.35	304
1820.43	316
1822.5	324
1824.58	322
1826.65	322
1828.72	318
1830.79	316
1832.86	324
1834.94	308
1837.01	316
1839.08	304
1841.15	310
1843.21	308
1845.28	318
1847.35	304
1849.41	286
1851.48	306
1853.55	308
1855.61	272
1857.67	312
1859.74	298
1861.8	316
1863.86	310
1865.92	296
1867.98	294
1870.05	312
1872.1	312
1874.16	302
1876.22	332
1878.28	302
1880.34	308
1882.39	296
1884.45	300
1886.5	324
1888.56	306
1890.61	324
1892.67	306
1894.72	324
1896.77	312
1898.82	326
1900.87	306
1902.92	318
1904.97	330
1907.02	312
1909.07	318
1911.12	342
1913.17	312
1915.21	334
1917.26	312
1919.3	318
1921.35	316
1923.39	338
1925.43	328
1927.48	344
1929.52	308
1931.56	308
1933.6	322
1935.64	338
1937.68	328
1939.72	314
1941.76	334
1943.8	330
1945.83	320
1947.87	322
1949.91	320
1951.94	330
1953.98	300
1956.01	314
1958.05	298
1960.08	328
1962.11	320
1964.14	324
1966.17	318
1968.2	332
1970.23	312
1972.26	316
1974.29	310
1976.32	324
1978.35	322
1980.37	336
1982.4	326
1984.43	336
1986.45	322
1988.48	326
1990.5	326
1992.52	314
1994.55	318
1996.57	314
1998.59	324
2000.61	314
2002.63	318
2004.65	332
2006.67	332
2008.69	334
2010.7	330
2012.72	320
2014.74	316
2016.75	334
2018.77	340
2020.78	328
2022.8	342
2024.81	332
2026.83	314
2028.84	324
2030.85	318
2032.86	330
2034.87	334
2036.88	340
2038.89	342
2040.9	342
2042.91	322
2044.91	340
2046.92	338
2048.93	350
2050.93	356
2052.94	334
2054.94	346
2056.95	326
2058.95	334
2060.95	332
2062.95	350
2064.96	336
2066.96	314
2068.96	336
2070.96	346
2072.96	326
2074.95	332
2076.95	352
2078.95	330
2080.95	352
2082.94	336
2084.94	352
2086.93	336
2088.93	320
2090.92	334
2092.91	342
2094.91	348
2096.9	332
2098.89	356
2100.88	344
2102.87	344
2104.86	346
2106.85	332
2108.84	334
2110.83	332
2112.81	336
2114.8	360
2116.78	332
2118.77	342
2120.75	332
2122.74	348
2124.72	342
2126.71	340
2128.69	342
2130.67	332
2132.65	326
2134.63	340
2136.61	340
2138.59	338
2140.57	346
2142.55	352
2144.53	324
2146.5	320
2148.48	348
2150.46	358
2152.43	344
2154.41	340
2156.38	336
2158.35	344
2160.33	356
2162.3	338
2164.27	350
2166.24	346
2168.21	308
2170.18	322
2172.15	342
2174.12	340
2176.09	338
2178.06	330
2180.03	346
2181.99	346
2183.96	350
2185.92	340
2187.89	352
2189.85	332
2191.82	340
2193.78	326
2195.74	344
2197.7	350
2199.67	336
2201.63	338
2203.59	344
2205.55	344
2207.51	358
2209.46	336
2211.42	364
2213.38	336
2215.34	350
2217.29	364
2219.25	348
2221.2	346
2223.16	346
2225.11	356
2227.06	346
2229.02	364
2230.97	352
2232.92	356
2234.87	362
2236.82	364
2238.77	352
2240.72	344
2242.67	334
2244.62	344
2246.57	346
2248.51	364
2250.46	358
2252.4	354
2254.35	358
2256.29	348
2258.24	328
2260.18	336
2262.13	366
2264.07	354
2266.01	356
2267.95	342
2269.89	362
2271.83	362
2273.77	350
2275.71	346
2277.65	352
2279.58	342
2281.52	348
2283.46	340
2285.4	366
2287.33	356
2289.27	362
2291.2	334
2293.13	372
2295.07	342
2297	340
2298.93	362
2300.86	358
2302.79	360
2304.72	358
2306.65	348
2308.58	372
2310.51	350
2312.44	358
2314.37	360
2316.29	372
2318.22	366
2320.15	336
2322.07	356
2324	348
2325.92	360
2327.84	342
2329.77	362
2331.69	362
2333.61	368
2335.53	330
2337.45	358
2339.37	352
2341.29	358
2343.21	354
2345.13	352
2347.05	368
2348.97	362
2350.88	358
2352.8	346
2354.71	368
2356.63	356
2358.54	356
2360.46	352
2362.37	360
2364.28	354
2366.2	366
2368.11	374
2370.02	350
2371.93	340
2373.84	360
2375.75	364
2377.66	366
2379.57	366
2381.47	358
2383.38	370
2385.29	366
2387.2	370
2389.1	350
2391.01	360
2392.91	360
2394.81	378
2396.72	364
2398.62	366
2400.52	372
2402.42	368
2404.33	370
2406.23	370
2408.13	362
2410.03	376
2411.92	360
2413.82	350
2415.72	342
2417.62	370
2419.51	360
2421.41	342
2423.31	350
2425.2	360
2427.1	346
2428.99	380
2430.88	374
2432.78	366
2434.67	376
2436.56	370
2438.45	338
2440.34	376
2442.23	402
2444.12	374
2446.01	388
2447.9	378
2449.79	394