File: Jesse_Dataset_v2/Pure Raman/Polystyrene/633nm/ps-ppo-7jan25-1,0000-map3_Y05_X03.txt
182.393	1052
184.993	1022
187.593	978
190.193	988
192.79	954
195.387	920
197.983	956
200.578	980
203.174	962
205.766	996
208.36	1008
210.951	1010
213.542	1066
216.131	1040
218.721	1102
221.309	1090
223.897	1038
226.483	1094
229.069	1016
231.654	894
234.238	830
236.821	764
239.404	694
241.984	642
244.566	532
247.145	478
249.723	422
252.302	414
254.878	394
257.455	374
260.03	380
262.604	356
265.178	362
267.75	354
270.322	330
272.893	338
275.463	350
278.032	310
280.601	308
283.168	302
285.734	288
288.301	280
290.866	274
293.429	262
295.992	242
298.556	250
301.117	254
303.677	234
306.236	240
308.795	248
311.354	248
313.911	252
316.467	256
319.022	254
321.577	236
324.13	268
326.684	248
329.236	244
331.787	244
334.337	256
336.887	244
339.435	238
341.983	236
344.529	238
347.075	230
349.621	244
352.165	220
354.708	224
357.251	224
359.793	224
362.334	228
364.874	236
367.413	230
369.951	230
372.489	226
375.026	238
377.562	240
380.097	260
382.631	262
385.164	262
387.697	280
390.229	272
392.76	290
395.29	280
397.819	282
400.346	302
402.873	324
405.4	342
407.926	366
410.451	350
412.976	336
415.499	298
418.02	292
420.542	280
423.063	276
425.583	284
428.101	246
430.619	248
433.137	238
435.654	234
438.169	240
440.684	254
443.198	222
445.712	226
448.223	222
450.735	220
453.246	214
455.755	206
458.264	190
460.771	192
463.279	180
465.786	194
468.291	186
470.796	190
473.301	196
475.803	194
478.306	188
480.807	190
483.308	186
485.807	180
488.307	164
490.804	180
493.302	184
495.798	182
498.294	186
500.788	192
503.283	198
505.775	196
508.269	202
510.759	188
513.251	194
515.74	206
518.23	198
520.718	196
523.204	214
525.692	198
528.177	210
530.663	236
533.147	234
535.629	230
538.113	270
540.594	264
543.074	260
545.555	262
548.034	252
550.512	270
552.989	254
555.467	246
557.942	262
560.417	246
562.892	258
565.365	250
567.838	242
570.309	234
572.78	272
575.251	266
577.72	270
580.189	240
582.656	238
585.123	216
587.589	230
590.055	220
592.52	218
594.983	234
597.446	240
599.908	224
602.369	246
604.829	250
607.289	270
609.747	298
612.205	292
614.663	336
617.119	422
619.574	732
622.029	1118
624.483	990
626.936	552
629.389	346
631.84	278
634.291	254
636.741	234
639.19	212
641.639	194
644.086	210
646.533	192
648.979	184
651.424	184
653.869	184
656.313	182
658.754	170
661.196	178
663.638	182
666.078	178
668.518	178
670.957	176
673.394	194
675.831	182
678.268	160
680.703	186
683.137	174
685.571	178
688.005	174
690.437	178
692.868	184
695.299	198
697.729	200
700.159	210
702.586	230
705.014	236
707.441	242
709.866	226
712.292	232
714.716	240
717.14	210
719.563	236
721.984	262
724.406	318
726.825	332
729.246	294
731.665	276
734.082	296
736.5	306
738.916	362
741.332	376
743.746	400
746.161	418
748.574	404
750.987	424
753.398	438
755.81	458
758.219	476
760.629	490
763.037	510
765.445	476
767.852	450
770.258	442
772.664	416
775.068	458
777.472	418
779.876	446
782.278	446
784.679	484
787.08	586
789.48	620
791.879	622
794.278	670
796.675	718
799.072	662
801.467	620
803.864	576
806.258	482
808.651	436
811.044	440
813.437	388
815.828	386
818.218	346
820.608	306
822.997	290
825.385	272
827.773	286
830.16	286
832.546	268
834.931	286
837.315	318
839.699	366
842.081	382
844.463	392
846.844	386
849.226	356
851.606	342
853.985	308
856.363	316
858.741	316
861.117	302
863.493	314
865.868	322
868.243	320
870.616	320
872.989	308
875.36	298
877.731	302
880.102	288
882.472	282
884.841	286
887.209	306
889.577	276
891.944	322
894.31	296
896.674	296
899.039	316
901.403	344
903.766	354
906.128	376
908.49	386
910.849	370
913.209	342
915.569	310
917.927	290
920.284	294
922.641	272
924.997	274
927.353	266
929.707	260
932.061	260
934.414	264
936.765	276
939.117	270
941.469	276
943.818	270
946.167	290
948.515	290
950.863	282
953.211	280
955.556	268
957.902	302
960.246	296
962.59	312
964.933	334
967.276	320
969.617	334
971.958	332
974.298	350
976.638	356
978.976	426
981.314	452
983.651	534
985.988	640
988.323	782
990.659	1148
992.992	1762
995.325	1922
997.658	2352
999.99	4254
1002.32	6568
1004.65	6108
1006.98	3492
1009.31	1622
1011.64	856
1013.97	590
1016.29	506
1018.62	482
1020.94	534
1023.27	656
1025.59	850
1027.91	1168
1030.24	1676
1032.56	1980
1034.88	1910
1037.2	1398
1039.52	1024
1041.84	710
1044.15	566
1046.47	492
1048.79	446
1051.1	438
1053.42	396
1055.73	408
1058.04	398
1060.36	390
1062.67	408
1064.98	436
1067.29	448
1069.6	442
1071.91	454
1074.22	442
1076.52	412
1078.83	444
1081.14	452
1083.44	426
1085.75	442
1088.05	410
1090.35	444
1092.65	430
1094.95	446
1097.26	462
1099.56	462
1101.86	446
1104.15	418
1106.45	394
1108.75	368
1111.05	354
1113.34	328
1115.64	322
1117.93	332
1120.22	326
1122.52	302
1124.81	282
1127.1	298
1129.39	296
1131.68	270
1133.97	272
1136.26	294
1138.54	308
1140.83	316
1143.12	324
1145.4	380
1147.69	420
1149.97	512
1152.25	658
1154.54	902
1156.82	952
1159.1	892
1161.38	706
1163.66	558
1165.94	524
1168.22	508
1170.49	528
1172.77	542
1175.05	638
1177.32	804
1179.6	958
1181.87	1182
1184.14	1212
1186.42	1132
1188.69	1062
1190.96	1066
1193.23	1126
1195.5	1160
1197.77	1232
1200.03	1200
1202.3	1158
1204.57	1100
1206.83	986
1209.1	810
1211.36	748
1213.63	628
1215.89	544
1218.15	510
1220.41	492
1222.67	472
1224.93	438
1227.19	438
1229.45	450
1231.71	418
1233.97	382
1236.22	398
1238.48	358
1240.73	368
1242.99	368
1245.24	368
1247.5	370
1249.75	348
1252	368
1254.25	348
1256.5	362
1258.75	352
1261	338
1263.25	354
1265.49	344
1267.74	348
1269.99	346
1272.23	332
1274.48	352
1276.72	346
1278.96	342
1281.21	350
1283.45	322
1285.69	342
1287.93	360
1290.17	362
1292.41	376
1294.64	392
1296.88	390
1299.12	412
1301.36	402
1303.59	410
1305.82	432
1308.06	418
1310.29	416
1312.52	424
1314.76	452
1316.99	442
1319.22	458
1321.45	520
1323.68	498
1325.9	540
1328.13	518
1330.36	534
1332.58	530
1334.81	524
1337.04	504
1339.26	464
1341.48	440
1343.71	414
1345.93	390
1348.15	384
1350.37	374
1352.59	362
1354.81	368
1357.03	368
1359.24	374
1361.46	364
1363.68	380
1365.89	394
1368.11	374
1370.32	366
1372.54	364
1374.75	392
1376.96	370
1379.17	370
1381.38	346
1383.59	334
1385.8	308
1388.01	290
1390.22	272
1392.43	270
1394.63	258
1396.84	282
1399.05	262
1401.25	262
1403.45	256
1405.66	276
1407.86	262
1410.06	268
1412.26	250
1414.46	252
1416.66	264
1418.86	254
1421.06	254
1423.26	260
1425.46	280
1427.65	268
1429.85	280
1432.04	302
1434.24	316
1436.43	358
1438.62	406
1440.82	422
1443.01	504
1445.2	530
1447.39	570
1449.58	610
1451.77	594
1453.95	584
1456.14	528
1458.33	456
1460.52	404
1462.7	354
1464.89	314
1467.07	314
1469.25	276
1471.44	264
1473.62	282
1475.8	274
1477.98	266
1480.16	278
1482.34	264
1484.52	284
1486.7	288
1488.87	266
1491.05	282
1493.23	286
1495.4	278
1497.58	300
1499.75	290
1501.92	264
1504.1	244
1506.27	248
1508.44	266
1510.61	260
1512.78	246
1514.95	268
1517.12	262
1519.28	274
1521.45	266
1523.62	256
1525.78	268
1527.95	264
1530.11	266
1532.28	278
1534.44	260
1536.6	272
1538.76	278
1540.93	272
1543.09	286
1545.25	276
1547.41	280
1549.56	294
1551.72	282
1553.88	278
1556.03	284
1558.19	286
1560.35	292
1562.5	292
1564.65	294
1566.81	332
1568.96	346
1571.11	364
1573.26	372
1575.41	416
1577.56	472
1579.71	588
1581.86	770
1584.01	1006
1586.15	912
1588.3	676
1590.45	578
1592.59	580
1594.74	710
1596.88	856
1599.02	1216
1601.17	1678
1603.31	1892
1605.45	1696
1607.59	1310
1609.73	940
1611.87	668
1614.01	546
1616.14	458
1618.28	434
1620.42	390
1622.55	354
1624.69	356
1626.82	342
1628.96	344
1631.09	334
1633.22	294
1635.36	316
1637.49	310
1639.62	324
1641.75	330
1643.88	340
1646	338
1648.13	352
1650.26	358
1652.39	312
1654.51	318
1656.64	296
1658.76	304
1660.89	294
1663.01	294
1665.13	288
1667.26	276
1669.38	282
1671.5	310
1673.62	314
1675.74	272
1677.86	290
1679.97	294
1682.09	310
1684.21	298
1686.33	290
1688.44	280
1690.56	296
1692.67	294
1694.78	300
1696.9	290
1699.01	282
1701.12	286
1703.23	282
1705.34	274
1707.45	270
1709.56	282
1711.67	288
1713.78	282
1715.88	272
1717.99	284
1720.1	296
1722.2	288
1724.31	290
1726.41	288
1728.51	266
1730.62	266
1732.72	256
1734.82	286
1736.92	276
1739.02	286
1741.12	292
1743.22	270
1745.32	270
1747.42	258
1749.51	282
1751.61	274
1753.7	278
1755.8	290
1757.89	282
1759.99	270
1762.08	278
1764.17	286
1766.26	286
1768.36	288
1770.45	284
1772.54	276
1774.62	270
1776.71	270
1778.8	284
1780.89	290
1782.98	292
1785.06	298
1787.15	282
1789.23	284
1791.32	298
1793.4	284
1795.48	288
1797.56	266
1799.65	304
1801.73	278
1803.81	290
1805.89	286
1807.97	296
1810.04	290
1812.12	272
1814.2	302
1816.28	302
1818.35	294
1820.43	290
1822.5	290
1824.58	290
1826.65	290
1828.72	282
1830.79	284
1832.86	310
1834.94	296
1837.01	282
1839.08	270
1841.15	274
1843.21	288
1845.28	288
1847.35	300
1849.41	280
1851.48	296
1853.55	290
1855.61	298
1857.67	288
1859.74	278
1861.8	292
1863.86	294
1865.92	292
1867.98	286
1870.05	300
1872.1	280
1874.16	278
1876.22	298
1878.28	302
1880.34	302
1882.39	304
1884.45	272
1886.5	302
1888.56	296
1890.61	268
1892.67	270
1894.72	284
1896.77	290
1898.82	314
1900.87	292
1902.92	298
1904.97	304
1907.02	300
1909.07	304
1911.12	296
1913.17	304
1915.21	302
1917.26	310
1919.3	286
1921.35	298
1923.39	316
1925.43	310
1927.48	300
1929.52	310
1931.56	312
1933.6	314
1935.64	312
1937.68	312
1939.72	300
1941.76	300
1943.8	308
1945.83	312
1947.87	328
1949.91	324
1951.94	310
1953.98	310
1956.01	318
1958.05	312
1960.08	306
1962.11	300
1964.14	302
1966.17	308
1968.2	294
1970.23	326
1972.26	306
1974.29	294
1976.32	302
1978.35	294
1980.37	306
1982.4	306
1984.43	314
1986.45	312
1988.48	296
1990.5	304
1992.52	302
1994.55	302
1996.57	286
1998.59	310
2000.61	300
2002.63	316
2004.65	308
2006.67	318
2008.69	310
2010.7	310
2012.72	314
2014.74	318
2016.75	300
2018.77	320
2020.78	308
2022.8	312
2024.81	330
2026.83	300
2028.84	310
2030.85	300
2032.86	316
2034.87	308
2036.88	308
2038.89	296
2040.9	320
2042.91	316
2044.91	330
2046.92	316
2048.93	328
2050.93	320
2052.94	322
2054.94	322
2056.95	320
2058.95	314
2060.95	316
2062.95	328
2064.96	310
2066.96	314
2068.96	318
2070.96	302
2072.96	326
2074.95	306
2076.95	320
2078.95	318
2080.95	322
2082.94	316
2084.94	324
2086.93	330
2088.93	308
2090.92	302
2092.91	312
2094.91	322
2096.9	294
2098.89	320
2100.88	304
2102.87	324
2104.86	340
2106.85	326
2108.84	342
2110.83	322
2112.81	326
2114.8	326
2116.78	306
2118.77	340
2120.75	322
2122.74	322
2124.72	336
2126.71	312
2128.69	322
2130.67	320
2132.65	352
2134.63	338
2136.61	328
2138.59	330
2140.57	334
2142.55	326
2144.53	338
2146.5	338
2148.48	320
2150.46	338
2152.43	320
2154.41	326
2156.38	320
2158.35	328
2160.33	334
2162.3	330
2164.27	322
2166.24	348
2168.21	340
2170.18	324
2172.15	326
2174.12	332
2176.09	318
2178.06	316
2180.03	324
2181.99	322
2183.96	328
2185.92	328
2187.89	346
2189.85	344
2191.82	334
2193.78	322
2195.74	318
2197.7	340
2199.67	326
2201.63	338
2203.59	304
2205.55	342
2207.51	352
2209.46	322
2211.42	310
2213.38	320
2215.34	314
2217.29	340
2219.25	342
2221.2	322
2223.16	354
2225.11	342
2227.06	328
2229.02	348
2230.97	336
2232.92	334
2234.87	342
2236.82	336
2238.77	342
2240.72	324
2242.67	328
2244.62	342
2246.57	312
2248.51	358
2250.46	336
2252.4	340
2254.35	340
2256.29	332
2258.24	334
2260.18	354
2262.13	330
2264.07	332
2266.01	318
2267.95	356
2269.89	328
2271.83	330
2273.77	354
2275.71	326
2277.65	318
2279.58	354
2281.52	328
2283.46	346
2285.4	338
2287.33	316
2289.27	360
2291.2	350
2293.13	360
2295.07	338
2297	350
2298.93	340
2300.86	328
2302.79	352
2304.72	354
2306.65	350
2308.58	348
2310.51	344
2312.44	354
2314.37	332
2316.29	350
2318.22	340
2320.15	348
2322.07	334
2324	332
2325.92	326
2327.84	350
2329.77	350
2331.69	348
2333.61	370
2335.53	360
2337.45	358
2339.37	336
2341.29	342
2343.21	368
2345.13	356
2347.05	360
2348.97	352
2350.88	362
2352.8	354
2354.71	382
2356.63	320
2358.54	348
2360.46	352
2362.37	370
2364.28	356
2366.2	366
2368.11	352
2370.02	352
2371.93	356
2373.84	370
2375.75	348
2377.66	362
2379.57	346
2381.47	338
2383.38	348
2385.29	364
2387.2	340
2389.1	344
2391.01	334
2392.91	350
2394.81	352
2396.72	358
2398.62	356
2400.52	356
2402.42	358
2404.33	354
2406.23	344
2408.13	338
2410.03	348
2411.92	354
2413.82	326
2415.72	336
2417.62	340
2419.51	344
2421.41	354
2423.31	354
2425.2	358
2427.1	360
2428.99	338
2430.88	352
2432.78	370
2434.67	330
2436.56	372
2438.45	372
2440.34	352
2442.23	374
2444.12	376
2446.01	352
2447.9	366
2449.79	380