File: Jesse_Dataset_v2/Pure Raman/Polystyrene/633nm/ps-ppo-7jan25-1,0000-map3_Y00_X09.txt
182.393	1038
184.993	986
187.593	994
190.193	964
192.79	936
195.387	916
197.983	904
200.578	930
203.174	966
205.766	928
208.36	1000
210.951	1006
213.542	1058
216.131	1082
218.721	1026
221.309	1074
223.897	1076
226.483	1070
229.069	986
231.654	900
234.238	874
236.821	740
239.404	702
241.984	602
244.566	520
247.145	444
249.723	420
252.302	408
254.878	394
257.455	374
260.03	378
262.604	344
265.178	330
267.75	352
270.322	338
272.893	322
275.463	332
278.032	324
280.601	302
283.168	304
285.734	284
288.301	284
290.866	270
293.429	268
295.992	264
298.556	248
301.117	246
303.677	228
306.236	234
308.795	240
311.354	252
313.911	242
316.467	254
319.022	256
321.577	226
324.13	256
326.684	250
329.236	262
331.787	240
334.337	256
336.887	246
339.435	242
341.983	228
344.529	222
347.075	236
349.621	224
352.165	240
354.708	226
357.251	244
359.793	216
362.334	224
364.874	234
367.413	230
369.951	226
372.489	236
375.026	258
377.562	236
380.097	250
382.631	258
385.164	254
387.697	252
390.229	290
392.76	278
395.29	290
397.819	292
400.346	296
402.873	320
405.4	310
407.926	362
410.451	340
412.976	330
415.499	306
418.02	310
420.542	294
423.063	272
425.583	264
428.101	262
430.619	242
433.137	248
435.654	232
438.169	228
440.684	234
443.198	222
445.712	218
448.223	222
450.735	224
453.246	200
455.755	188
458.264	200
460.771	200
463.279	178
465.786	200
468.291	182
470.796	178
473.301	182
475.803	196
478.306	170
480.807	176
483.308	166
485.807	176
488.307	180
490.804	176
493.302	174
495.798	182
498.294	202
500.788	194
503.283	202
505.775	208
508.269	204
510.759	194
513.251	198
515.74	192
518.23	204
520.718	202
523.204	226
525.692	200
528.177	214
530.663	234
533.147	212
535.629	252
538.113	248
540.594	258
543.074	268
545.555	256
548.034	274
550.512	246
552.989	260
555.467	256
557.942	254
560.417	260
562.892	244
565.365	246
567.838	256
570.309	240
572.78	242
575.251	262
577.72	260
580.189	234
582.656	234
585.123	220
587.589	224
590.055	220
592.52	208
594.983	218
597.446	210
599.908	232
602.369	232
604.829	250
607.289	282
609.747	296
612.205	290
614.663	308
617.119	426
619.574	698
622.029	1090
624.483	1000
626.936	498
629.389	344
631.84	302
634.291	262
636.741	214
639.19	208
641.639	190
644.086	190
646.533	192
648.979	182
651.424	184
653.869	182
656.313	180
658.754	178
661.196	168
663.638	172
666.078	158
668.518	172
670.957	188
673.394	176
675.831	172
678.268	178
680.703	174
683.137	170
685.571	178
688.005	184
690.437	186
692.868	188
695.299	188
697.729	194
700.159	200
702.586	216
705.014	240
707.441	220
709.866	200
712.292	214
714.716	214
717.14	214
719.563	238
721.984	258
724.406	302
726.825	306
729.246	306
731.665	278
734.082	288
736.5	300
738.916	338
741.332	372
743.746	386
746.161	384
748.574	394
750.987	430
753.398	418
755.81	454
758.219	440
760.629	480
763.037	474
765.445	490
767.852	454
770.258	444
772.664	436
775.068	422
777.472	436
779.876	430
782.278	464
784.679	526
787.08	548
789.48	616
791.879	610
794.278	700
796.675	678
799.072	666
801.467	638
803.864	566
806.258	474
808.651	434
811.044	410
813.437	368
815.828	346
818.218	326
820.608	298
822.997	296
825.385	288
827.773	266
830.16	288
832.546	282
834.931	296
837.315	302
839.699	342
842.081	370
844.463	378
846.844	372
849.226	328
851.606	306
853.985	314
856.363	326
858.741	302
861.117	304
863.493	308
865.868	284
868.243	300
870.616	310
872.989	300
875.36	310
877.731	296
880.102	274
882.472	282
884.841	294
887.209	298
889.577	292
891.944	288
894.31	282
896.674	288
899.039	318
901.403	324
903.766	350
906.128	368
908.49	368
910.849	328
913.209	322
915.569	310
917.927	292
920.284	282
922.641	286
924.997	286
927.353	266
929.707	272
932.061	270
934.414	268
936.765	272
939.117	270
941.469	274
943.818	280
946.167	270
948.515	254
950.863	282
953.211	280
955.556	292
957.902	292
960.246	278
962.59	318
964.933	334
967.276	326
969.617	336
971.958	322
974.298	342
976.638	402
978.976	402
981.314	468
983.651	552
985.988	614
988.323	768
990.659	1134
992.992	1730
995.325	1926
997.658	2306
999.99	4226
1002.32	6584
1004.65	6016
1006.98	3382
1009.31	1542
1011.64	818
1013.97	590
1016.29	480
1018.62	482
1020.94	522
1023.27	636
1025.59	814
1027.91	1192
1030.24	1634
1032.56	2006
1034.88	1854
1037.2	1438
1039.52	996
1041.84	724
1044.15	564
1046.47	474
1048.79	460
1051.1	422
1053.42	408
1055.73	386
1058.04	406
1060.36	396
1062.67	430
1064.98	418
1067.29	444
1069.6	434
1071.91	440
1074.22	472
1076.52	438
1078.83	424
1081.14	420
1083.44	410
1085.75	410
1088.05	420
1090.35	418
1092.65	424
1094.95	422
1097.26	458
1099.56	442
1101.86	444
1104.15	422
1106.45	382
1108.75	360
1111.05	372
1113.34	360
1115.64	344
1117.93	340
1120.22	314
1122.52	292
1124.81	308
1127.1	280
1129.39	294
1131.68	284
1133.97	286
1136.26	310
1138.54	314
1140.83	352
1143.12	338
1145.4	364
1147.69	438
1149.97	534
1152.25	666
1154.54	894
1156.82	996
1159.1	892
1161.38	692
1163.66	568
1165.94	536
1168.22	522
1170.49	532
1172.77	536
1175.05	628
1177.32	764
1179.6	996
1181.87	1148
1184.14	1214
1186.42	1124
1188.69	1052
1190.96	1064
1193.23	1128
1195.5	1206
1197.77	1260
1200.03	1234
1202.3	1118
1204.57	1108
1206.83	964
1209.1	874
1211.36	738
1213.63	656
1215.89	554
1218.15	514
1220.41	494
1222.67	488
1224.93	456
1227.19	468
1229.45	466
1231.71	422
1233.97	414
1236.22	420
1238.48	398
1240.73	416
1242.99	388
1245.24	376
1247.5	380
1249.75	348
1252	388
1254.25	380
1256.5	372
1258.75	376
1261	356
1263.25	366
1265.49	388
1267.74	358
1269.99	358
1272.23	340
1274.48	356
1276.72	370
1278.96	356
1281.21	382
1283.45	366
1285.69	390
1287.93	402
1290.17	390
1292.41	408
1294.64	422
1296.88	404
1299.12	402
1301.36	422
1303.59	456
1305.82	428
1308.06	444
1310.29	456
1312.52	466
1314.76	460
1316.99	460
1319.22	502
1321.45	514
1323.68	542
1325.9	546
1328.13	514
1330.36	550
1332.58	538
1334.81	530
1337.04	532
1339.26	486
1341.48	470
1343.71	434
1345.93	402
1348.15	388
1350.37	394
1352.59	404
1354.81	398
1357.03	376
1359.24	380
1361.46	394
1363.68	404
1365.89	382
1368.11	412
1370.32	388
1372.54	376
1374.75	394
1376.96	394
1379.17	376
1381.38	366
1383.59	342
1385.8	362
1388.01	314
1390.22	292
1392.43	290
1394.63	296
1396.84	304
1399.05	288
1401.25	298
1403.45	286
1405.66	302
1407.86	298
1410.06	292
1412.26	298
1414.46	284
1416.66	286
1418.86	286
1421.06	276
1423.26	284
1425.46	306
1427.65	308
1429.85	308
1432.04	332
1434.24	348
1436.43	382
1438.62	404
1440.82	464
1443.01	468
1445.2	558
1447.39	588
1449.58	622
1451.77	602
1453.95	604
1456.14	552
1458.33	484
1460.52	402
1462.7	364
1464.89	344
1467.07	304
1469.25	308
1471.44	298
1473.62	298
1475.8	302
1477.98	280
1480.16	290
1482.34	304
1484.52	302
1486.7	292
1488.87	298
1491.05	296
1493.23	310
1495.4	322
1497.58	306
1499.75	294
1501.92	292
1504.1	282
1506.27	278
1508.44	298
1510.61	274
1512.78	274
1514.95	304
1517.12	276
1519.28	290
1521.45	282
1523.62	270
1525.78	320
1527.95	308
1530.11	308
1532.28	304
1534.44	300
1536.6	284
1538.76	294
1540.93	302
1543.09	308
1545.25	298
1547.41	300
1549.56	306
1551.72	296
1553.88	318
1556.03	316
1558.19	332
1560.35	322
1562.5	326
1564.65	340
1566.81	350
1568.96	348
1571.11	378
1573.26	388
1575.41	440
1577.56	474
1579.71	598
1581.86	786
1584.01	1004
1586.15	904
1588.3	692
1590.45	624
1592.59	618
1594.74	690
1596.88	890
1599.02	1240
1601.17	1676
1603.31	1912
1605.45	1752
1607.59	1342
1609.73	946
1611.87	676
1614.01	578
1616.14	510
1618.28	450
1620.42	428
1622.55	368
1624.69	378
1626.82	372
1628.96	350
1631.09	352
1633.22	352
1635.36	342
1637.49	344
1639.62	330
1641.75	322
1643.88	352
1646	354
1648.13	384
1650.26	370
1652.39	358
1654.51	334
1656.64	336
1658.76	320
1660.89	324
1663.01	322
1665.13	300
1667.26	310
1669.38	312
1671.5	310
1673.62	320
1675.74	316
1677.86	330
1679.97	316
1682.09	320
1684.21	322
1686.33	316
1688.44	286
1690.56	298
1692.67	310
1694.78	318
1696.9	298
1699.01	324
1701.12	306
1703.23	304
1705.34	310
1707.45	312
1709.56	316
1711.67	308
1713.78	316
1715.88	302
1717.99	302
1720.1	312
1722.2	292
1724.31	300
1726.41	308
1728.51	306
1730.62	304
1732.72	310
1734.82	306
1736.92	290
1739.02	312
1741.12	318
1743.22	306
1745.32	314
1747.42	314
1749.51	302
1751.61	314
1753.7	278
1755.8	312
1757.89	316
1759.99	288
1762.08	318
1764.17	296
1766.26	310
1768.36	312
1770.45	308
1772.54	312
1774.62	336
1776.71	318
1778.8	318
1780.89	290
1782.98	308
1785.06	322
1787.15	312
1789.23	320
1791.32	310
1793.4	318
1795.48	326
1797.56	308
1799.65	316
1801.73	324
1803.81	322
1805.89	312
1807.97	324
1810.04	298
1812.12	324
1814.2	320
1816.28	312
1818.35	318
1820.43	342
1822.5	326
1824.58	320
1826.65	330
1828.72	328
1830.79	312
1832.86	314
1834.94	320
1837.01	338
1839.08	322
1841.15	328
1843.21	310
1845.28	314
1847.35	320
1849.41	308
1851.48	328
1853.55	304
1855.61	308
1857.67	330
1859.74	340
1861.8	314
1863.86	326
1865.92	322
1867.98	312
1870.05	324
1872.1	330
1874.16	328
1876.22	314
1878.28	318
1880.34	342
1882.39	320
1884.45	312
1886.5	330
1888.56	324
1890.61	330
1892.67	320
1894.72	346
1896.77	330
1898.82	340
1900.87	330
1902.92	338
1904.97	338
1907.02	334
1909.07	338
1911.12	318
1913.17	328
1915.21	330
1917.26	342
1919.3	344
1921.35	340
1923.39	334
1925.43	352
1927.48	320
1929.52	344
1931.56	330
1933.6	328
1935.64	334
1937.68	360
1939.72	326
1941.76	348
1943.8	332
1945.83	332
1947.87	338
1949.91	348
1951.94	346
1953.98	302
1956.01	346
1958.05	334
1960.08	344
1962.11	342
1964.14	336
1966.17	350
1968.2	328
1970.23	340
1972.26	334
1974.29	342
1976.32	350
1978.35	334
1980.37	328
1982.4	356
1984.43	312
1986.45	312
1988.48	336
1990.5	334
1992.52	318
1994.55	334
1996.57	328
1998.59	328
2000.61	336
2002.63	344
2004.65	346
2006.67	352
2008.69	332
2010.7	352
2012.72	346
2014.74	328
2016.75	360
2018.77	350
2020.78	338
2022.8	346
2024.81	342
2026.83	342
2028.84	362
2030.85	366
2032.86	348
2034.87	354
2036.88	346
2038.89	330
2040.9	350
2042.91	342
2044.91	338
2046.92	328
2048.93	336
2050.93	350
2052.94	336
2054.94	336
2056.95	346
2058.95	342
2060.95	360
2062.95	364
2064.96	352
2066.96	360
2068.96	330
2070.96	340
2072.96	360
2074.95	352
2076.95	348
2078.95	332
2080.95	338
2082.94	344
2084.94	348
2086.93	348
2088.93	358
2090.92	362
2092.91	350
2094.91	348
2096.9	332
2098.89	348
2100.88	348
2102.87	350
2104.86	350
2106.85	340
2108.84	362
2110.83	360
2112.81	356
2114.8	332
2116.78	334
2118.77	364
2120.75	344
2122.74	350
2124.72	360
2126.71	362
2128.69	368
2130.67	348
2132.65	356
2134.63	346
2136.61	350
2138.59	358
2140.57	322
2142.55	354
2144.53	358
2146.5	358
2148.48	356
2150.46	368
2152.43	360
2154.41	360
2156.38	344
2158.35	358
2160.33	360
2162.3	338
2164.27	360
2166.24	344
2168.21	360
2170.18	372
2172.15	346
2174.12	352
2176.09	358
2178.06	348
2180.03	344
2181.99	344
2183.96	378
2185.92	352
2187.89	362
2189.85	352
2191.82	358
2193.78	344
2195.74	346
2197.7	332
2199.67	360
2201.63	360
2203.59	364
2205.55	346
2207.51	362
2209.46	350
2211.42	372
2213.38	348
2215.34	350
2217.29	362
2219.25	362
2221.2	352
2223.16	326
2225.11	370
2227.06	342
2229.02	342
2230.97	354
2232.92	362
2234.87	376
2236.82	360
2238.77	336
2240.72	372
2242.67	366
2244.62	356
2246.57	358
2248.51	356
2250.46	356
2252.4	376
2254.35	366
2256.29	356
2258.24	352
2260.18	356
2262.13	336
2264.07	354
2266.01	372
2267.95	364
2269.89	364
2271.83	346
2273.77	360
2275.71	354
2277.65	360
2279.58	370
2281.52	354
2283.46	360
2285.4	374
2287.33	366
2289.27	376
2291.2	364
2293.13	364
2295.07	364
2297	364
2298.93	366
2300.86	344
2302.79	358
2304.72	358
2306.65	370
2308.58	382
2310.51	372
2312.44	366
2314.37	356
2316.29	346
2318.22	380
2320.15	350
2322.07	360
2324	368
2325.92	358
2327.84	370
2329.77	352
2331.69	368
2333.61	356
2335.53	368
2337.45	348
2339.37	356
2341.29	380
2343.21	366
2345.13	344
2347.05	372
2348.97	370
2350.88	366
2352.8	352
2354.71	390
2356.63	386
2358.54	378
2360.46	362
2362.37	366
2364.28	354
2366.2	382
2368.11	368
2370.02	362
2371.93	372
2373.84	374
2375.75	370
2377.66	360
2379.57	358
2381.47	374
2383.38	386
2385.29	366
2387.2	338
2389.1	354
2391.01	370
2392.91	350
2394.81	354
2396.72	356
2398.62	362
2400.52	370
2402.42	386
2404.33	354
2406.23	378
2408.13	352
2410.03	366
2411.92	386
2413.82	392
2415.72	360
2417.62	380
2419.51	366
2421.41	402
2423.31	370
2425.2	376
2427.1	376
2428.99	386
2430.88	370
2432.78	372
2434.67	396
2436.56	384
2438.45	396
2440.34	372
2442.23	356
2444.12	358
2446.01	390
2447.9	400
2449.79	410