File: Jesse_Dataset_v2/Pure Raman/Polystyrene/633nm/ps-ppo-7jan25-1,0000-map3_Y07_X05.txt
182.393	1114
184.993	1092
187.593	1086
190.193	1058
192.79	1056
195.387	1018
197.983	1040
200.578	1032
203.174	1052
205.766	1082
208.36	1104
210.951	1140
213.542	1172
216.131	1156
218.721	1178
221.309	1180
223.897	1136
226.483	1148
229.069	1052
231.654	990
234.238	962
236.821	862
239.404	786
241.984	668
244.566	630
247.145	544
249.723	520
252.302	504
254.878	474
257.455	472
260.03	446
262.604	432
265.178	452
267.75	432
270.322	420
272.893	438
275.463	400
278.032	416
280.601	390
283.168	380
285.734	374
288.301	374
290.866	348
293.429	350
295.992	340
298.556	324
301.117	318
303.677	330
306.236	324
308.795	324
311.354	324
313.911	332
316.467	344
319.022	332
321.577	346
324.13	332
326.684	332
329.236	326
331.787	326
334.337	326
336.887	326
339.435	312
341.983	306
344.529	310
347.075	326
349.621	308
352.165	304
354.708	294
357.251	310
359.793	292
362.334	292
364.874	286
367.413	280
369.951	288
372.489	302
375.026	306
377.562	302
380.097	320
382.631	300
385.164	342
387.697	338
390.229	356
392.76	358
395.29	342
397.819	352
400.346	350
402.873	398
405.4	402
407.926	410
410.451	408
412.976	400
415.499	392
418.02	368
420.542	352
423.063	332
425.583	302
428.101	312
430.619	298
433.137	298
435.654	304
438.169	290
440.684	278
443.198	278
445.712	284
448.223	286
450.735	254
453.246	268
455.755	238
458.264	260
460.771	252
463.279	262
465.786	240
468.291	242
470.796	274
473.301	226
475.803	264
478.306	238
480.807	252
483.308	248
485.807	236
488.307	242
490.804	238
493.302	234
495.798	234
498.294	244
500.788	274
503.283	274
505.775	260
508.269	264
510.759	254
513.251	250
515.74	274
518.23	258
520.718	272
523.204	264
525.692	268
528.177	274
530.663	272
533.147	282
535.629	298
538.113	316
540.594	334
543.074	332
545.555	332
548.034	310
550.512	322
552.989	310
555.467	316
557.942	316
560.417	300
562.892	310
565.365	318
567.838	310
570.309	296
572.78	306
575.251	310
577.72	310
580.189	298
582.656	280
585.123	276
587.589	262
590.055	276
592.52	270
594.983	258
597.446	270
599.908	260
602.369	290
604.829	274
607.289	306
609.747	334
612.205	336
614.663	362
617.119	472
619.574	784
622.029	1202
624.483	1016
626.936	604
629.389	404
631.84	326
634.291	294
636.741	266
639.19	254
641.639	248
644.086	242
646.533	234
648.979	234
651.424	238
653.869	244
656.313	230
658.754	250
661.196	238
663.638	232
666.078	244
668.518	216
670.957	230
673.394	200
675.831	212
678.268	232
680.703	208
683.137	210
685.571	220
688.005	224
690.437	218
692.868	236
695.299	224
697.729	232
700.159	258
702.586	280
705.014	262
707.441	274
709.866	270
712.292	258
714.716	270
717.14	276
719.563	292
721.984	302
724.406	360
726.825	360
729.246	356
731.665	334
734.082	332
736.5	356
738.916	414
741.332	456
743.746	446
746.161	442
748.574	460
750.987	466
753.398	464
755.81	498
758.219	534
760.629	548
763.037	548
765.445	516
767.852	540
770.258	494
772.664	490
775.068	470
777.472	478
779.876	482
782.278	476
784.679	562
787.08	608
789.48	670
791.879	698
794.278	742
796.675	764
799.072	750
801.467	708
803.864	622
806.258	532
808.651	462
811.044	432
813.437	450
815.828	406
818.218	374
820.608	344
822.997	358
825.385	332
827.773	326
830.16	334
832.546	336
834.931	378
837.315	370
839.699	422
842.081	428
844.463	438
846.844	424
849.226	398
851.606	390
853.985	390
856.363	388
858.741	348
861.117	374
863.493	376
865.868	374
868.243	358
870.616	372
872.989	370
875.36	386
877.731	368
880.102	348
882.472	358
884.841	358
887.209	346
889.577	344
891.944	360
894.31	352
896.674	378
899.039	366
901.403	378
903.766	418
906.128	434
908.49	432
910.849	422
913.209	408
915.569	384
917.927	356
920.284	360
922.641	366
924.997	346
927.353	302
929.707	326
932.061	332
934.414	340
936.765	332
939.117	356
941.469	350
943.818	354
946.167	356
948.515	340
950.863	340
953.211	344
955.556	338
957.902	376
960.246	368
962.59	378
964.933	406
967.276	406
969.617	414
971.958	424
974.298	436
976.638	464
978.976	490
981.314	546
983.651	644
985.988	708
988.323	850
990.659	1284
992.992	1814
995.325	1994
997.658	2374
999.99	4342
1002.32	6636
1004.65	6198
1006.98	3442
1009.31	1620
1011.64	922
1013.97	658
1016.29	578
1018.62	546
1020.94	600
1023.27	702
1025.59	950
1027.91	1266
1030.24	1778
1032.56	2044
1034.88	1932
1037.2	1516
1039.52	1082
1041.84	796
1044.15	684
1046.47	580
1048.79	556
1051.1	514
1053.42	498
1055.73	490
1058.04	502
1060.36	504
1062.67	502
1064.98	496
1067.29	550
1069.6	540
1071.91	566
1074.22	554
1076.52	528
1078.83	546
1081.14	544
1083.44	546
1085.75	528
1088.05	514
1090.35	518
1092.65	526
1094.95	530
1097.26	544
1099.56	548
1101.86	524
1104.15	502
1106.45	510
1108.75	450
1111.05	470
1113.34	444
1115.64	436
1117.93	426
1120.22	412
1122.52	404
1124.81	390
1127.1	390
1129.39	364
1131.68	406
1133.97	374
1136.26	400
1138.54	394
1140.83	424
1143.12	440
1145.4	470
1147.69	520
1149.97	608
1152.25	790
1154.54	974
1156.82	1092
1159.1	994
1161.38	822
1163.66	700
1165.94	608
1168.22	594
1170.49	638
1172.77	662
1175.05	736
1177.32	896
1179.6	1086
1181.87	1316
1184.14	1324
1186.42	1216
1188.69	1128
1190.96	1176
1193.23	1272
1195.5	1292
1197.77	1344
1200.03	1310
1202.3	1288
1204.57	1174
1206.83	1100
1209.1	960
1211.36	826
1213.63	730
1215.89	652
1218.15	616
1220.41	610
1222.67	564
1224.93	592
1227.19	558
1229.45	542
1231.71	502
1233.97	504
1236.22	494
1238.48	478
1240.73	504
1242.99	476
1245.24	468
1247.5	488
1249.75	472
1252	464
1254.25	450
1256.5	474
1258.75	454
1261	448
1263.25	464
1265.49	472
1267.74	442
1269.99	434
1272.23	450
1274.48	432
1276.72	440
1278.96	436
1281.21	460
1283.45	450
1285.69	486
1287.93	438
1290.17	468
1292.41	504
1294.64	510
1296.88	510
1299.12	496
1301.36	520
1303.59	518
1305.82	544
1308.06	528
1310.29	530
1312.52	532
1314.76	534
1316.99	584
1319.22	558
1321.45	612
1323.68	618
1325.9	644
1328.13	638
1330.36	654
1332.58	632
1334.81	646
1337.04	604
1339.26	568
1341.48	542
1343.71	558
1345.93	496
1348.15	510
1350.37	492
1352.59	480
1354.81	484
1357.03	446
1359.24	498
1361.46	484
1363.68	498
1365.89	486
1368.11	478
1370.32	474
1372.54	486
1374.75	482
1376.96	482
1379.17	490
1381.38	470
1383.59	448
1385.8	436
1388.01	412
1390.22	394
1392.43	386
1394.63	382
1396.84	412
1399.05	384
1401.25	382
1403.45	380
1405.66	388
1407.86	400
1410.06	384
1412.26	396
1414.46	372
1416.66	356
1418.86	376
1421.06	370
1423.26	370
1425.46	376
1427.65	396
1429.85	404
1432.04	412
1434.24	424
1436.43	472
1438.62	506
1440.82	580
1443.01	612
1445.2	652
1447.39	686
1449.58	692
1451.77	724
1453.95	730
1456.14	660
1458.33	580
1460.52	494
1462.7	462
1464.89	422
1467.07	404
1469.25	388
1471.44	400
1473.62	392
1475.8	390
1477.98	388
1480.16	374
1482.34	392
1484.52	394
1486.7	382
1488.87	378
1491.05	380
1493.23	394
1495.4	404
1497.58	374
1499.75	396
1501.92	380
1504.1	382
1506.27	364
1508.44	384
1510.61	382
1512.78	388
1514.95	356
1517.12	384
1519.28	368
1521.45	382
1523.62	376
1525.78	378
1527.95	380
1530.11	382
1532.28	380
1534.44	374
1536.6	370
1538.76	376
1540.93	398
1543.09	366
1545.25	362
1547.41	382
1549.56	392
1551.72	394
1553.88	398
1556.03	386
1558.19	402
1560.35	396
1562.5	396
1564.65	422
1566.81	396
1568.96	434
1571.11	464
1573.26	460
1575.41	506
1577.56	580
1579.71	684
1581.86	892
1584.01	1094
1586.15	1000
1588.3	824
1590.45	690
1592.59	682
1594.74	794
1596.88	950
1599.02	1306
1601.17	1820
1603.31	1944
1605.45	1806
1607.59	1376
1609.73	1004
1611.87	770
1614.01	646
1616.14	552
1618.28	504
1620.42	476
1622.55	480
1624.69	444
1626.82	430
1628.96	422
1631.09	404
1633.22	394
1635.36	436
1637.49	396
1639.62	412
1641.75	410
1643.88	406
1646	438
1648.13	428
1650.26	418
1652.39	418
1654.51	396
1656.64	394
1658.76	380
1660.89	380
1663.01	366
1665.13	382
1667.26	388
1669.38	346
1671.5	362
1673.62	372
1675.74	376
1677.86	370
1679.97	374
1682.09	362
1684.21	362
1686.33	382
1688.44	366
1690.56	366
1692.67	370
1694.78	362
1696.9	366
1699.01	326
1701.12	356
1703.23	352
1705.34	338
1707.45	356
1709.56	358
1711.67	316
1713.78	368
1715.88	336
1717.99	364
1720.1	324
1722.2	334
1724.31	338
1726.41	344
1728.51	354
1730.62	326
1732.72	348
1734.82	348
1736.92	328
1739.02	350
1741.12	358
1743.22	360
1745.32	328
1747.42	342
1749.51	352
1751.61	342
1753.7	324
1755.8	348
1757.89	342
1759.99	336
1762.08	326
1764.17	322
1766.26	344
1768.36	332
1770.45	330
1772.54	364
1774.62	340
1776.71	336
1778.8	336
1780.89	360
1782.98	334
1785.06	358
1787.15	336
1789.23	340
1791.32	348
1793.4	340
1795.48	328
1797.56	348
1799.65	334
1801.73	364
1803.81	338
1805.89	342
1807.97	330
1810.04	346
1812.12	310
1814.2	334
1816.28	342
1818.35	352
1820.43	334
1822.5	330
1824.58	342
1826.65	330
1828.72	330
1830.79	338
1832.86	340
1834.94	352
1837.01	344
1839.08	342
1841.15	338
1843.21	350
1845.28	336
1847.35	336
1849.41	342
1851.48	342
1853.55	348
1855.61	340
1857.67	332
1859.74	338
1861.8	334
1863.86	340
1865.92	332
1867.98	330
1870.05	330
1872.1	318
1874.16	336
1876.22	344
1878.28	324
1880.34	352
1882.39	334
1884.45	326
1886.5	340
1888.56	336
1890.61	328
1892.67	344
1894.72	334
1896.77	336
1898.82	340
1900.87	344
1902.92	328
1904.97	338
1907.02	336
1909.07	350
1911.12	346
1913.17	346
1915.21	342
1917.26	344
1919.3	356
1921.35	334
1923.39	354
1925.43	338
1927.48	356
1929.52	344
1931.56	344
1933.6	330
1935.64	352
1937.68	336
1939.72	344
1941.76	356
1943.8	318
1945.83	364
1947.87	350
1949.91	344
1951.94	332
1953.98	340
1956.01	346
1958.05	342
1960.08	360
1962.11	338
1964.14	356
1966.17	326
1968.2	330
1970.23	342
1972.26	336
1974.29	336
1976.32	340
1978.35	338
1980.37	326
1982.4	332
1984.43	328
1986.45	340
1988.48	336
1990.5	340
1992.52	346
1994.55	330
1996.57	338
1998.59	362
2000.61	322
2002.63	332
2004.65	324
2006.67	334
2008.69	326
2010.7	338
2012.72	324
2014.74	336
2016.75	346
2018.77	340
2020.78	358
2022.8	330
2024.81	340
2026.83	346
2028.84	358
2030.85	356
2032.86	342
2034.87	322
2036.88	330
2038.89	330
2040.9	342
2042.91	352
2044.91	344
2046.92	346
2048.93	356
2050.93	336
2052.94	362
2054.94	330
2056.95	338
2058.95	336
2060.95	328
2062.95	332
2064.96	342
2066.96	338
2068.96	358
2070.96	344
2072.96	348
2074.95	350
2076.95	326
2078.95	342
2080.95	344
2082.94	350
2084.94	350
2086.93	350
2088.93	354
2090.92	340
2092.91	350
2094.91	328
2096.9	354
2098.89	336
2100.88	332
2102.87	334
2104.86	350
2106.85	340
2108.84	358
2110.83	350
2112.81	346
2114.8	346
2116.78	344
2118.77	354
2120.75	350
2122.74	346
2124.72	334
2126.71	346
2128.69	342
2130.67	346
2132.65	344
2134.63	352
2136.61	362
2138.59	342
2140.57	350
2142.55	360
2144.53	314
2146.5	334
2148.48	372
2150.46	340
2152.43	358
2154.41	332
2156.38	342
2158.35	354
2160.33	348
2162.3	372
2164.27	336
2166.24	328
2168.21	352
2170.18	344
2172.15	356
2174.12	330
2176.09	332
2178.06	348
2180.03	350
2181.99	362
2183.96	350
2185.92	344
2187.89	350
2189.85	340
2191.82	336
2193.78	350
2195.74	352
2197.7	364
2199.67	348
2201.63	344
2203.59	350
2205.55	364
2207.51	342
2209.46	364
2211.42	354
2213.38	360
2215.34	356
2217.29	342
2219.25	328
2221.2	346
2223.16	356
2225.11	372
2227.06	354
2229.02	366
2230.97	342
2232.92	354
2234.87	356
2236.82	358
2238.77	348
2240.72	354
2242.67	352
2244.62	336
2246.57	362
2248.51	352
2250.46	350
2252.4	334
2254.35	354
2256.29	352
2258.24	352
2260.18	352
2262.13	346
2264.07	356
2266.01	364
2267.95	352
2269.89	350
2271.83	326
2273.77	356
2275.71	344
2277.65	358
2279.58	362
2281.52	352
2283.46	366
2285.4	330
2287.33	362
2289.27	354
2291.2	356
2293.13	366
2295.07	370
2297	352
2298.93	352
2300.86	364
2302.79	354
2304.72	374
2306.65	362
2308.58	368
2310.51	364
2312.44	366
2314.37	332
2316.29	366
2318.22	366
2320.15	368
2322.07	354
2324	346
2325.92	350
2327.84	382
2329.77	346
2331.69	350
2333.61	368
2335.53	350
2337.45	360
2339.37	368
2341.29	370
2343.21	352
2345.13	366
2347.05	372
2348.97	360
2350.88	370
2352.8	360
2354.71	366
2356.63	364
2358.54	368
2360.46	362
2362.37	378
2364.28	346
2366.2	354
2368.11	364
2370.02	358
2371.93	350
2373.84	364
2375.75	366
2377.66	348
2379.57	356
2381.47	362
2383.38	358
2385.29	376
2387.2	372
2389.1	364
2391.01	362
2392.91	364
2394.81	382
2396.72	352
2398.62	366
2400.52	356
2402.42	364
2404.33	360
2406.23	376
2408.13	354
2410.03	362
2411.92	366
2413.82	362
2415.72	380
2417.62	350
2419.51	358
2421.41	362
2423.31	380
2425.2	366
2427.1	388
2428.99	376
2430.88	384
2432.78	378
2434.67	382
2436.56	380
2438.45	370
2440.34	382
2442.23	374
2444.12	392
2446.01	388
2447.9	376
2449.79	370