File: Jesse_Dataset_v2/Pure Raman/Polystyrene/633nm/ps-ppo-7jan25-1,0000-map3_Y06_X05.txt
182.393	1068
184.993	1022
187.593	982
190.193	978
192.79	906
195.387	938
197.983	960
200.578	960
203.174	948
205.766	982
208.36	996
210.951	1040
213.542	1026
216.131	1100
218.721	1128
221.309	1084
223.897	1068
226.483	1060
229.069	982
231.654	926
234.238	836
236.821	756
239.404	710
241.984	588
244.566	538
247.145	492
249.723	456
252.302	418
254.878	392
257.455	398
260.03	374
262.604	378
265.178	354
267.75	368
270.322	356
272.893	324
275.463	334
278.032	342
280.601	314
283.168	322
285.734	302
288.301	310
290.866	284
293.429	280
295.992	270
298.556	256
301.117	252
303.677	240
306.236	250
308.795	260
311.354	244
313.911	246
316.467	236
319.022	248
321.577	268
324.13	238
326.684	264
329.236	260
331.787	242
334.337	252
336.887	248
339.435	262
341.983	242
344.529	242
347.075	240
349.621	238
352.165	246
354.708	246
357.251	216
359.793	222
362.334	234
364.874	242
367.413	242
369.951	240
372.489	262
375.026	240
377.562	262
380.097	250
382.631	240
385.164	272
387.697	270
390.229	284
392.76	306
395.29	286
397.819	312
400.346	302
402.873	300
405.4	368
407.926	354
410.451	360
412.976	340
415.499	320
418.02	286
420.542	294
423.063	276
425.583	278
428.101	248
430.619	260
433.137	256
435.654	234
438.169	240
440.684	222
443.198	228
445.712	236
448.223	224
450.735	216
453.246	208
455.755	200
458.264	190
460.771	210
463.279	190
465.786	200
468.291	188
470.796	198
473.301	188
475.803	204
478.306	196
480.807	174
483.308	188
485.807	206
488.307	176
490.804	184
493.302	194
495.798	200
498.294	208
500.788	208
503.283	208
505.775	204
508.269	224
510.759	204
513.251	196
515.74	210
518.23	220
520.718	236
523.204	210
525.692	218
528.177	232
530.663	234
533.147	238
535.629	248
538.113	262
540.594	268
543.074	278
545.555	274
548.034	274
550.512	282
552.989	266
555.467	250
557.942	242
560.417	252
562.892	250
565.365	270
567.838	258
570.309	274
572.78	276
575.251	252
577.72	266
580.189	268
582.656	250
585.123	226
587.589	244
590.055	210
592.52	226
594.983	220
597.446	222
599.908	230
602.369	246
604.829	256
607.289	278
609.747	272
612.205	290
614.663	330
617.119	450
619.574	720
622.029	1086
624.483	1008
626.936	544
629.389	360
631.84	292
634.291	266
636.741	248
639.19	220
641.639	222
644.086	212
646.533	192
648.979	198
651.424	186
653.869	170
656.313	212
658.754	184
661.196	188
663.638	194
666.078	200
668.518	182
670.957	182
673.394	190
675.831	176
678.268	188
680.703	182
683.137	194
685.571	192
688.005	190
690.437	194
692.868	214
695.299	184
697.729	194
700.159	210
702.586	218
705.014	248
707.441	228
709.866	230
712.292	214
714.716	226
717.14	246
719.563	250
721.984	284
724.406	318
726.825	338
729.246	330
731.665	286
734.082	286
736.5	308
738.916	352
741.332	384
743.746	392
746.161	400
748.574	424
750.987	406
753.398	448
755.81	476
758.219	474
760.629	502
763.037	494
765.445	462
767.852	472
770.258	462
772.664	442
775.068	434
777.472	442
779.876	428
782.278	478
784.679	530
787.08	570
789.48	640
791.879	650
794.278	710
796.675	724
799.072	714
801.467	642
803.864	574
806.258	470
808.651	448
811.044	408
813.437	388
815.828	366
818.218	336
820.608	330
822.997	310
825.385	288
827.773	294
830.16	286
832.546	276
834.931	308
837.315	348
839.699	342
842.081	394
844.463	384
846.844	360
849.226	374
851.606	324
853.985	352
856.363	320
858.741	314
861.117	318
863.493	316
865.868	322
868.243	318
870.616	306
872.989	332
875.36	322
877.731	316
880.102	296
882.472	330
884.841	312
887.209	284
889.577	306
891.944	288
894.31	308
896.674	318
899.039	314
901.403	332
903.766	336
906.128	392
908.49	370
910.849	368
913.209	332
915.569	324
917.927	324
920.284	284
922.641	290
924.997	274
927.353	298
929.707	250
932.061	280
934.414	282
936.765	266
939.117	290
941.469	266
943.818	264
946.167	288
948.515	276
950.863	290
953.211	304
955.556	310
957.902	292
960.246	326
962.59	316
964.933	356
967.276	338
969.617	340
971.958	342
974.298	342
976.638	374
978.976	418
981.314	466
983.651	518
985.988	632
988.323	792
990.659	1182
992.992	1708
995.325	1930
997.658	2344
999.99	4192
1002.32	6490
1004.65	6044
1006.98	3392
1009.31	1596
1011.64	848
1013.97	594
1016.29	516
1018.62	474
1020.94	540
1023.27	636
1025.59	872
1027.91	1164
1030.24	1642
1032.56	2024
1034.88	1890
1037.2	1456
1039.52	990
1041.84	720
1044.15	586
1046.47	512
1048.79	448
1051.1	404
1053.42	416
1055.73	394
1058.04	408
1060.36	400
1062.67	426
1064.98	418
1067.29	462
1069.6	438
1071.91	472
1074.22	456
1076.52	450
1078.83	418
1081.14	432
1083.44	438
1085.75	420
1088.05	414
1090.35	438
1092.65	452
1094.95	438
1097.26	430
1099.56	452
1101.86	436
1104.15	402
1106.45	406
1108.75	396
1111.05	360
1113.34	372
1115.64	332
1117.93	332
1120.22	308
1122.52	320
1124.81	302
1127.1	274
1129.39	280
1131.68	264
1133.97	278
1136.26	302
1138.54	300
1140.83	326
1143.12	328
1145.4	398
1147.69	438
1149.97	502
1152.25	654
1154.54	884
1156.82	1006
1159.1	902
1161.38	724
1163.66	566
1165.94	546
1168.22	502
1170.49	532
1172.77	550
1175.05	638
1177.32	778
1179.6	1006
1181.87	1192
1184.14	1212
1186.42	1148
1188.69	1022
1190.96	1072
1193.23	1170
1195.5	1144
1197.77	1240
1200.03	1212
1202.3	1154
1204.57	1086
1206.83	946
1209.1	832
1211.36	746
1213.63	630
1215.89	550
1218.15	512
1220.41	490
1222.67	482
1224.93	478
1227.19	444
1229.45	436
1231.71	410
1233.97	396
1236.22	396
1238.48	382
1240.73	390
1242.99	362
1245.24	380
1247.5	372
1249.75	372
1252	364
1254.25	348
1256.5	360
1258.75	376
1261	358
1263.25	348
1265.49	368
1267.74	362
1269.99	372
1272.23	362
1274.48	364
1276.72	360
1278.96	340
1281.21	360
1283.45	344
1285.69	352
1287.93	354
1290.17	382
1292.41	386
1294.64	408
1296.88	408
1299.12	410
1301.36	412
1303.59	424
1305.82	430
1308.06	430
1310.29	414
1312.52	442
1314.76	438
1316.99	462
1319.22	504
1321.45	498
1323.68	520
1325.9	550
1328.13	538
1330.36	542
1332.58	512
1334.81	522
1337.04	478
1339.26	472
1341.48	452
1343.71	434
1345.93	406
1348.15	382
1350.37	398
1352.59	380
1354.81	392
1357.03	378
1359.24	388
1361.46	386
1363.68	372
1365.89	384
1368.11	392
1370.32	362
1372.54	402
1374.75	392
1376.96	366
1379.17	376
1381.38	348
1383.59	340
1385.8	316
1388.01	302
1390.22	316
1392.43	260
1394.63	270
1396.84	298
1399.05	258
1401.25	270
1403.45	302
1405.66	282
1407.86	276
1410.06	302
1412.26	274
1414.46	288
1416.66	262
1418.86	254
1421.06	268
1423.26	276
1425.46	284
1427.65	254
1429.85	274
1432.04	306
1434.24	342
1436.43	364
1438.62	402
1440.82	456
1443.01	496
1445.2	548
1447.39	590
1449.58	598
1451.77	614
1453.95	590
1456.14	532
1458.33	442
1460.52	372
1462.7	346
1464.89	306
1467.07	322
1469.25	294
1471.44	288
1473.62	290
1475.8	290
1477.98	270
1480.16	306
1482.34	276
1484.52	270
1486.7	280
1488.87	282
1491.05	272
1493.23	282
1495.4	318
1497.58	306
1499.75	282
1501.92	246
1504.1	274
1506.27	260
1508.44	270
1510.61	290
1512.78	284
1514.95	272
1517.12	278
1519.28	260
1521.45	280
1523.62	262
1525.78	266
1527.95	286
1530.11	274
1532.28	270
1534.44	268
1536.6	262
1538.76	274
1540.93	268
1543.09	290
1545.25	280
1547.41	280
1549.56	298
1551.72	278
1553.88	284
1556.03	304
1558.19	302
1560.35	288
1562.5	318
1564.65	296
1566.81	324
1568.96	328
1571.11	368
1573.26	382
1575.41	418
1577.56	466
1579.71	604
1581.86	828
1584.01	992
1586.15	924
1588.3	726
1590.45	614
1592.59	610
1594.74	706
1596.88	898
1599.02	1232
1601.17	1640
1603.31	1862
1605.45	1710
1607.59	1348
1609.73	932
1611.87	674
1614.01	570
1616.14	484
1618.28	436
1620.42	408
1622.55	368
1624.69	364
1626.82	358
1628.96	322
1631.09	344
1633.22	310
1635.36	328
1637.49	316
1639.62	340
1641.75	312
1643.88	328
1646	356
1648.13	344
1650.26	336
1652.39	326
1654.51	322
1656.64	314
1658.76	310
1660.89	304
1663.01	300
1665.13	294
1667.26	298
1669.38	302
1671.5	288
1673.62	296
1675.74	304
1677.86	298
1679.97	308
1682.09	296
1684.21	294
1686.33	286
1688.44	282
1690.56	278
1692.67	294
1694.78	286
1696.9	298
1699.01	282
1701.12	292
1703.23	276
1705.34	292
1707.45	280
1709.56	292
1711.67	298
1713.78	294
1715.88	286
1717.99	274
1720.1	290
1722.2	288
1724.31	262
1726.41	270
1728.51	272
1730.62	278
1732.72	274
1734.82	268
1736.92	292
1739.02	296
1741.12	268
1743.22	292
1745.32	288
1747.42	278
1749.51	290
1751.61	280
1753.7	294
1755.8	282
1757.89	278
1759.99	292
1762.08	268
1764.17	280
1766.26	288
1768.36	282
1770.45	272
1772.54	276
1774.62	296
1776.71	282
1778.8	288
1780.89	280
1782.98	308
1785.06	292
1787.15	290
1789.23	296
1791.32	292
1793.4	274
1795.48	288
1797.56	292
1799.65	272
1801.73	300
1803.81	316
1805.89	300
1807.97	288
1810.04	298
1812.12	288
1814.2	290
1816.28	278
1818.35	276
1820.43	308
1822.5	292
1824.58	298
1826.65	288
1828.72	300
1830.79	294
1832.86	292
1834.94	276
1837.01	290
1839.08	288
1841.15	286
1843.21	280
1845.28	300
1847.35	304
1849.41	290
1851.48	276
1853.55	288
1855.61	290
1857.67	296
1859.74	292
1861.8	302
1863.86	294
1865.92	302
1867.98	278
1870.05	318
1872.1	294
1874.16	282
1876.22	270
1878.28	276
1880.34	278
1882.39	296
1884.45	280
1886.5	294
1888.56	292
1890.61	282
1892.67	296
1894.72	288
1896.77	274
1898.82	302
1900.87	302
1902.92	292
1904.97	278
1907.02	302
1909.07	280
1911.12	296
1913.17	312
1915.21	284
1917.26	316
1919.3	286
1921.35	310
1923.39	308
1925.43	328
1927.48	294
1929.52	316
1931.56	306
1933.6	324
1935.64	300
1937.68	306
1939.72	302
1941.76	320
1943.8	302
1945.83	324
1947.87	320
1949.91	300
1951.94	302
1953.98	288
1956.01	294
1958.05	304
1960.08	306
1962.11	292
1964.14	320
1966.17	306
1968.2	292
1970.23	314
1972.26	304
1974.29	294
1976.32	284
1978.35	312
1980.37	312
1982.4	294
1984.43	304
1986.45	306
1988.48	318
1990.5	316
1992.52	310
1994.55	302
1996.57	326
1998.59	308
2000.61	312
2002.63	310
2004.65	302
2006.67	306
2008.69	302
2010.7	330
2012.72	314
2014.74	306
2016.75	306
2018.77	322
2020.78	322
2022.8	298
2024.81	322
2026.83	290
2028.84	314
2030.85	322
2032.86	322
2034.87	302
2036.88	298
2038.89	324
2040.9	298
2042.91	318
2044.91	320
2046.92	324
2048.93	318
2050.93	304
2052.94	306
2054.94	316
2056.95	308
2058.95	320
2060.95	322
2062.95	298
2064.96	330
2066.96	296
2068.96	316
2070.96	324
2072.96	312
2074.95	326
2076.95	328
2078.95	324
2080.95	306
2082.94	330
2084.94	324
2086.93	322
2088.93	334
2090.92	308
2092.91	322
2094.91	314
2096.9	326
2098.89	334
2100.88	296
2102.87	304
2104.86	314
2106.85	322
2108.84	302
2110.83	334
2112.81	314
2114.8	318
2116.78	328
2118.77	322
2120.75	320
2122.74	338
2124.72	308
2126.71	322
2128.69	320
2130.67	330
2132.65	316
2134.63	312
2136.61	294
2138.59	326
2140.57	330
2142.55	336
2144.53	332
2146.5	326
2148.48	306
2150.46	300
2152.43	334
2154.41	318
2156.38	328
2158.35	326
2160.33	324
2162.3	334
2164.27	330
2166.24	318
2168.21	334
2170.18	328
2172.15	324
2174.12	344
2176.09	330
2178.06	358
2180.03	346
2181.99	336
2183.96	314
2185.92	328
2187.89	336
2189.85	330
2191.82	312
2193.78	338
2195.74	320
2197.7	316
2199.67	332
2201.63	322
2203.59	324
2205.55	336
2207.51	318
2209.46	308
2211.42	326
2213.38	332
2215.34	324
2217.29	332
2219.25	318
2221.2	344
2223.16	340
2225.11	350
2227.06	328
2229.02	318
2230.97	328
2232.92	328
2234.87	314
2236.82	332
2238.77	334
2240.72	328
2242.67	346
2244.62	316
2246.57	332
2248.51	308
2250.46	328
2252.4	356
2254.35	326
2256.29	346
2258.24	328
2260.18	326
2262.13	324
2264.07	348
2266.01	340
2267.95	336
2269.89	318
2271.83	330
2273.77	336
2275.71	324
2277.65	332
2279.58	324
2281.52	314
2283.46	330
2285.4	344
2287.33	346
2289.27	326
2291.2	356
2293.13	342
2295.07	334
2297	332
2298.93	344
2300.86	330
2302.79	344
2304.72	330
2306.65	350
2308.58	350
2310.51	348
2312.44	344
2314.37	360
2316.29	342
2318.22	338
2320.15	326
2322.07	340
2324	352
2325.92	348
2327.84	324
2329.77	334
2331.69	348
2333.61	336
2335.53	344
2337.45	346
2339.37	348
2341.29	362
2343.21	338
2345.13	344
2347.05	348
2348.97	354
2350.88	362
2352.8	346
2354.71	344
2356.63	328
2358.54	344
2360.46	348
2362.37	330
2364.28	356
2366.2	338
2368.11	350
2370.02	350
2371.93	338
2373.84	346
2375.75	334
2377.66	352
2379.57	342
2381.47	334
2383.38	352
2385.29	356
2387.2	350
2389.1	344
2391.01	342
2392.91	342
2394.81	336
2396.72	346
2398.62	342
2400.52	344
2402.42	352
2404.33	362
2406.23	348
2408.13	352
2410.03	346
2411.92	340
2413.82	358
2415.72	322
2417.62	352
2419.51	358
2421.41	354
2423.31	344
2425.2	356
2427.1	346
2428.99	368
2430.88	324
2432.78	342
2434.67	348
2436.56	354
2438.45	356
2440.34	350
2442.23	362
2444.12	364
2446.01	374
2447.9	372
2449.79	376