File: Jesse_Dataset_v2/Pure Raman/Polystyrene/633nm/ps-ppo-7jan25-1,0000-map3_Y06_X01.txt
182.393	1080
184.993	1026
187.593	1028
190.193	948
192.79	962
195.387	958
197.983	952
200.578	974
203.174	990
205.766	960
208.36	986
210.951	1032
213.542	1054
216.131	1032
218.721	1072
221.309	1132
223.897	1092
226.483	1060
229.069	1052
231.654	930
234.238	842
236.821	770
239.404	718
241.984	622
244.566	512
247.145	494
249.723	454
252.302	420
254.878	414
257.455	384
260.03	368
262.604	344
265.178	344
267.75	368
270.322	342
272.893	346
275.463	342
278.032	310
280.601	328
283.168	332
285.734	290
288.301	310
290.866	300
293.429	288
295.992	272
298.556	270
301.117	246
303.677	264
306.236	260
308.795	266
311.354	258
313.911	250
316.467	258
319.022	250
321.577	254
324.13	254
326.684	252
329.236	282
331.787	260
334.337	274
336.887	262
339.435	254
341.983	256
344.529	252
347.075	238
349.621	248
352.165	260
354.708	224
357.251	238
359.793	242
362.334	244
364.874	238
367.413	246
369.951	248
372.489	264
375.026	244
377.562	264
380.097	254
382.631	264
385.164	282
387.697	276
390.229	290
392.76	290
395.29	296
397.819	298
400.346	324
402.873	324
405.4	344
407.926	358
410.451	384
412.976	350
415.499	320
418.02	304
420.542	306
423.063	278
425.583	280
428.101	254
430.619	258
433.137	264
435.654	246
438.169	248
440.684	242
443.198	244
445.712	234
448.223	222
450.735	240
453.246	230
455.755	232
458.264	212
460.771	196
463.279	204
465.786	204
468.291	208
470.796	194
473.301	210
475.803	204
478.306	210
480.807	206
483.308	198
485.807	206
488.307	196
490.804	198
493.302	202
495.798	210
498.294	204
500.788	216
503.283	226
505.775	212
508.269	222
510.759	210
513.251	206
515.74	224
518.23	202
520.718	224
523.204	224
525.692	234
528.177	232
530.663	238
533.147	246
535.629	266
538.113	258
540.594	282
543.074	276
545.555	294
548.034	274
550.512	282
552.989	294
555.467	286
557.942	276
560.417	268
562.892	262
565.365	276
567.838	256
570.309	268
572.78	274
575.251	268
577.72	250
580.189	254
582.656	250
585.123	244
587.589	244
590.055	246
592.52	246
594.983	232
597.446	238
599.908	258
602.369	230
604.829	254
607.289	304
609.747	310
612.205	292
614.663	326
617.119	452
619.574	706
622.029	1126
624.483	994
626.936	562
629.389	358
631.84	302
634.291	284
636.741	236
639.19	228
641.639	224
644.086	226
646.533	208
648.979	208
651.424	208
653.869	196
656.313	214
658.754	204
661.196	202
663.638	202
666.078	202
668.518	200
670.957	192
673.394	202
675.831	206
678.268	212
680.703	192
683.137	208
685.571	206
688.005	214
690.437	208
692.868	202
695.299	210
697.729	226
700.159	242
702.586	240
705.014	246
707.441	248
709.866	246
712.292	250
714.716	260
717.14	238
719.563	256
721.984	284
724.406	356
726.825	350
729.246	316
731.665	306
734.082	294
736.5	318
738.916	370
741.332	412
743.746	434
746.161	422
748.574	418
750.987	394
753.398	466
755.81	488
758.219	490
760.629	508
763.037	490
765.445	526
767.852	470
770.258	440
772.664	460
775.068	442
777.472	472
779.876	468
782.278	472
784.679	528
787.08	574
789.48	638
791.879	712
794.278	700
796.675	732
799.072	708
801.467	668
803.864	578
806.258	496
808.651	458
811.044	414
813.437	412
815.828	386
818.218	364
820.608	334
822.997	290
825.385	296
827.773	300
830.16	296
832.546	306
834.931	336
837.315	348
839.699	358
842.081	396
844.463	398
846.844	400
849.226	360
851.606	364
853.985	312
856.363	342
858.741	330
861.117	338
863.493	332
865.868	330
868.243	346
870.616	328
872.989	328
875.36	330
877.731	330
880.102	324
882.472	302
884.841	306
887.209	302
889.577	314
891.944	314
894.31	322
896.674	340
899.039	336
901.403	344
903.766	394
906.128	376
908.49	402
910.849	372
913.209	366
915.569	334
917.927	326
920.284	292
922.641	290
924.997	280
927.353	284
929.707	292
932.061	284
934.414	288
936.765	292
939.117	264
941.469	278
943.818	316
946.167	312
948.515	300
950.863	288
953.211	300
955.556	282
957.902	298
960.246	320
962.59	338
964.933	324
967.276	344
969.617	374
971.958	352
974.298	340
976.638	396
978.976	428
981.314	468
983.651	552
985.988	646
988.323	798
990.659	1176
992.992	1718
995.325	1964
997.658	2392
999.99	4262
1002.32	6638
1004.65	6158
1006.98	3496
1009.31	1610
1011.64	864
1013.97	572
1016.29	506
1018.62	486
1020.94	560
1023.27	660
1025.59	856
1027.91	1198
1030.24	1650
1032.56	1982
1034.88	1948
1037.2	1416
1039.52	996
1041.84	708
1044.15	578
1046.47	480
1048.79	460
1051.1	434
1053.42	400
1055.73	402
1058.04	422
1060.36	450
1062.67	422
1064.98	448
1067.29	470
1069.6	450
1071.91	462
1074.22	474
1076.52	450
1078.83	466
1081.14	416
1083.44	452
1085.75	432
1088.05	448
1090.35	442
1092.65	428
1094.95	440
1097.26	456
1099.56	454
1101.86	436
1104.15	436
1106.45	402
1108.75	414
1111.05	346
1113.34	334
1115.64	316
1117.93	328
1120.22	332
1122.52	314
1124.81	296
1127.1	294
1129.39	296
1131.68	288
1133.97	286
1136.26	296
1138.54	294
1140.83	326
1143.12	346
1145.4	388
1147.69	426
1149.97	508
1152.25	662
1154.54	896
1156.82	984
1159.1	882
1161.38	706
1163.66	580
1165.94	534
1168.22	510
1170.49	532
1172.77	570
1175.05	650
1177.32	782
1179.6	984
1181.87	1146
1184.14	1234
1186.42	1138
1188.69	1072
1190.96	1050
1193.23	1164
1195.5	1244
1197.77	1236
1200.03	1244
1202.3	1188
1204.57	1084
1206.83	980
1209.1	848
1211.36	744
1213.63	630
1215.89	554
1218.15	548
1220.41	520
1222.67	502
1224.93	462
1227.19	466
1229.45	430
1231.71	420
1233.97	400
1236.22	398
1238.48	390
1240.73	370
1242.99	372
1245.24	390
1247.5	376
1249.75	380
1252	364
1254.25	366
1256.5	358
1258.75	372
1261	360
1263.25	358
1265.49	358
1267.74	372
1269.99	360
1272.23	348
1274.48	352
1276.72	362
1278.96	382
1281.21	350
1283.45	366
1285.69	348
1287.93	394
1290.17	388
1292.41	380
1294.64	402
1296.88	404
1299.12	396
1301.36	384
1303.59	428
1305.82	418
1308.06	446
1310.29	416
1312.52	446
1314.76	444
1316.99	460
1319.22	464
1321.45	518
1323.68	524
1325.9	552
1328.13	504
1330.36	536
1332.58	550
1334.81	524
1337.04	506
1339.26	482
1341.48	442
1343.71	418
1345.93	406
1348.15	402
1350.37	396
1352.59	380
1354.81	366
1357.03	368
1359.24	376
1361.46	388
1363.68	346
1365.89	374
1368.11	410
1370.32	370
1372.54	372
1374.75	376
1376.96	402
1379.17	362
1381.38	368
1383.59	336
1385.8	334
1388.01	322
1390.22	272
1392.43	276
1394.63	292
1396.84	268
1399.05	268
1401.25	278
1403.45	278
1405.66	292
1407.86	270
1410.06	266
1412.26	264
1414.46	276
1416.66	270
1418.86	282
1421.06	270
1423.26	284
1425.46	258
1427.65	282
1429.85	272
1432.04	300
1434.24	332
1436.43	364
1438.62	426
1440.82	464
1443.01	494
1445.2	522
1447.39	562
1449.58	608
1451.77	612
1453.95	602
1456.14	530
1458.33	456
1460.52	400
1462.7	328
1464.89	330
1467.07	306
1469.25	298
1471.44	292
1473.62	290
1475.8	298
1477.98	286
1480.16	264
1482.34	282
1484.52	286
1486.7	258
1488.87	282
1491.05	298
1493.23	292
1495.4	294
1497.58	310
1499.75	282
1501.92	276
1504.1	256
1506.27	284
1508.44	268
1510.61	282
1512.78	264
1514.95	270
1517.12	270
1519.28	276
1521.45	268
1523.62	264
1525.78	274
1527.95	268
1530.11	292
1532.28	270
1534.44	274
1536.6	280
1538.76	292
1540.93	272
1543.09	282
1545.25	300
1547.41	284
1549.56	276
1551.72	290
1553.88	294
1556.03	278
1558.19	300
1560.35	340
1562.5	328
1564.65	310
1566.81	336
1568.96	340
1571.11	344
1573.26	368
1575.41	402
1577.56	478
1579.71	626
1581.86	810
1584.01	990
1586.15	944
1588.3	738
1590.45	594
1592.59	596
1594.74	714
1596.88	906
1599.02	1226
1601.17	1670
1603.31	1900
1605.45	1714
1607.59	1284
1609.73	958
1611.87	680
1614.01	560
1616.14	482
1618.28	452
1620.42	388
1622.55	388
1624.69	368
1626.82	344
1628.96	340
1631.09	340
1633.22	336
1635.36	338
1637.49	328
1639.62	336
1641.75	330
1643.88	324
1646	354
1648.13	356
1650.26	338
1652.39	340
1654.51	338
1656.64	326
1658.76	312
1660.89	316
1663.01	324
1665.13	284
1667.26	308
1669.38	298
1671.5	316
1673.62	296
1675.74	320
1677.86	296
1679.97	310
1682.09	296
1684.21	334
1686.33	328
1688.44	298
1690.56	294
1692.67	308
1694.78	308
1696.9	302
1699.01	298
1701.12	300
1703.23	304
1705.34	294
1707.45	290
1709.56	302
1711.67	294
1713.78	304
1715.88	306
1717.99	298
1720.1	294
1722.2	294
1724.31	292
1726.41	286
1728.51	284
1730.62	296
1732.72	292
1734.82	304
1736.92	288
1739.02	294
1741.12	300
1743.22	272
1745.32	298
1747.42	284
1749.51	282
1751.61	284
1753.7	294
1755.8	296
1757.89	302
1759.99	294
1762.08	292
1764.17	278
1766.26	304
1768.36	304
1770.45	282
1772.54	304
1774.62	298
1776.71	282
1778.8	286
1780.89	276
1782.98	312
1785.06	292
1787.15	312
1789.23	290
1791.32	310
1793.4	314
1795.48	296
1797.56	316
1799.65	312
1801.73	296
1803.81	298
1805.89	306
1807.97	310
1810.04	312
1812.12	304
1814.2	306
1816.28	326
1818.35	308
1820.43	310
1822.5	318
1824.58	306
1826.65	320
1828.72	306
1830.79	314
1832.86	300
1834.94	294
1837.01	312
1839.08	300
1841.15	306
1843.21	290
1845.28	308
1847.35	320
1849.41	320
1851.48	312
1853.55	304
1855.61	302
1857.67	314
1859.74	300
1861.8	288
1863.86	300
1865.92	312
1867.98	306
1870.05	302
1872.1	328
1874.16	316
1876.22	310
1878.28	308
1880.34	314
1882.39	304
1884.45	310
1886.5	308
1888.56	286
1890.61	320
1892.67	326
1894.72	322
1896.77	322
1898.82	312
1900.87	328
1902.92	318
1904.97	316
1907.02	312
1909.07	316
1911.12	318
1913.17	322
1915.21	306
1917.26	342
1919.3	332
1921.35	332
1923.39	318
1925.43	332
1927.48	324
1929.52	320
1931.56	326
1933.6	334
1935.64	340
1937.68	316
1939.72	330
1941.76	310
1943.8	326
1945.83	326
1947.87	322
1949.91	318
1951.94	306
1953.98	318
1956.01	306
1958.05	332
1960.08	332
1962.11	318
1964.14	328
1966.17	334
1968.2	306
1970.23	326
1972.26	326
1974.29	338
1976.32	324
1978.35	306
1980.37	320
1982.4	328
1984.43	316
1986.45	332
1988.48	318
1990.5	318
1992.52	322
1994.55	332
1996.57	320
1998.59	300
2000.61	308
2002.63	318
2004.65	318
2006.67	336
2008.69	336
2010.7	328
2012.72	322
2014.74	304
2016.75	314
2018.77	316
2020.78	338
2022.8	338
2024.81	312
2026.83	340
2028.84	302
2030.85	330
2032.86	308
2034.87	346
2036.88	326
2038.89	328
2040.9	322
2042.91	338
2044.91	328
2046.92	332
2048.93	334
2050.93	320
2052.94	334
2054.94	330
2056.95	344
2058.95	332
2060.95	316
2062.95	326
2064.96	340
2066.96	332
2068.96	344
2070.96	330
2072.96	338
2074.95	348
2076.95	330
2078.95	322
2080.95	330
2082.94	338
2084.94	346
2086.93	326
2088.93	354
2090.92	338
2092.91	344
2094.91	320
2096.9	332
2098.89	356
2100.88	338
2102.87	354
2104.86	342
2106.85	358
2108.84	344
2110.83	314
2112.81	344
2114.8	328
2116.78	336
2118.77	350
2120.75	330
2122.74	348
2124.72	336
2126.71	352
2128.69	330
2130.67	330
2132.65	332
2134.63	346
2136.61	326
2138.59	332
2140.57	342
2142.55	336
2144.53	332
2146.5	324
2148.48	342
2150.46	346
2152.43	344
2154.41	354
2156.38	358
2158.35	318
2160.33	348
2162.3	346
2164.27	322
2166.24	360
2168.21	348
2170.18	340
2172.15	332
2174.12	340
2176.09	340
2178.06	342
2180.03	336
2181.99	346
2183.96	358
2185.92	338
2187.89	358
2189.85	354
2191.82	342
2193.78	350
2195.74	364
2197.7	354
2199.67	342
2201.63	358
2203.59	358
2205.55	322
2207.51	346
2209.46	350
2211.42	348
2213.38	332
2215.34	328
2217.29	362
2219.25	336
2221.2	344
2223.16	338
2225.11	342
2227.06	344
2229.02	334
2230.97	322
2232.92	320
2234.87	332
2236.82	340
2238.77	354
2240.72	338
2242.67	352
2244.62	332
2246.57	338
2248.51	348
2250.46	342
2252.4	346
2254.35	342
2256.29	344
2258.24	338
2260.18	348
2262.13	340
2264.07	346
2266.01	352
2267.95	346
2269.89	348
2271.83	344
2273.77	340
2275.71	348
2277.65	352
2279.58	350
2281.52	344
2283.46	316
2285.4	342
2287.33	346
2289.27	342
2291.2	356
2293.13	344
2295.07	350
2297	330
2298.93	340
2300.86	352
2302.79	358
2304.72	350
2306.65	354
2308.58	340
2310.51	354
2312.44	376
2314.37	338
2316.29	364
2318.22	350
2320.15	366
2322.07	344
2324	344
2325.92	348
2327.84	356
2329.77	362
2331.69	348
2333.61	352
2335.53	346
2337.45	350
2339.37	354
2341.29	350
2343.21	346
2345.13	340
2347.05	346
2348.97	352
2350.88	336
2352.8	334
2354.71	362
2356.63	364
2358.54	344
2360.46	362
2362.37	340
2364.28	346
2366.2	330
2368.11	352
2370.02	346
2371.93	344
2373.84	340
2375.75	370
2377.66	362
2379.57	362
2381.47	342
2383.38	354
2385.29	364
2387.2	348
2389.1	350
2391.01	332
2392.91	360
2394.81	356
2396.72	348
2398.62	358
2400.52	366
2402.42	344
2404.33	350
2406.23	362
2408.13	362
2410.03	356
2411.92	348
2413.82	342
2415.72	350
2417.62	356
2419.51	342
2421.41	342
2423.31	352
2425.2	348
2427.1	366
2428.99	358
2430.88	358
2432.78	354
2434.67	362
2436.56	364
2438.45	334
2440.34	354
2442.23	368
2444.12	366
2446.01	370
2447.9	360
2449.79	368