File: Jesse_Dataset_v2/Pure Raman/Polypropylene oxide/785nm/ps-ppo-6jan25-0,0000-map2_Y06_X04.txt
204.377	366
206.045	358
207.713	336
209.38	332
211.048	298
212.715	310
214.381	306
216.047	308
217.712	316
219.377	332
221.042	358
222.706	406
224.369	442
226.032	528
227.695	624
229.357	754
231.019	860
232.68	914
234.341	930
236.001	908
237.661	830
239.321	778
240.98	702
242.639	652
244.297	598
245.955	546
247.612	468
249.268	422
250.924	370
252.58	340
254.236	310
255.891	268
257.546	260
259.2	228
260.854	224
262.507	210
264.16	188
265.812	194
267.463	184
269.115	172
270.766	174
272.417	162
274.067	162
275.717	182
277.365	184
279.014	184
280.663	194
282.311	198
283.958	220
285.605	242
287.252	268
288.898	332
290.543	376
292.188	390
293.833	424
295.477	412
297.121	408
298.765	388
300.407	372
302.05	336
303.693	296
305.334	284
306.975	274
308.615	258
310.256	240
311.896	246
313.535	242
315.175	212
316.813	220
318.451	224
320.089	228
321.726	210
323.362	222
324.999	218
326.635	230
328.271	220
329.905	222
331.54	232
333.174	234
334.807	236
336.441	230
338.074	238
339.707	230
341.338	214
342.969	214
344.601	206
346.231	204
347.861	188
349.491	198
351.12	190
352.749	194
354.378	212
356.006	200
357.633	198
359.261	204
360.887	192
362.513	182
364.139	174
365.764	176
367.39	172
369.014	186
370.638	186
372.261	186
373.884	174
375.508	198
377.13	168
378.752	162
380.373	148
381.994	142
383.615	130
385.235	128
386.854	138
388.473	138
390.092	116
391.711	124
393.328	108
394.947	130
396.564	118
398.181	114
399.797	110
401.412	128
403.027	122
404.642	130
406.257	138
407.871	148
409.484	166
411.098	180
412.711	182
414.323	196
415.935	196
417.547	182
419.158	174
420.768	160
422.378	134
423.988	128
425.597	120
427.206	122
428.814	104
430.422	106
432.03	102
433.637	88
435.243	86
436.85	86
438.456	86
440.062	74
441.666	78
443.271	72
444.876	72
446.479	70
448.082	80
449.685	80
451.287	80
452.89	84
454.492	76
456.092	72
457.693	78
459.293	74
460.893	80
462.492	84
464.092	86
465.691	94
467.288	102
468.887	120
470.483	134
472.081	132
473.677	152
475.273	180
476.869	194
478.463	204
480.059	226
481.653	226
483.247	260
484.84	268
486.433	260
488.026	226
489.618	178
491.21	168
492.801	144
494.392	134
495.983	128
497.573	106
499.162	100
500.752	90
502.341	94
503.929	94
505.517	102
507.105	108
508.692	122
510.279	164
511.865	190
513.45	208
515.037	196
516.621	158
518.206	146
519.79	138
521.374	144
522.957	150
524.54	158
526.123	172
527.705	180
529.287	210
530.868	246
532.448	300
534.029	326
535.609	374
537.188	416
538.768	390
540.346	418
541.925	368
543.502	334
545.08	296
546.657	246
548.234	206
549.81	190
551.386	176
552.961	188
554.536	186
556.11	218
557.684	240
559.258	300
560.832	368
562.405	498
563.977	696
565.55	962
567.12	1328
568.692	1822
570.263	2170
571.833	2182
573.403	1838
574.973	1380
576.542	938
578.111	630
579.679	486
581.247	370
582.815	336
584.382	332
585.948	314
587.514	282
589.081	284
590.645	250
592.211	244
593.775	250
595.339	240
596.904	222
598.466	194
600.03	176
601.592	150
603.154	134
604.715	104
606.277	100
607.838	98
609.398	92
610.958	88
612.518	84
614.077	90
615.636	82
617.194	82
618.753	92
620.31	96
621.867	98
623.424	108
624.98	106
626.537	120
628.092	112
629.647	124
631.202	136
632.756	142
634.31	134
635.864	144
637.417	144
638.969	134
640.521	116
642.074	124
643.625	120
645.176	102
646.726	98
648.276	98
649.827	88
651.376	82
652.925	84
654.473	84
656.021	88
657.569	72
659.117	80
660.664	62
662.21	70
663.757	70
665.302	64
666.847	60
668.392	62
669.937	58
671.481	60
673.025	58
674.568	62
676.111	64
677.653	56
679.195	54
680.737	56
682.279	62
683.82	62
685.36	70
686.9	62
688.44	54
689.979	60
691.517	54
693.056	62
694.594	58
696.132	58
697.669	60
699.206	58
700.742	58
702.278	64
703.814	60
705.35	66
706.884	70
708.419	80
709.953	66
711.487	76
713.019	94
714.552	92
716.085	96
717.617	84
719.148	84
720.68	74
722.21	80
723.741	74
725.271	68
726.8	70
728.33	72
729.858	78
731.387	82
732.915	66
734.443	76
735.97	86
737.497	82
739.023	70
740.549	86
742.075	88
743.6	100
745.125	118
746.65	138
748.173	142
749.697	120
751.22	116
752.743	108
754.266	108
755.788	106
757.309	100
758.831	92
760.351	80
761.871	68
763.392	72
764.912	68
766.431	56
767.95	64
769.468	58
770.986	68
772.504	70
774.022	62
775.538	70
777.055	70
778.571	72
780.086	74
781.602	84
783.117	76
784.632	72
786.146	66
787.659	58
789.173	72
790.685	66
792.198	60
793.71	68
795.222	64
796.733	62
798.244	58
799.755	66
801.265	64
802.775	64
804.284	68
805.793	70
807.302	72
808.81	70
810.318	74
811.826	76
813.333	76
814.84	66
816.346	66
817.851	74
819.357	86
820.862	82
822.367	102
823.871	104
825.376	130
826.878	150
828.382	230
829.885	316
831.387	482
832.889	530
834.391	512
835.892	372
837.392	236
838.893	168
840.393	114
841.893	100
843.392	98
844.891	94
846.389	94
847.888	86
849.386	90
850.882	88
852.38	86
853.876	80
855.372	80
856.868	88
858.363	80
859.858	82
861.353	74
862.847	80
864.341	66
865.834	72
867.328	68
868.82	64
870.313	66
871.805	62
873.296	54
874.787	64
876.278	56
877.769	64
879.258	52
880.748	60
882.237	66
883.726	54
885.214	58
886.702	58
888.19	48
889.677	56
891.164	54
892.651	46
894.137	56
895.623	58
897.108	52
898.593	52
900.077	50
901.562	58
903.046	56
904.529	50
906.012	52
907.495	56
908.977	60
910.459	50
911.941	50
913.422	58
914.903	56
916.383	58
917.863	60
919.343	56
920.822	52
922.301	54
923.779	54
925.257	56
926.735	60
928.213	58
929.69	56
931.166	56
932.643	60
934.119	62
935.594	72
937.069	64
938.543	74
940.018	64
941.492	76
942.966	88
944.439	88
945.911	94
947.384	104
948.856	124
950.328	140
951.799	146
953.27	198
954.741	236
956.21	286
957.68	326
959.15	336
960.619	356
962.088	330
963.556	302
965.023	270
966.491	250
967.958	214
969.425	186
970.891	164
972.357	142
973.824	126
975.288	110
976.754	96
978.218	84
979.682	88
981.146	72
982.609	80
984.072	76
985.534	76
986.997	72
988.459	74
989.92	74
991.382	68
992.842	76
994.302	64
995.763	70
997.222	72
998.681	58
1000.14	62
1001.6	62
1003.06	64
1004.52	66
1005.97	56
1007.43	58
1008.89	64
1010.34	62
1011.8	66
1013.25	62
1014.71	62
1016.16	64
1017.62	70
1019.07	70
1020.53	74
1021.98	74
1023.43	78
1024.89	86
1026.34	80
1027.79	78
1029.24	86
1030.69	92
1032.14	88
1033.59	88
1035.04	90
1036.49	94
1037.94	86
1039.39	86
1040.84	90
1042.29	82
1043.73	80
1045.18	72
1046.63	70
1048.08	70
1049.52	66
1050.97	70
1052.41	62
1053.86	70
1055.3	64
1056.75	66
1058.19	60
1059.64	62
1061.08	60
1062.52	60
1063.96	64
1065.41	68
1066.85	56
1068.29	58
1069.73	64
1071.17	56
1072.61	60
1074.05	54
1075.49	58
1076.93	54
1078.37	60
1079.81	62
1081.25	66
1082.68	60
1084.12	64
1085.56	66
1087	66
1088.43	60
1089.87	64
1091.3	68
1092.74	62
1094.17	68
1095.61	68
1097.04	72
1098.48	68
1099.91	80
1101.34	78
1102.78	80
1104.21	88
1105.64	106
1107.07	128
1108.5	186
1109.93	242
1111.36	308
1112.8	322
1114.22	304
1115.65	232
1117.08	194
1118.51	154
1119.94	126
1121.37	118
1122.8	106
1124.22	102
1125.65	100
1127.08	86
1128.5	92
1129.93	86
1131.35	82
1132.78	76
1134.2	86
1135.63	70
1137.05	78
1138.48	76
1139.9	84
1141.32	80
1142.75	84
1144.17	76
1145.59	72
1147.01	76
1148.43	70
1149.85	68
1151.27	70
1152.69	72
1154.11	80
1155.53	84
1156.95	72
1158.37	74
1159.79	78
1161.21	82
1162.62	94
1164.04	82
1165.46	92
1166.87	90
1168.29	92
1169.71	84
1171.12	84
1172.54	80
1173.95	84
1175.37	88
1176.78	102
1178.19	106
1179.61	110
1181.02	136
1182.43	170
1183.84	196
1185.26	210
1186.67	230
1188.08	214
1189.49	196
1190.9	174
1192.31	154
1193.72	156
1195.13	142
1196.54	142
1197.95	150
1199.36	154
1200.76	164
1202.17	168
1203.58	154
1204.99	152
1206.39	138
1207.8	132
1209.2	116
1210.61	110
1212.01	100
1213.42	96
1214.82	90
1216.23	90
1217.63	86
1219.03	92
1220.44	86
1221.84	90
1223.24	92
1224.64	94
1226.05	110
1227.45	118
1228.85	122
1230.25	138
1231.65	134
1233.05	116
1234.45	112
1235.85	94
1237.25	92
1238.64	76
1240.04	90
1241.44	86
1242.84	82
1244.23	82
1245.63	84
1247.03	80
1248.42	82
1249.82	88
1251.21	100
1252.61	82
1254	78
1255.4	78
1256.79	88
1258.19	80
1259.58	84
1260.97	100
1262.36	90
1263.76	88
1265.15	90
1266.54	90
1267.93	92
1269.32	90
1270.71	94
1272.1	96
1273.49	100
1274.88	104
1276.27	98
1277.66	104
1279.05	112
1280.43	116
1281.82	120
1283.21	124
1284.6	128
1285.98	154
1287.37	130
1288.75	138
1290.14	150
1291.53	160
1292.91	180
1294.29	206
1295.68	230
1297.06	264
1298.45	306
1299.83	422
1301.21	490
1302.59	620
1303.98	704
1305.36	728
1306.74	720
1308.12	608
1309.5	468
1310.88	378
1312.26	330
1313.64	268
1315.02	254
1316.4	234
1317.78	220
1319.16	192
1320.53	190
1321.91	176
1323.29	164
1324.67	166
1326.04	178
1327.42	176
1328.79	164
1330.17	172
1331.54	160
1332.92	164
1334.29	150
1335.67	142
1337.04	156
1338.42	142
1339.79	128
1341.16	146
1342.53	138
1343.91	146
1345.28	138
1346.65	152
1348.02	162
1349.39	154
1350.76	166
1352.13	158
1353.5	152
1354.87	152
1356.24	156
1357.61	134
1358.98	140
1360.34	144
1361.71	138
1363.08	140
1364.45	148
1365.81	158
1367.18	150
1368.54	158
1369.91	174
1371.28	184
1372.64	210
1374.01	262
1375.37	312
1376.73	352
1378.1	402
1379.46	398
1380.82	390
1382.19	370
1383.55	352
1384.91	306
1386.27	272
1387.63	214
1388.99	190
1390.35	164
1391.71	154
1393.07	154
1394.43	140
1395.79	138
1397.15	130
1398.51	138
1399.87	134
1401.23	122
1402.58	118
1403.94	128
1405.3	132
1406.65	116
1408.01	118
1409.37	134
1410.72	140
1412.08	138
1413.43	138
1414.79	144
1416.14	140
1417.49	142
1418.85	150
1420.2	148
1421.55	168
1422.91	172
1424.26	180
1425.61	186
1426.96	178
1428.31	174
1429.66	170
1431.01	180
1432.36	190
1433.71	166
1435.06	196
1436.41	204
1437.76	190
1439.11	212
1440.46	204
1441.81	204
1443.15	196
1444.5	186
1445.85	180
1447.19	182
1448.54	174
1449.89	158
1451.23	160
1452.58	166
1453.92	150
1455.27	142
1456.61	164
1457.95	150
1459.3	152
1460.64	146
1461.98	144
1463.33	156
1464.67	144
1466.01	138
1467.35	144
1468.69	134
1470.03	152
1471.37	146
1472.71	144
1474.05	136
1475.39	142
1476.73	144
1478.07	146
1479.41	140
1480.75	136
1482.09	138
1483.42	118
1484.76	128
1486.1	126
1487.43	118
1488.77	116
1490.11	108
1491.44	116
1492.78	116
1494.11	110
1495.45	112
1496.78	114
1498.12	112
1499.45	108
1500.78	106
1502.11	118
1503.45	114
1504.78	114
1506.11	114
1507.44	108
1508.77	100
1510.11	106
1511.44	90
1512.77	108
1514.1	108
1515.43	112
1516.76	108
1518.08	102
1519.41	100
1520.74	106
1522.07	102
1523.4	104
1524.72	100
1526.05	112
1527.38	98
1528.7	102
1530.03	106
1531.36	106
1532.68	104
1534.01	110
1535.33	106
1536.66	100
1537.98	96
1539.3	98
1540.63	100
1541.95	108
1543.27	96
1544.6	116
1545.92	106
1547.24	106
1548.56	96
1549.88	100
1551.2	102
1552.52	106
1553.84	106
1555.17	100
1556.48	98
1557.8	110
1559.12	116
1560.44	108
1561.76	104
1563.08	112
1564.4	106
1565.71	102
1567.03	114
1568.35	108
1569.66	118
1570.98	114
1572.29	110
1573.61	120
1574.93	114
1576.24	126
1577.55	140
1578.87	134
1580.18	142
1581.5	156
1582.81	154
1584.12	182
1585.43	162
1586.75	192
1588.06	210
1589.37	222
1590.68	248
1591.99	260
1593.3	290
1594.61	306
1595.92	352
1597.23	388
1598.54	402
1599.85	438
1601.16	452
1602.47	452
1603.78	428
1605.08	438
1606.39	408
1607.7	406
1609	330
1610.31	328
1611.62	304
1612.92	276
1614.23	254
1615.53	236
1616.84	212
1618.14	190
1619.45	184
1620.75	164
1622.06	158
1623.36	132
1624.66	126
1625.96	120
1627.27	110
1628.57	114
1629.87	104
1631.17	104
1632.47	98
1633.77	102
1635.07	96
1636.37	90
1637.67	96
1638.97	94
1640.27	96
1641.57	92
1642.87	84
1644.17	84
1645.47	90
1646.76	78
1648.06	84
1649.36	80
1650.66	88
1651.95	84
1653.25	80
1654.54	78
1655.84	76
1657.13	84
1658.43	86
1659.72	72
1661.02	76
1662.31	74
1663.6	80
1664.9	76
1666.19	66
1667.48	80
1668.78	72
1670.07	78
1671.36	74
1672.65	72
1673.94	78
1675.23	74
1676.52	80
1677.81	74
1679.1	78
1680.39	76
1681.68	74
1682.97	74
1684.26	78
1685.55	74
1686.83	80
1688.12	76
1689.41	72
1690.7	76
1691.98	74
1693.27	86
1694.55	80
1695.84	82
1697.13	76
1698.41	70
1699.69	72
1700.98	72
1702.26	74