File: Jesse_Dataset_v2/Pure Raman/Polypropylene oxide/785nm/ps-ppo-6jan25-0,0000-map2_Y10_X03.txt
204.377	324
206.045	326
207.713	320
209.38	302
211.048	284
212.715	290
214.381	280
216.047	296
217.712	306
219.377	302
221.042	336
222.706	368
224.369	402
226.032	454
227.695	574
229.357	690
231.019	772
232.68	846
234.341	810
236.001	808
237.661	788
239.321	700
240.98	646
242.639	582
244.297	546
245.955	490
247.612	438
249.268	406
250.924	352
252.58	308
254.236	274
255.891	248
257.546	234
259.2	214
260.854	188
262.507	182
264.16	168
265.812	184
267.463	164
269.115	164
270.766	158
272.417	158
274.067	160
275.717	152
277.365	166
279.014	152
280.663	176
282.311	194
283.958	208
285.605	222
287.252	246
288.898	282
290.543	314
292.188	348
293.833	356
295.477	386
297.121	380
298.765	336
300.407	324
302.05	308
303.693	270
305.334	256
306.975	254
308.615	238
310.256	230
311.896	218
313.535	196
315.175	204
316.813	190
318.451	186
320.089	200
321.726	216
323.362	208
324.999	212
326.635	208
328.271	210
329.905	208
331.54	216
333.174	224
334.807	228
336.441	238
338.074	212
339.707	194
341.338	206
342.969	184
344.601	184
346.231	188
347.861	182
349.491	184
351.12	184
352.749	194
354.378	196
356.006	188
357.633	192
359.261	180
360.887	174
362.513	172
364.139	146
365.764	176
367.39	162
369.014	162
370.638	176
372.261	174
373.884	174
375.508	180
377.13	154
378.752	146
380.373	126
381.994	130
383.615	122
385.235	132
386.854	128
388.473	108
390.092	122
391.711	110
393.328	112
394.947	112
396.564	112
398.181	116
399.797	116
401.412	100
403.027	122
404.642	118
406.257	128
407.871	144
409.484	160
411.098	178
412.711	184
414.323	184
415.935	178
417.547	152
419.158	150
420.768	138
422.378	132
423.988	118
425.597	104
427.206	114
428.814	116
430.422	88
432.03	96
433.637	88
435.243	98
436.85	80
438.456	82
440.062	78
441.666	80
443.271	66
444.876	78
446.479	74
448.082	82
449.685	66
451.287	78
452.89	72
454.492	72
456.092	76
457.693	78
459.293	74
460.893	76
462.492	78
464.092	86
465.691	98
467.288	104
468.887	118
470.483	132
472.081	154
473.677	150
475.273	166
476.869	174
478.463	178
480.059	218
481.653	220
483.247	240
484.84	258
486.433	244
488.026	224
489.618	184
491.21	148
492.801	148
494.392	128
495.983	114
497.573	100
499.162	100
500.752	90
502.341	86
503.929	86
505.517	92
507.105	106
508.692	110
510.279	138
511.865	176
513.45	188
515.037	184
516.621	148
518.206	142
519.79	132
521.374	126
522.957	132
524.54	160
526.123	162
527.705	182
529.287	204
530.868	224
532.448	270
534.029	302
535.609	350
537.188	384
538.768	384
540.346	384
541.925	340
543.502	324
545.08	272
546.657	214
548.234	182
549.81	174
551.386	182
552.961	178
554.536	174
556.11	204
557.684	236
559.258	278
560.832	366
562.405	458
563.977	622
565.55	884
567.12	1222
568.692	1652
570.263	1890
571.833	1900
573.403	1664
574.973	1176
576.542	814
578.111	586
579.679	438
581.247	346
582.815	314
584.382	300
585.948	288
587.514	264
589.081	248
590.645	238
592.211	236
593.775	214
595.339	214
596.904	204
598.466	178
600.03	160
601.592	130
603.154	116
604.715	110
606.277	88
607.838	90
609.398	86
610.958	82
612.518	82
614.077	82
615.636	84
617.194	88
618.753	92
620.31	94
621.867	90
623.424	98
624.98	100
626.537	108
628.092	120
629.647	120
631.202	120
632.756	134
634.31	138
635.864	132
637.417	134
638.969	134
640.521	122
642.074	100
643.625	110
645.176	100
646.726	92
648.276	92
649.827	86
651.376	84
652.925	86
654.473	68
656.021	76
657.569	60
659.117	64
660.664	68
662.21	66
663.757	66
665.302	62
666.847	68
668.392	58
669.937	64
671.481	60
673.025	50
674.568	58
676.111	54
677.653	56
679.195	54
680.737	62
682.279	62
683.82	58
685.36	62
686.9	58
688.44	64
689.979	62
691.517	58
693.056	54
694.594	62
696.132	54
697.669	58
699.206	62
700.742	58
702.278	60
703.814	60
705.35	66
706.884	68
708.419	70
709.953	78
711.487	76
713.019	84
714.552	90
716.085	84
717.617	92
719.148	74
720.68	76
722.21	66
723.741	70
725.271	74
726.8	62
728.33	72
729.858	74
731.387	70
732.915	78
734.443	74
735.97	78
737.497	72
739.023	86
740.549	78
742.075	92
743.6	100
745.125	126
746.65	110
748.173	120
749.697	110
751.22	114
752.743	120
754.266	106
755.788	110
757.309	102
758.831	90
760.351	76
761.871	68
763.392	66
764.912	70
766.431	64
767.95	68
769.468	62
770.986	68
772.504	62
774.022	68
775.538	74
777.055	74
778.571	72
780.086	78
781.602	64
783.117	76
784.632	76
786.146	62
787.659	66
789.173	58
790.685	72
792.198	60
793.71	62
795.222	66
796.733	66
798.244	68
799.755	72
801.265	58
802.775	64
804.284	70
805.793	70
807.302	68
808.81	72
810.318	72
811.826	68
813.333	74
814.84	68
816.346	74
817.851	62
819.357	78
820.862	78
822.367	90
823.871	94
825.376	126
826.878	140
828.382	208
829.885	292
831.387	386
832.889	496
834.391	442
835.892	342
837.392	220
838.893	148
840.393	116
841.893	98
843.392	98
844.891	86
846.389	94
847.888	90
849.386	84
850.882	80
852.38	82
853.876	86
855.372	82
856.868	76
858.363	80
859.858	72
861.353	72
862.847	74
864.341	68
865.834	68
867.328	60
868.82	68
870.313	70
871.805	56
873.296	60
874.787	62
876.278	62
877.769	58
879.258	58
880.748	54
882.237	56
883.726	60
885.214	60
886.702	56
888.19	58
889.677	52
891.164	58
892.651	50
894.137	50
895.623	52
897.108	56
898.593	50
900.077	60
901.562	50
903.046	56
904.529	56
906.012	48
907.495	52
908.977	60
910.459	54
911.941	52
913.422	64
914.903	56
916.383	56
917.863	54
919.343	48
920.822	54
922.301	48
923.779	60
925.257	56
926.735	56
928.213	60
929.69	56
931.166	56
932.643	62
934.119	52
935.594	66
937.069	62
938.543	66
940.018	74
941.492	70
942.966	78
944.439	82
945.911	92
947.384	100
948.856	118
950.328	126
951.799	150
953.27	182
954.741	228
956.21	258
957.68	296
959.15	314
960.619	318
962.088	308
963.556	278
965.023	228
966.491	220
967.958	188
969.425	168
970.891	160
972.357	138
973.824	116
975.288	96
976.754	98
978.218	74
979.682	80
981.146	70
982.609	68
984.072	70
985.534	70
986.997	66
988.459	60
989.92	72
991.382	58
992.842	68
994.302	66
995.763	60
997.222	56
998.681	54
1000.14	60
1001.6	60
1003.06	60
1004.52	56
1005.97	60
1007.43	52
1008.89	56
1010.34	56
1011.8	62
1013.25	56
1014.71	70
1016.16	66
1017.62	66
1019.07	72
1020.53	72
1021.98	74
1023.43	76
1024.89	76
1026.34	74
1027.79	80
1029.24	82
1030.69	88
1032.14	90
1033.59	90
1035.04	92
1036.49	82
1037.94	86
1039.39	84
1040.84	86
1042.29	78
1043.73	80
1045.18	66
1046.63	66
1048.08	70
1049.52	70
1050.97	70
1052.41	62
1053.86	62
1055.3	68
1056.75	66
1058.19	56
1059.64	66
1061.08	64
1062.52	56
1063.96	62
1065.41	56
1066.85	60
1068.29	56
1069.73	52
1071.17	60
1072.61	56
1074.05	58
1075.49	58
1076.93	60
1078.37	58
1079.81	58
1081.25	58
1082.68	58
1084.12	62
1085.56	56
1087	60
1088.43	62
1089.87	60
1091.3	60
1092.74	60
1094.17	60
1095.61	62
1097.04	66
1098.48	64
1099.91	72
1101.34	76
1102.78	84
1104.21	90
1105.64	92
1107.07	122
1108.5	164
1109.93	222
1111.36	272
1112.8	302
1114.22	256
1115.65	226
1117.08	184
1118.51	130
1119.94	114
1121.37	110
1122.8	98
1124.22	94
1125.65	88
1127.08	88
1128.5	76
1129.93	76
1131.35	76
1132.78	78
1134.2	82
1135.63	84
1137.05	78
1138.48	70
1139.9	78
1141.32	90
1142.75	74
1144.17	76
1145.59	80
1147.01	70
1148.43	62
1149.85	64
1151.27	74
1152.69	60
1154.11	72
1155.53	76
1156.95	78
1158.37	72
1159.79	82
1161.21	84
1162.62	88
1164.04	80
1165.46	86
1166.87	76
1168.29	76
1169.71	82
1171.12	70
1172.54	74
1173.95	84
1175.37	80
1176.78	94
1178.19	96
1179.61	112
1181.02	122
1182.43	148
1183.84	178
1185.26	200
1186.67	212
1188.08	194
1189.49	172
1190.9	150
1192.31	148
1193.72	130
1195.13	132
1196.54	138
1197.95	134
1199.36	142
1200.76	146
1202.17	150
1203.58	156
1204.99	136
1206.39	146
1207.8	126
1209.2	116
1210.61	102
1212.01	90
1213.42	92
1214.82	86
1216.23	86
1217.63	80
1219.03	74
1220.44	72
1221.84	74
1223.24	84
1224.64	86
1226.05	88
1227.45	112
1228.85	116
1230.25	120
1231.65	114
1233.05	106
1234.45	96
1235.85	90
1237.25	82
1238.64	86
1240.04	78
1241.44	86
1242.84	76
1244.23	80
1245.63	84
1247.03	82
1248.42	84
1249.82	86
1251.21	92
1252.61	90
1254	80
1255.4	78
1256.79	80
1258.19	84
1259.58	86
1260.97	86
1262.36	84
1263.76	82
1265.15	78
1266.54	90
1267.93	88
1269.32	90
1270.71	76
1272.1	84
1273.49	96
1274.88	94
1276.27	94
1277.66	98
1279.05	106
1280.43	116
1281.82	110
1283.21	132
1284.6	122
1285.98	122
1287.37	140
1288.75	134
1290.14	148
1291.53	150
1292.91	158
1294.29	180
1295.68	214
1297.06	260
1298.45	312
1299.83	362
1301.21	464
1302.59	550
1303.98	636
1305.36	644
1306.74	606
1308.12	538
1309.5	414
1310.88	360
1312.26	280
1313.64	252
1315.02	228
1316.4	210
1317.78	190
1319.16	182
1320.53	176
1321.91	160
1323.29	170
1324.67	158
1326.04	166
1327.42	156
1328.79	172
1330.17	152
1331.54	150
1332.92	142
1334.29	128
1335.67	140
1337.04	132
1338.42	136
1339.79	128
1341.16	142
1342.53	142
1343.91	136
1345.28	146
1346.65	152
1348.02	158
1349.39	156
1350.76	144
1352.13	150
1353.5	152
1354.87	142
1356.24	134
1357.61	124
1358.98	142
1360.34	130
1361.71	124
1363.08	134
1364.45	138
1365.81	118
1367.18	142
1368.54	144
1369.91	148
1371.28	168
1372.64	200
1374.01	236
1375.37	280
1376.73	318
1378.1	360
1379.46	358
1380.82	356
1382.19	348
1383.55	298
1384.91	278
1386.27	236
1387.63	202
1388.99	182
1390.35	152
1391.71	142
1393.07	144
1394.43	122
1395.79	118
1397.15	126
1398.51	122
1399.87	112
1401.23	124
1402.58	122
1403.94	122
1405.3	128
1406.65	126
1408.01	122
1409.37	122
1410.72	124
1412.08	124
1413.43	120
1414.79	130
1416.14	130
1417.49	136
1418.85	138
1420.2	134
1421.55	154
1422.91	154
1424.26	150
1425.61	160
1426.96	164
1428.31	166
1429.66	154
1431.01	162
1432.36	168
1433.71	172
1435.06	170
1436.41	184
1437.76	186
1439.11	202
1440.46	192
1441.81	174
1443.15	178
1444.5	180
1445.85	176
1447.19	164
1448.54	152
1449.89	158
1451.23	168
1452.58	152
1453.92	156
1455.27	138
1456.61	146
1457.95	146
1459.3	146
1460.64	146
1461.98	128
1463.33	140
1464.67	132
1466.01	134
1467.35	138
1468.69	142
1470.03	132
1471.37	124
1472.71	128
1474.05	132
1475.39	126
1476.73	122
1478.07	132
1479.41	128
1480.75	120
1482.09	126
1483.42	124
1484.76	124
1486.1	116
1487.43	108
1488.77	108
1490.11	106
1491.44	114
1492.78	106
1494.11	106
1495.45	110
1496.78	104
1498.12	112
1499.45	96
1500.78	112
1502.11	104
1503.45	106
1504.78	98
1506.11	102
1507.44	104
1508.77	104
1510.11	102
1511.44	100
1512.77	96
1514.1	106
1515.43	104
1516.76	102
1518.08	100
1519.41	98
1520.74	102
1522.07	104
1523.4	94
1524.72	92
1526.05	100
1527.38	98
1528.7	94
1530.03	102
1531.36	112
1532.68	100
1534.01	92
1535.33	96
1536.66	92
1537.98	98
1539.3	96
1540.63	100
1541.95	96
1543.27	98
1544.6	86
1545.92	98
1547.24	102
1548.56	96
1549.88	100
1551.2	90
1552.52	106
1553.84	100
1555.17	94
1556.48	92
1557.8	98
1559.12	84
1560.44	100
1561.76	100
1563.08	102
1564.4	100
1565.71	96
1567.03	100
1568.35	108
1569.66	106
1570.98	108
1572.29	102
1573.61	116
1574.93	122
1576.24	116
1577.55	116
1578.87	124
1580.18	132
1581.5	140
1582.81	146
1584.12	154
1585.43	166
1586.75	168
1588.06	208
1589.37	216
1590.68	218
1591.99	244
1593.3	284
1594.61	282
1595.92	310
1597.23	340
1598.54	364
1599.85	384
1601.16	388
1602.47	400
1603.78	404
1605.08	370
1606.39	342
1607.7	348
1609	318
1610.31	306
1611.62	278
1612.92	252
1614.23	244
1615.53	214
1616.84	194
1618.14	186
1619.45	154
1620.75	150
1622.06	122
1623.36	134
1624.66	122
1625.96	114
1627.27	106
1628.57	102
1629.87	116
1631.17	98
1632.47	76
1633.77	86
1635.07	92
1636.37	86
1637.67	86
1638.97	86
1640.27	92
1641.57	78
1642.87	82
1644.17	86
1645.47	76
1646.76	82
1648.06	84
1649.36	84
1650.66	76
1651.95	74
1653.25	84
1654.54	78
1655.84	82
1657.13	78
1658.43	76
1659.72	74
1661.02	74
1662.31	66
1663.6	74
1664.9	66
1666.19	78
1667.48	66
1668.78	70
1670.07	74
1671.36	68
1672.65	70
1673.94	76
1675.23	80
1676.52	76
1677.81	74
1679.1	68
1680.39	80
1681.68	66
1682.97	60
1684.26	78
1685.55	76
1686.83	78
1688.12	78
1689.41	72
1690.7	74
1691.98	72
1693.27	76
1694.55	76
1695.84	76
1697.13	70
1698.41	72
1699.69	74
1700.98	64
1702.26	72