File: Jesse_Dataset_v2/Pure Raman/Polypropylene oxide/785nm/ps-ppo-6jan25-0,0000-map2_Y10_X08.txt
204.377	342
206.045	336
207.713	340
209.38	340
211.048	312
212.715	306
214.381	306
216.047	298
217.712	330
219.377	342
221.042	346
222.706	382
224.369	410
226.032	488
227.695	612
229.357	748
231.019	826
232.68	902
234.341	892
236.001	906
237.661	838
239.321	762
240.98	716
242.639	650
244.297	544
245.955	532
247.612	482
249.268	402
250.924	364
252.58	338
254.236	304
255.891	266
257.546	250
259.2	226
260.854	210
262.507	190
264.16	182
265.812	194
267.463	168
269.115	174
270.766	172
272.417	166
274.067	168
275.717	164
277.365	176
279.014	178
280.663	176
282.311	186
283.958	216
285.605	246
287.252	284
288.898	308
290.543	346
292.188	384
293.833	422
295.477	406
297.121	414
298.765	372
300.407	368
302.05	314
303.693	276
305.334	296
306.975	270
308.615	256
310.256	236
311.896	242
313.535	226
315.175	224
316.813	218
318.451	210
320.089	212
321.726	214
323.362	220
324.999	220
326.635	216
328.271	234
329.905	240
331.54	254
333.174	270
334.807	254
336.441	224
338.074	228
339.707	218
341.338	216
342.969	192
344.601	204
346.231	198
347.861	204
349.491	198
351.12	210
352.749	188
354.378	192
356.006	184
357.633	188
359.261	190
360.887	182
362.513	178
364.139	176
365.764	180
367.39	182
369.014	190
370.638	184
372.261	178
373.884	180
375.508	172
377.13	174
378.752	152
380.373	146
381.994	124
383.615	120
385.235	134
386.854	138
388.473	126
390.092	132
391.711	106
393.328	106
394.947	104
396.564	108
398.181	122
399.797	120
401.412	126
403.027	122
404.642	124
406.257	128
407.871	146
409.484	164
411.098	190
412.711	198
414.323	196
415.935	190
417.547	180
419.158	166
420.768	150
422.378	140
423.988	134
425.597	116
427.206	118
428.814	100
430.422	94
432.03	104
433.637	90
435.243	92
436.85	90
438.456	78
440.062	84
441.666	86
443.271	80
444.876	80
446.479	80
448.082	76
449.685	78
451.287	70
452.89	74
454.492	80
456.092	72
457.693	76
459.293	86
460.893	80
462.492	84
464.092	88
465.691	94
467.288	112
468.887	120
470.483	134
472.081	144
473.677	166
475.273	184
476.869	190
478.463	206
480.059	216
481.653	238
483.247	244
484.84	270
486.433	266
488.026	226
489.618	192
491.21	162
492.801	142
494.392	134
495.983	118
497.573	108
499.162	102
500.752	92
502.341	100
503.929	102
505.517	98
507.105	102
508.692	118
510.279	152
511.865	178
513.45	210
515.037	182
516.621	148
518.206	144
519.79	146
521.374	140
522.957	146
524.54	158
526.123	170
527.705	182
529.287	212
530.868	242
532.448	278
534.029	330
535.609	370
537.188	400
538.768	384
540.346	412
541.925	368
543.502	346
545.08	288
546.657	244
548.234	200
549.81	182
551.386	178
552.961	186
554.536	200
556.11	214
557.684	250
559.258	286
560.832	380
562.405	470
563.977	678
565.55	982
567.12	1364
568.692	1776
570.263	2150
571.833	2182
573.403	1740
574.973	1306
576.542	916
578.111	590
579.679	442
581.247	370
582.815	340
584.382	312
585.948	302
587.514	294
589.081	274
590.645	256
592.211	264
593.775	232
595.339	230
596.904	218
598.466	192
600.03	160
601.592	136
603.154	128
604.715	106
606.277	106
607.838	94
609.398	90
610.958	94
612.518	86
614.077	88
615.636	86
617.194	82
618.753	92
620.31	92
621.867	100
623.424	104
624.98	106
626.537	118
628.092	122
629.647	120
631.202	142
632.756	130
634.31	148
635.864	140
637.417	144
638.969	130
640.521	126
642.074	112
643.625	118
645.176	112
646.726	96
648.276	88
649.827	100
651.376	92
652.925	76
654.473	84
656.021	82
657.569	72
659.117	78
660.664	70
662.21	70
663.757	68
665.302	62
666.847	60
668.392	62
669.937	68
671.481	56
673.025	68
674.568	56
676.111	52
677.653	52
679.195	54
680.737	56
682.279	52
683.82	52
685.36	58
686.9	58
688.44	56
689.979	62
691.517	56
693.056	60
694.594	62
696.132	56
697.669	54
699.206	56
700.742	62
702.278	60
703.814	62
705.35	60
706.884	68
708.419	76
709.953	72
711.487	78
713.019	90
714.552	86
716.085	80
717.617	84
719.148	84
720.68	76
722.21	76
723.741	72
725.271	70
726.8	74
728.33	68
729.858	76
731.387	76
732.915	72
734.443	80
735.97	76
737.497	78
739.023	84
740.549	90
742.075	94
743.6	102
745.125	120
746.65	130
748.173	136
749.697	130
751.22	122
752.743	116
754.266	106
755.788	108
757.309	108
758.831	90
760.351	76
761.871	62
763.392	72
764.912	72
766.431	70
767.95	70
769.468	64
770.986	64
772.504	74
774.022	76
775.538	78
777.055	70
778.571	66
780.086	76
781.602	78
783.117	60
784.632	72
786.146	72
787.659	68
789.173	74
790.685	66
792.198	64
793.71	62
795.222	54
796.733	70
798.244	64
799.755	68
801.265	66
802.775	60
804.284	66
805.793	62
807.302	74
808.81	76
810.318	70
811.826	68
813.333	74
814.84	74
816.346	70
817.851	78
819.357	82
820.862	86
822.367	92
823.871	102
825.376	126
826.878	154
828.382	232
829.885	324
831.387	452
832.889	540
834.391	504
835.892	358
837.392	218
838.893	160
840.393	128
841.893	104
843.392	100
844.891	98
846.389	90
847.888	98
849.386	86
850.882	96
852.38	88
853.876	80
855.372	90
856.868	94
858.363	78
859.858	84
861.353	72
862.847	80
864.341	70
865.834	68
867.328	66
868.82	66
870.313	66
871.805	62
873.296	66
874.787	58
876.278	56
877.769	62
879.258	60
880.748	54
882.237	58
883.726	50
885.214	54
886.702	64
888.19	62
889.677	56
891.164	56
892.651	56
894.137	54
895.623	62
897.108	50
898.593	48
900.077	46
901.562	60
903.046	54
904.529	54
906.012	58
907.495	58
908.977	58
910.459	56
911.941	58
913.422	54
914.903	50
916.383	60
917.863	54
919.343	62
920.822	50
922.301	60
923.779	54
925.257	54
926.735	64
928.213	62
929.69	58
931.166	66
932.643	66
934.119	62
935.594	60
937.069	70
938.543	68
940.018	80
941.492	76
942.966	78
944.439	88
945.911	92
947.384	118
948.856	126
950.328	152
951.799	156
953.27	194
954.741	248
956.21	268
957.68	320
959.15	336
960.619	332
962.088	340
963.556	306
965.023	260
966.491	244
967.958	220
969.425	184
970.891	174
972.357	154
973.824	122
975.288	116
976.754	88
978.218	78
979.682	78
981.146	76
982.609	74
984.072	74
985.534	76
986.997	60
988.459	70
989.92	66
991.382	70
992.842	74
994.302	70
995.763	58
997.222	60
998.681	62
1000.14	60
1001.6	60
1003.06	62
1004.52	62
1005.97	64
1007.43	62
1008.89	66
1010.34	62
1011.8	58
1013.25	72
1014.71	74
1016.16	64
1017.62	70
1019.07	70
1020.53	78
1021.98	70
1023.43	76
1024.89	82
1026.34	78
1027.79	84
1029.24	90
1030.69	94
1032.14	100
1033.59	92
1035.04	96
1036.49	86
1037.94	96
1039.39	90
1040.84	84
1042.29	84
1043.73	72
1045.18	74
1046.63	70
1048.08	70
1049.52	80
1050.97	76
1052.41	66
1053.86	66
1055.3	62
1056.75	62
1058.19	68
1059.64	56
1061.08	70
1062.52	64
1063.96	58
1065.41	60
1066.85	62
1068.29	62
1069.73	64
1071.17	66
1072.61	66
1074.05	60
1075.49	56
1076.93	66
1078.37	60
1079.81	62
1081.25	62
1082.68	56
1084.12	64
1085.56	58
1087	70
1088.43	64
1089.87	66
1091.3	68
1092.74	62
1094.17	76
1095.61	64
1097.04	68
1098.48	74
1099.91	72
1101.34	84
1102.78	92
1104.21	96
1105.64	104
1107.07	128
1108.5	186
1109.93	250
1111.36	312
1112.8	330
1114.22	290
1115.65	216
1117.08	172
1118.51	140
1119.94	130
1121.37	104
1122.8	104
1124.22	102
1125.65	90
1127.08	84
1128.5	78
1129.93	88
1131.35	82
1132.78	74
1134.2	84
1135.63	80
1137.05	88
1138.48	90
1139.9	80
1141.32	78
1142.75	90
1144.17	74
1145.59	76
1147.01	74
1148.43	70
1149.85	66
1151.27	74
1152.69	68
1154.11	68
1155.53	72
1156.95	82
1158.37	84
1159.79	82
1161.21	84
1162.62	88
1164.04	92
1165.46	92
1166.87	82
1168.29	82
1169.71	88
1171.12	74
1172.54	76
1173.95	86
1175.37	100
1176.78	96
1178.19	106
1179.61	118
1181.02	130
1182.43	154
1183.84	192
1185.26	226
1186.67	220
1188.08	210
1189.49	190
1190.9	168
1192.31	148
1193.72	148
1195.13	138
1196.54	148
1197.95	152
1199.36	136
1200.76	158
1202.17	156
1203.58	164
1204.99	150
1206.39	146
1207.8	140
1209.2	112
1210.61	104
1212.01	102
1213.42	82
1214.82	78
1216.23	90
1217.63	86
1219.03	82
1220.44	80
1221.84	84
1223.24	90
1224.64	92
1226.05	110
1227.45	112
1228.85	122
1230.25	138
1231.65	124
1233.05	114
1234.45	96
1235.85	100
1237.25	84
1238.64	84
1240.04	80
1241.44	82
1242.84	80
1244.23	84
1245.63	78
1247.03	82
1248.42	80
1249.82	86
1251.21	86
1252.61	86
1254	80
1255.4	84
1256.79	90
1258.19	80
1259.58	88
1260.97	88
1262.36	90
1263.76	88
1265.15	86
1266.54	94
1267.93	88
1269.32	88
1270.71	92
1272.1	92
1273.49	98
1274.88	94
1276.27	104
1277.66	96
1279.05	112
1280.43	106
1281.82	122
1283.21	132
1284.6	126
1285.98	138
1287.37	136
1288.75	148
1290.14	150
1291.53	158
1292.91	174
1294.29	200
1295.68	220
1297.06	274
1298.45	328
1299.83	382
1301.21	518
1302.59	606
1303.98	720
1305.36	702
1306.74	678
1308.12	576
1309.5	450
1310.88	382
1312.26	304
1313.64	264
1315.02	260
1316.4	210
1317.78	194
1319.16	188
1320.53	188
1321.91	172
1323.29	160
1324.67	186
1326.04	168
1327.42	164
1328.79	168
1330.17	150
1331.54	156
1332.92	154
1334.29	148
1335.67	150
1337.04	138
1338.42	140
1339.79	124
1341.16	130
1342.53	132
1343.91	148
1345.28	152
1346.65	144
1348.02	162
1349.39	136
1350.76	156
1352.13	158
1353.5	156
1354.87	152
1356.24	142
1357.61	138
1358.98	140
1360.34	132
1361.71	136
1363.08	126
1364.45	138
1365.81	140
1367.18	152
1368.54	160
1369.91	158
1371.28	184
1372.64	216
1374.01	286
1375.37	328
1376.73	362
1378.1	370
1379.46	404
1380.82	382
1382.19	372
1383.55	336
1384.91	276
1386.27	228
1387.63	212
1388.99	190
1390.35	152
1391.71	140
1393.07	140
1394.43	140
1395.79	130
1397.15	126
1398.51	118
1399.87	124
1401.23	136
1402.58	130
1403.94	120
1405.3	124
1406.65	118
1408.01	124
1409.37	118
1410.72	134
1412.08	128
1413.43	132
1414.79	146
1416.14	138
1417.49	132
1418.85	154
1420.2	152
1421.55	170
1422.91	158
1424.26	166
1425.61	172
1426.96	180
1428.31	174
1429.66	176
1431.01	184
1432.36	184
1433.71	184
1435.06	190
1436.41	184
1437.76	200
1439.11	210
1440.46	198
1441.81	200
1443.15	202
1444.5	192
1445.85	172
1447.19	170
1448.54	164
1449.89	160
1451.23	166
1452.58	162
1453.92	158
1455.27	146
1456.61	152
1457.95	148
1459.3	150
1460.64	144
1461.98	152
1463.33	148
1464.67	144
1466.01	146
1467.35	134
1468.69	134
1470.03	142
1471.37	130
1472.71	134
1474.05	142
1475.39	138
1476.73	148
1478.07	136
1479.41	124
1480.75	124
1482.09	126
1483.42	128
1484.76	124
1486.1	116
1487.43	110
1488.77	118
1490.11	110
1491.44	116
1492.78	110
1494.11	120
1495.45	110
1496.78	120
1498.12	106
1499.45	94
1500.78	116
1502.11	110
1503.45	110
1504.78	102
1506.11	108
1507.44	112
1508.77	112
1510.11	96
1511.44	98
1512.77	102
1514.1	108
1515.43	106
1516.76	108
1518.08	96
1519.41	106
1520.74	104
1522.07	102
1523.4	102
1524.72	102
1526.05	98
1527.38	108
1528.7	110
1530.03	106
1531.36	96
1532.68	96
1534.01	100
1535.33	104
1536.66	98
1537.98	96
1539.3	102
1540.63	102
1541.95	102
1543.27	108
1544.6	108
1545.92	96
1547.24	94
1548.56	92
1549.88	104
1551.2	102
1552.52	102
1553.84	98
1555.17	112
1556.48	98
1557.8	112
1559.12	106
1560.44	106
1561.76	98
1563.08	98
1564.4	106
1565.71	112
1567.03	108
1568.35	104
1569.66	110
1570.98	110
1572.29	116
1573.61	126
1574.93	126
1576.24	132
1577.55	118
1578.87	134
1580.18	128
1581.5	144
1582.81	148
1584.12	158
1585.43	172
1586.75	190
1588.06	202
1589.37	220
1590.68	240
1591.99	274
1593.3	290
1594.61	314
1595.92	348
1597.23	364
1598.54	394
1599.85	432
1601.16	442
1602.47	458
1603.78	440
1605.08	426
1606.39	408
1607.7	356
1609	348
1610.31	334
1611.62	288
1612.92	286
1614.23	244
1615.53	234
1616.84	216
1618.14	192
1619.45	156
1620.75	160
1622.06	146
1623.36	132
1624.66	118
1625.96	120
1627.27	110
1628.57	108
1629.87	106
1631.17	90
1632.47	98
1633.77	92
1635.07	96
1636.37	86
1637.67	92
1638.97	84
1640.27	92
1641.57	86
1642.87	82
1644.17	84
1645.47	88
1646.76	88
1648.06	84
1649.36	88
1650.66	78
1651.95	82
1653.25	76
1654.54	84
1655.84	78
1657.13	76
1658.43	80
1659.72	76
1661.02	70
1662.31	72
1663.6	86
1664.9	66
1666.19	70
1667.48	76
1668.78	68
1670.07	70
1671.36	74
1672.65	78
1673.94	70
1675.23	78
1676.52	76
1677.81	72
1679.1	72
1680.39	68
1681.68	72
1682.97	72
1684.26	78
1685.55	72
1686.83	84
1688.12	76
1689.41	76
1690.7	74
1691.98	74
1693.27	72
1694.55	78
1695.84	76
1697.13	76
1698.41	78
1699.69	72
1700.98	68
1702.26	74