File: Jesse_Dataset_v2/Pure Raman/Polypropylene oxide/785nm/ps-ppo-6jan25-0,0000-map2_Y10_X06.txt
204.377	368
206.045	356
207.713	344
209.38	322
211.048	316
212.715	310
214.381	306
216.047	302
217.712	308
219.377	326
221.042	350
222.706	386
224.369	446
226.032	524
227.695	626
229.357	716
231.019	840
232.68	838
234.341	930
236.001	888
237.661	848
239.321	762
240.98	718
242.639	656
244.297	598
245.955	518
247.612	478
249.268	410
250.924	372
252.58	322
254.236	308
255.891	276
257.546	254
259.2	230
260.854	214
262.507	194
264.16	182
265.812	186
267.463	182
269.115	168
270.766	170
272.417	158
274.067	174
275.717	180
277.365	170
279.014	184
280.663	196
282.311	202
283.958	224
285.605	234
287.252	272
288.898	314
290.543	352
292.188	374
293.833	416
295.477	394
297.121	408
298.765	402
300.407	358
302.05	326
303.693	300
305.334	288
306.975	260
308.615	252
310.256	240
311.896	228
313.535	224
315.175	224
316.813	206
318.451	210
320.089	218
321.726	208
323.362	198
324.999	234
326.635	244
328.271	224
329.905	244
331.54	238
333.174	242
334.807	248
336.441	242
338.074	238
339.707	218
341.338	212
342.969	206
344.601	206
346.231	206
347.861	192
349.491	196
351.12	190
352.749	190
354.378	198
356.006	186
357.633	204
359.261	192
360.887	176
362.513	190
364.139	182
365.764	176
367.39	172
369.014	170
370.638	178
372.261	180
373.884	172
375.508	178
377.13	156
378.752	154
380.373	156
381.994	138
383.615	138
385.235	136
386.854	132
388.473	126
390.092	120
391.711	130
393.328	118
394.947	116
396.564	120
398.181	118
399.797	116
401.412	110
403.027	120
404.642	134
406.257	132
407.871	146
409.484	170
411.098	176
412.711	202
414.323	200
415.935	198
417.547	182
419.158	182
420.768	154
422.378	128
423.988	126
425.597	118
427.206	116
428.814	114
430.422	104
432.03	108
433.637	88
435.243	92
436.85	94
438.456	88
440.062	84
441.666	78
443.271	78
444.876	80
446.479	78
448.082	70
449.685	82
451.287	80
452.89	76
454.492	76
456.092	76
457.693	78
459.293	80
460.893	88
462.492	90
464.092	86
465.691	98
467.288	108
468.887	126
470.483	130
472.081	140
473.677	148
475.273	186
476.869	186
478.463	206
480.059	222
481.653	254
483.247	276
484.84	264
486.433	272
488.026	216
489.618	192
491.21	162
492.801	154
494.392	134
495.983	110
497.573	108
499.162	94
500.752	104
502.341	94
503.929	94
505.517	100
507.105	104
508.692	122
510.279	168
511.865	178
513.45	212
515.037	186
516.621	164
518.206	140
519.79	126
521.374	136
522.957	142
524.54	166
526.123	172
527.705	188
529.287	208
530.868	250
532.448	294
534.029	342
535.609	384
537.188	404
538.768	418
540.346	406
541.925	386
543.502	334
545.08	282
546.657	240
548.234	208
549.81	182
551.386	170
552.961	178
554.536	192
556.11	206
557.684	248
559.258	292
560.832	370
562.405	488
563.977	716
565.55	950
567.12	1306
568.692	1812
570.263	2138
571.833	2118
573.403	1820
574.973	1320
576.542	926
578.111	618
579.679	436
581.247	344
582.815	328
584.382	318
585.948	316
587.514	290
589.081	276
590.645	256
592.211	260
593.775	246
595.339	232
596.904	220
598.466	190
600.03	160
601.592	138
603.154	120
604.715	104
606.277	94
607.838	90
609.398	98
610.958	92
612.518	94
614.077	82
615.636	90
617.194	86
618.753	96
620.31	92
621.867	98
623.424	98
624.98	112
626.537	104
628.092	122
629.647	124
631.202	124
632.756	126
634.31	134
635.864	148
637.417	138
638.969	138
640.521	126
642.074	124
643.625	116
645.176	104
646.726	108
648.276	98
649.827	92
651.376	92
652.925	82
654.473	82
656.021	80
657.569	68
659.117	80
660.664	72
662.21	70
663.757	64
665.302	66
666.847	66
668.392	66
669.937	64
671.481	56
673.025	56
674.568	60
676.111	64
677.653	66
679.195	54
680.737	56
682.279	56
683.82	60
685.36	62
686.9	58
688.44	62
689.979	60
691.517	60
693.056	62
694.594	56
696.132	62
697.669	52
699.206	60
700.742	54
702.278	56
703.814	66
705.35	62
706.884	64
708.419	76
709.953	80
711.487	70
713.019	88
714.552	102
716.085	94
717.617	84
719.148	82
720.68	74
722.21	72
723.741	74
725.271	74
726.8	76
728.33	68
729.858	68
731.387	76
732.915	70
734.443	84
735.97	76
737.497	80
739.023	86
740.549	86
742.075	86
743.6	100
745.125	120
746.65	142
748.173	128
749.697	128
751.22	108
752.743	116
754.266	118
755.788	92
757.309	102
758.831	80
760.351	76
761.871	72
763.392	70
764.912	70
766.431	70
767.95	62
769.468	64
770.986	66
772.504	70
774.022	68
775.538	68
777.055	82
778.571	76
780.086	74
781.602	70
783.117	70
784.632	68
786.146	72
787.659	64
789.173	62
790.685	68
792.198	72
793.71	60
795.222	58
796.733	66
798.244	64
799.755	60
801.265	58
802.775	66
804.284	60
805.793	76
807.302	72
808.81	74
810.318	78
811.826	70
813.333	66
814.84	76
816.346	80
817.851	72
819.357	78
820.862	88
822.367	96
823.871	98
825.376	126
826.878	158
828.382	220
829.885	304
831.387	440
832.889	556
834.391	490
835.892	364
837.392	242
838.893	168
840.393	128
841.893	108
843.392	98
844.891	86
846.389	88
847.888	94
849.386	88
850.882	82
852.38	78
853.876	84
855.372	82
856.868	78
858.363	78
859.858	80
861.353	74
862.847	68
864.341	60
865.834	70
867.328	68
868.82	68
870.313	64
871.805	62
873.296	60
874.787	62
876.278	54
877.769	58
879.258	56
880.748	62
882.237	60
883.726	58
885.214	52
886.702	54
888.19	50
889.677	50
891.164	56
892.651	52
894.137	56
895.623	58
897.108	58
898.593	58
900.077	54
901.562	54
903.046	56
904.529	56
906.012	54
907.495	52
908.977	62
910.459	56
911.941	50
913.422	58
914.903	54
916.383	58
917.863	62
919.343	54
920.822	64
922.301	58
923.779	56
925.257	56
926.735	62
928.213	58
929.69	60
931.166	54
932.643	56
934.119	62
935.594	64
937.069	62
938.543	74
940.018	76
941.492	70
942.966	84
944.439	76
945.911	102
947.384	110
948.856	134
950.328	146
951.799	178
953.27	198
954.741	236
956.21	276
957.68	326
959.15	336
960.619	342
962.088	334
963.556	314
965.023	274
966.491	234
967.958	208
969.425	202
970.891	166
972.357	148
973.824	128
975.288	104
976.754	104
978.218	82
979.682	86
981.146	82
982.609	76
984.072	70
985.534	70
986.997	68
988.459	64
989.92	64
991.382	68
992.842	74
994.302	60
995.763	60
997.222	62
998.681	62
1000.14	60
1001.6	60
1003.06	60
1004.52	62
1005.97	54
1007.43	62
1008.89	64
1010.34	62
1011.8	62
1013.25	60
1014.71	58
1016.16	70
1017.62	68
1019.07	72
1020.53	72
1021.98	78
1023.43	80
1024.89	82
1026.34	76
1027.79	84
1029.24	78
1030.69	88
1032.14	98
1033.59	96
1035.04	80
1036.49	92
1037.94	82
1039.39	86
1040.84	80
1042.29	82
1043.73	80
1045.18	66
1046.63	68
1048.08	70
1049.52	66
1050.97	68
1052.41	60
1053.86	66
1055.3	68
1056.75	62
1058.19	62
1059.64	64
1061.08	60
1062.52	62
1063.96	56
1065.41	64
1066.85	58
1068.29	58
1069.73	60
1071.17	58
1072.61	66
1074.05	56
1075.49	68
1076.93	60
1078.37	58
1079.81	60
1081.25	64
1082.68	60
1084.12	66
1085.56	64
1087	56
1088.43	54
1089.87	66
1091.3	68
1092.74	66
1094.17	68
1095.61	70
1097.04	76
1098.48	70
1099.91	66
1101.34	74
1102.78	88
1104.21	96
1105.64	104
1107.07	138
1108.5	180
1109.93	234
1111.36	300
1112.8	330
1114.22	292
1115.65	242
1117.08	184
1118.51	138
1119.94	120
1121.37	102
1122.8	98
1124.22	88
1125.65	96
1127.08	82
1128.5	86
1129.93	80
1131.35	82
1132.78	76
1134.2	82
1135.63	80
1137.05	76
1138.48	80
1139.9	80
1141.32	82
1142.75	70
1144.17	78
1145.59	72
1147.01	74
1148.43	68
1149.85	70
1151.27	70
1152.69	72
1154.11	74
1155.53	70
1156.95	84
1158.37	76
1159.79	80
1161.21	96
1162.62	94
1164.04	84
1165.46	84
1166.87	76
1168.29	76
1169.71	82
1171.12	72
1172.54	78
1173.95	84
1175.37	102
1176.78	98
1178.19	106
1179.61	120
1181.02	138
1182.43	156
1183.84	186
1185.26	208
1186.67	236
1188.08	218
1189.49	196
1190.9	182
1192.31	170
1193.72	138
1195.13	138
1196.54	138
1197.95	148
1199.36	156
1200.76	158
1202.17	172
1203.58	160
1204.99	140
1206.39	144
1207.8	126
1209.2	120
1210.61	114
1212.01	120
1213.42	90
1214.82	92
1216.23	88
1217.63	88
1219.03	80
1220.44	90
1221.84	88
1223.24	94
1224.64	94
1226.05	102
1227.45	106
1228.85	128
1230.25	128
1231.65	126
1233.05	120
1234.45	104
1235.85	98
1237.25	96
1238.64	82
1240.04	82
1241.44	92
1242.84	78
1244.23	82
1245.63	94
1247.03	78
1248.42	78
1249.82	86
1251.21	84
1252.61	88
1254	76
1255.4	88
1256.79	88
1258.19	88
1259.58	86
1260.97	80
1262.36	86
1263.76	86
1265.15	86
1266.54	96
1267.93	98
1269.32	82
1270.71	94
1272.1	98
1273.49	98
1274.88	86
1276.27	94
1277.66	100
1279.05	118
1280.43	126
1281.82	116
1283.21	122
1284.6	126
1285.98	150
1287.37	140
1288.75	148
1290.14	150
1291.53	160
1292.91	182
1294.29	200
1295.68	242
1297.06	262
1298.45	304
1299.83	390
1301.21	492
1302.59	600
1303.98	686
1305.36	720
1306.74	688
1308.12	606
1309.5	470
1310.88	388
1312.26	316
1313.64	270
1315.02	244
1316.4	208
1317.78	208
1319.16	186
1320.53	188
1321.91	178
1323.29	168
1324.67	166
1326.04	172
1327.42	172
1328.79	176
1330.17	168
1331.54	164
1332.92	156
1334.29	140
1335.67	132
1337.04	140
1338.42	134
1339.79	144
1341.16	148
1342.53	146
1343.91	140
1345.28	140
1346.65	146
1348.02	150
1349.39	152
1350.76	142
1352.13	160
1353.5	154
1354.87	156
1356.24	152
1357.61	130
1358.98	140
1360.34	142
1361.71	136
1363.08	146
1364.45	138
1365.81	140
1367.18	162
1368.54	158
1369.91	164
1371.28	188
1372.64	198
1374.01	266
1375.37	312
1376.73	368
1378.1	380
1379.46	398
1380.82	370
1382.19	376
1383.55	324
1384.91	282
1386.27	256
1387.63	226
1388.99	184
1390.35	166
1391.71	150
1393.07	140
1394.43	132
1395.79	122
1397.15	118
1398.51	128
1399.87	124
1401.23	130
1402.58	130
1403.94	120
1405.3	126
1406.65	128
1408.01	132
1409.37	124
1410.72	134
1412.08	126
1413.43	120
1414.79	140
1416.14	136
1417.49	134
1418.85	144
1420.2	156
1421.55	156
1422.91	154
1424.26	164
1425.61	172
1426.96	176
1428.31	180
1429.66	166
1431.01	164
1432.36	170
1433.71	180
1435.06	182
1436.41	192
1437.76	208
1439.11	210
1440.46	194
1441.81	200
1443.15	188
1444.5	192
1445.85	174
1447.19	178
1448.54	178
1449.89	164
1451.23	156
1452.58	148
1453.92	162
1455.27	158
1456.61	148
1457.95	158
1459.3	150
1460.64	156
1461.98	146
1463.33	146
1464.67	150
1466.01	148
1467.35	134
1468.69	140
1470.03	132
1471.37	136
1472.71	142
1474.05	126
1475.39	138
1476.73	134
1478.07	134
1479.41	132
1480.75	132
1482.09	126
1483.42	130
1484.76	126
1486.1	124
1487.43	122
1488.77	120
1490.11	116
1491.44	120
1492.78	110
1494.11	106
1495.45	116
1496.78	104
1498.12	108
1499.45	106
1500.78	106
1502.11	104
1503.45	106
1504.78	100
1506.11	108
1507.44	100
1508.77	106
1510.11	112
1511.44	106
1512.77	108
1514.1	106
1515.43	118
1516.76	94
1518.08	104
1519.41	100
1520.74	104
1522.07	104
1523.4	106
1524.72	106
1526.05	98
1527.38	98
1528.7	100
1530.03	104
1531.36	108
1532.68	100
1534.01	106
1535.33	102
1536.66	92
1537.98	108
1539.3	98
1540.63	96
1541.95	100
1543.27	106
1544.6	98
1545.92	98
1547.24	104
1548.56	108
1549.88	110
1551.2	98
1552.52	96
1553.84	112
1555.17	104
1556.48	110
1557.8	100
1559.12	102
1560.44	110
1561.76	96
1563.08	108
1564.4	104
1565.71	106
1567.03	104
1568.35	114
1569.66	114
1570.98	116
1572.29	106
1573.61	120
1574.93	126
1576.24	130
1577.55	136
1578.87	138
1580.18	146
1581.5	152
1582.81	156
1584.12	162
1585.43	166
1586.75	190
1588.06	202
1589.37	224
1590.68	240
1591.99	260
1593.3	304
1594.61	318
1595.92	342
1597.23	366
1598.54	384
1599.85	422
1601.16	416
1602.47	432
1603.78	442
1605.08	434
1606.39	402
1607.7	376
1609	354
1610.31	326
1611.62	310
1612.92	266
1614.23	264
1615.53	224
1616.84	220
1618.14	198
1619.45	172
1620.75	166
1622.06	152
1623.36	124
1624.66	126
1625.96	114
1627.27	120
1628.57	106
1629.87	100
1631.17	108
1632.47	100
1633.77	92
1635.07	88
1636.37	90
1637.67	84
1638.97	88
1640.27	90
1641.57	76
1642.87	78
1644.17	80
1645.47	74
1646.76	72
1648.06	78
1649.36	80
1650.66	76
1651.95	78
1653.25	66
1654.54	72
1655.84	74
1657.13	78
1658.43	78
1659.72	74
1661.02	80
1662.31	76
1663.6	80
1664.9	78
1666.19	76
1667.48	76
1668.78	82
1670.07	84
1671.36	76
1672.65	66
1673.94	66
1675.23	74
1676.52	74
1677.81	72
1679.1	70
1680.39	70
1681.68	74
1682.97	68
1684.26	68
1685.55	76
1686.83	76
1688.12	72
1689.41	76
1690.7	72
1691.98	76
1693.27	76
1694.55	80
1695.84	78
1697.13	76
1698.41	70
1699.69	82
1700.98	74
1702.26	74