File: Jesse_Dataset_v2/Pure Raman/Polypropylene oxide/785nm/ps-ppo-6jan25-0,0000-map2_Y07_X08.txt
204.377	356
206.045	368
207.713	352
209.38	338
211.048	330
212.715	322
214.381	324
216.047	320
217.712	330
219.377	334
221.042	374
222.706	390
224.369	474
226.032	544
227.695	646
229.357	778
231.019	884
232.68	934
234.341	940
236.001	946
237.661	894
239.321	790
240.98	746
242.639	670
244.297	604
245.955	540
247.612	514
249.268	442
250.924	406
252.58	346
254.236	322
255.891	270
257.546	268
259.2	240
260.854	218
262.507	210
264.16	192
265.812	196
267.463	180
269.115	160
270.766	190
272.417	176
274.067	160
275.717	170
277.365	190
279.014	172
280.663	196
282.311	198
283.958	238
285.605	256
287.252	286
288.898	326
290.543	340
292.188	390
293.833	430
295.477	448
297.121	438
298.765	408
300.407	362
302.05	342
303.693	312
305.334	300
306.975	276
308.615	260
310.256	244
311.896	250
313.535	234
315.175	228
316.813	224
318.451	216
320.089	224
321.726	224
323.362	216
324.999	216
326.635	228
328.271	230
329.905	222
331.54	244
333.174	264
334.807	254
336.441	246
338.074	248
339.707	242
341.338	214
342.969	212
344.601	208
346.231	206
347.861	186
349.491	202
351.12	216
352.749	200
354.378	202
356.006	212
357.633	208
359.261	202
360.887	188
362.513	196
364.139	170
365.764	192
367.39	184
369.014	190
370.638	196
372.261	190
373.884	192
375.508	186
377.13	194
378.752	164
380.373	152
381.994	138
383.615	132
385.235	136
386.854	132
388.473	136
390.092	118
391.711	118
393.328	132
394.947	118
396.564	122
398.181	124
399.797	128
401.412	126
403.027	116
404.642	126
406.257	136
407.871	160
409.484	172
411.098	190
412.711	200
414.323	208
415.935	206
417.547	186
419.158	184
420.768	156
422.378	148
423.988	138
425.597	132
427.206	118
428.814	116
430.422	106
432.03	102
433.637	102
435.243	94
436.85	88
438.456	86
440.062	76
441.666	76
443.271	68
444.876	78
446.479	76
448.082	80
449.685	80
451.287	72
452.89	76
454.492	70
456.092	76
457.693	78
459.293	74
460.893	86
462.492	86
464.092	90
465.691	94
467.288	102
468.887	122
470.483	130
472.081	154
473.677	168
475.273	178
476.869	194
478.463	202
480.059	220
481.653	254
483.247	262
484.84	276
486.433	272
488.026	242
489.618	198
491.21	176
492.801	156
494.392	144
495.983	128
497.573	106
499.162	104
500.752	96
502.341	88
503.929	100
505.517	100
507.105	118
508.692	128
510.279	172
511.865	196
513.45	212
515.037	208
516.621	170
518.206	166
519.79	142
521.374	144
522.957	150
524.54	172
526.123	172
527.705	194
529.287	220
530.868	264
532.448	274
534.029	340
535.609	408
537.188	416
538.768	422
540.346	416
541.925	418
543.502	364
545.08	316
546.657	256
548.234	220
549.81	198
551.386	190
552.961	182
554.536	204
556.11	226
557.684	256
559.258	312
560.832	380
562.405	490
563.977	692
565.55	998
567.12	1410
568.692	1932
570.263	2260
571.833	2288
573.403	1938
574.973	1410
576.542	968
578.111	676
579.679	464
581.247	398
582.815	350
584.382	326
585.948	310
587.514	284
589.081	272
590.645	270
592.211	252
593.775	260
595.339	228
596.904	224
598.466	198
600.03	180
601.592	146
603.154	130
604.715	118
606.277	112
607.838	104
609.398	96
610.958	94
612.518	90
614.077	90
615.636	86
617.194	90
618.753	106
620.31	96
621.867	102
623.424	110
624.98	110
626.537	106
628.092	116
629.647	130
631.202	132
632.756	146
634.31	144
635.864	152
637.417	154
638.969	120
640.521	126
642.074	112
643.625	118
645.176	110
646.726	98
648.276	106
649.827	96
651.376	90
652.925	82
654.473	90
656.021	74
657.569	72
659.117	74
660.664	72
662.21	66
663.757	72
665.302	64
666.847	58
668.392	62
669.937	58
671.481	62
673.025	56
674.568	52
676.111	58
677.653	58
679.195	58
680.737	64
682.279	64
683.82	66
685.36	58
686.9	60
688.44	66
689.979	58
691.517	62
693.056	56
694.594	62
696.132	62
697.669	56
699.206	62
700.742	60
702.278	56
703.814	68
705.35	58
706.884	72
708.419	84
709.953	80
711.487	86
713.019	92
714.552	102
716.085	98
717.617	82
719.148	76
720.68	80
722.21	70
723.741	74
725.271	66
726.8	68
728.33	74
729.858	72
731.387	82
732.915	72
734.443	74
735.97	78
737.497	78
739.023	80
740.549	84
742.075	98
743.6	106
745.125	126
746.65	130
748.173	146
749.697	136
751.22	134
752.743	112
754.266	126
755.788	104
757.309	104
758.831	88
760.351	78
761.871	78
763.392	62
764.912	62
766.431	66
767.95	68
769.468	72
770.986	74
772.504	72
774.022	70
775.538	70
777.055	70
778.571	74
780.086	78
781.602	72
783.117	70
784.632	72
786.146	72
787.659	66
789.173	68
790.685	70
792.198	64
793.71	62
795.222	58
796.733	62
798.244	66
799.755	64
801.265	62
802.775	70
804.284	66
805.793	72
807.302	70
808.81	76
810.318	76
811.826	72
813.333	78
814.84	80
816.346	72
817.851	72
819.357	82
820.862	82
822.367	98
823.871	106
825.376	128
826.878	172
828.382	242
829.885	328
831.387	478
832.889	584
834.391	544
835.892	352
837.392	252
838.893	182
840.393	116
841.893	114
843.392	98
844.891	100
846.389	96
847.888	86
849.386	98
850.882	90
852.38	94
853.876	88
855.372	80
856.868	88
858.363	82
859.858	84
861.353	74
862.847	76
864.341	74
865.834	72
867.328	70
868.82	54
870.313	60
871.805	68
873.296	56
874.787	64
876.278	58
877.769	58
879.258	62
880.748	56
882.237	60
883.726	60
885.214	64
886.702	58
888.19	52
889.677	62
891.164	48
892.651	60
894.137	60
895.623	56
897.108	50
898.593	54
900.077	56
901.562	56
903.046	56
904.529	58
906.012	56
907.495	52
908.977	54
910.459	60
911.941	56
913.422	44
914.903	56
916.383	54
917.863	60
919.343	52
920.822	60
922.301	58
923.779	54
925.257	64
926.735	60
928.213	56
929.69	60
931.166	58
932.643	66
934.119	60
935.594	58
937.069	64
938.543	72
940.018	78
941.492	76
942.966	82
944.439	98
945.911	96
947.384	114
948.856	128
950.328	154
951.799	178
953.27	186
954.741	248
956.21	286
957.68	350
959.15	368
960.619	354
962.088	348
963.556	320
965.023	292
966.491	242
967.958	212
969.425	200
970.891	186
972.357	156
973.824	126
975.288	124
976.754	96
978.218	84
979.682	84
981.146	74
982.609	70
984.072	76
985.534	70
986.997	74
988.459	66
989.92	70
991.382	74
992.842	78
994.302	68
995.763	64
997.222	60
998.681	58
1000.14	56
1001.6	66
1003.06	54
1004.52	54
1005.97	60
1007.43	60
1008.89	62
1010.34	70
1011.8	64
1013.25	64
1014.71	60
1016.16	66
1017.62	72
1019.07	76
1020.53	74
1021.98	82
1023.43	78
1024.89	88
1026.34	82
1027.79	84
1029.24	90
1030.69	86
1032.14	88
1033.59	96
1035.04	96
1036.49	90
1037.94	88
1039.39	98
1040.84	88
1042.29	76
1043.73	82
1045.18	72
1046.63	78
1048.08	70
1049.52	66
1050.97	66
1052.41	62
1053.86	64
1055.3	60
1056.75	64
1058.19	66
1059.64	64
1061.08	66
1062.52	62
1063.96	62
1065.41	60
1066.85	62
1068.29	60
1069.73	62
1071.17	66
1072.61	64
1074.05	60
1075.49	64
1076.93	58
1078.37	60
1079.81	66
1081.25	60
1082.68	66
1084.12	64
1085.56	62
1087	58
1088.43	62
1089.87	64
1091.3	74
1092.74	70
1094.17	70
1095.61	72
1097.04	70
1098.48	70
1099.91	70
1101.34	70
1102.78	76
1104.21	92
1105.64	118
1107.07	146
1108.5	182
1109.93	250
1111.36	338
1112.8	326
1114.22	316
1115.65	256
1117.08	204
1118.51	148
1119.94	128
1121.37	122
1122.8	102
1124.22	100
1125.65	94
1127.08	86
1128.5	92
1129.93	90
1131.35	92
1132.78	82
1134.2	78
1135.63	84
1137.05	80
1138.48	80
1139.9	82
1141.32	86
1142.75	84
1144.17	80
1145.59	78
1147.01	70
1148.43	76
1149.85	68
1151.27	70
1152.69	78
1154.11	76
1155.53	70
1156.95	76
1158.37	84
1159.79	78
1161.21	92
1162.62	86
1164.04	86
1165.46	92
1166.87	86
1168.29	92
1169.71	82
1171.12	90
1172.54	96
1173.95	82
1175.37	92
1176.78	106
1178.19	104
1179.61	116
1181.02	138
1182.43	154
1183.84	190
1185.26	220
1186.67	238
1188.08	216
1189.49	206
1190.9	170
1192.31	174
1193.72	158
1195.13	140
1196.54	146
1197.95	148
1199.36	158
1200.76	172
1202.17	168
1203.58	176
1204.99	164
1206.39	152
1207.8	134
1209.2	128
1210.61	114
1212.01	108
1213.42	92
1214.82	90
1216.23	80
1217.63	88
1219.03	90
1220.44	84
1221.84	96
1223.24	88
1224.64	98
1226.05	98
1227.45	114
1228.85	126
1230.25	132
1231.65	128
1233.05	122
1234.45	110
1235.85	96
1237.25	88
1238.64	88
1240.04	88
1241.44	86
1242.84	90
1244.23	82
1245.63	90
1247.03	86
1248.42	78
1249.82	78
1251.21	82
1252.61	84
1254	80
1255.4	82
1256.79	88
1258.19	82
1259.58	84
1260.97	80
1262.36	94
1263.76	88
1265.15	98
1266.54	88
1267.93	90
1269.32	82
1270.71	86
1272.1	96
1273.49	104
1274.88	88
1276.27	106
1277.66	104
1279.05	116
1280.43	110
1281.82	126
1283.21	124
1284.6	134
1285.98	124
1287.37	146
1288.75	146
1290.14	168
1291.53	164
1292.91	188
1294.29	198
1295.68	224
1297.06	274
1298.45	354
1299.83	426
1301.21	520
1302.59	652
1303.98	718
1305.36	778
1306.74	724
1308.12	634
1309.5	518
1310.88	406
1312.26	326
1313.64	292
1315.02	260
1316.4	228
1317.78	208
1319.16	182
1320.53	188
1321.91	178
1323.29	176
1324.67	190
1326.04	182
1327.42	174
1328.79	170
1330.17	164
1331.54	174
1332.92	154
1334.29	148
1335.67	144
1337.04	138
1338.42	140
1339.79	134
1341.16	134
1342.53	144
1343.91	156
1345.28	168
1346.65	164
1348.02	158
1349.39	156
1350.76	158
1352.13	154
1353.5	158
1354.87	164
1356.24	156
1357.61	156
1358.98	148
1360.34	144
1361.71	130
1363.08	142
1364.45	140
1365.81	148
1367.18	162
1368.54	156
1369.91	168
1371.28	182
1372.64	212
1374.01	270
1375.37	336
1376.73	364
1378.1	408
1379.46	444
1380.82	402
1382.19	392
1383.55	354
1384.91	308
1386.27	264
1387.63	210
1388.99	208
1390.35	164
1391.71	156
1393.07	152
1394.43	138
1395.79	140
1397.15	138
1398.51	136
1399.87	130
1401.23	130
1402.58	138
1403.94	148
1405.3	134
1406.65	128
1408.01	120
1409.37	136
1410.72	134
1412.08	136
1413.43	156
1414.79	142
1416.14	138
1417.49	160
1418.85	156
1420.2	148
1421.55	158
1422.91	172
1424.26	172
1425.61	168
1426.96	170
1428.31	176
1429.66	174
1431.01	196
1432.36	178
1433.71	186
1435.06	184
1436.41	206
1437.76	206
1439.11	200
1440.46	204
1441.81	204
1443.15	214
1444.5	188
1445.85	182
1447.19	186
1448.54	180
1449.89	178
1451.23	160
1452.58	154
1453.92	162
1455.27	166
1456.61	166
1457.95	160
1459.3	160
1460.64	148
1461.98	154
1463.33	150
1464.67	146
1466.01	144
1467.35	148
1468.69	146
1470.03	144
1471.37	142
1472.71	150
1474.05	146
1475.39	138
1476.73	150
1478.07	138
1479.41	126
1480.75	138
1482.09	130
1483.42	136
1484.76	138
1486.1	126
1487.43	126
1488.77	118
1490.11	124
1491.44	128
1492.78	108
1494.11	114
1495.45	118
1496.78	112
1498.12	108
1499.45	120
1500.78	108
1502.11	112
1503.45	114
1504.78	100
1506.11	104
1507.44	114
1508.77	110
1510.11	100
1511.44	104
1512.77	110
1514.1	108
1515.43	112
1516.76	104
1518.08	112
1519.41	96
1520.74	96
1522.07	106
1523.4	108
1524.72	102
1526.05	102
1527.38	108
1528.7	106
1530.03	104
1531.36	106
1532.68	102
1534.01	102
1535.33	100
1536.66	104
1537.98	104
1539.3	104
1540.63	104
1541.95	110
1543.27	100
1544.6	108
1545.92	102
1547.24	106
1548.56	96
1549.88	106
1551.2	108
1552.52	104
1553.84	114
1555.17	112
1556.48	108
1557.8	110
1559.12	112
1560.44	104
1561.76	110
1563.08	94
1564.4	112
1565.71	112
1567.03	122
1568.35	110
1569.66	120
1570.98	118
1572.29	114
1573.61	116
1574.93	128
1576.24	134
1577.55	132
1578.87	136
1580.18	148
1581.5	160
1582.81	162
1584.12	164
1585.43	192
1586.75	196
1588.06	204
1589.37	226
1590.68	254
1591.99	268
1593.3	318
1594.61	336
1595.92	340
1597.23	408
1598.54	422
1599.85	412
1601.16	450
1602.47	464
1603.78	460
1605.08	428
1606.39	414
1607.7	406
1609	374
1610.31	346
1611.62	306
1612.92	280
1614.23	254
1615.53	238
1616.84	218
1618.14	206
1619.45	184
1620.75	162
1622.06	144
1623.36	144
1624.66	128
1625.96	128
1627.27	110
1628.57	116
1629.87	106
1631.17	112
1632.47	98
1633.77	96
1635.07	96
1636.37	96
1637.67	94
1638.97	84
1640.27	90
1641.57	88
1642.87	90
1644.17	86
1645.47	90
1646.76	96
1648.06	92
1649.36	88
1650.66	86
1651.95	74
1653.25	86
1654.54	78
1655.84	74
1657.13	82
1658.43	78
1659.72	82
1661.02	80
1662.31	84
1663.6	76
1664.9	80
1666.19	78
1667.48	74
1668.78	84
1670.07	74
1671.36	72
1672.65	78
1673.94	72
1675.23	70
1676.52	74
1677.81	72
1679.1	72
1680.39	74
1681.68	76
1682.97	72
1684.26	72
1685.55	76
1686.83	76
1688.12	84
1689.41	82
1690.7	70
1691.98	88
1693.27	78
1694.55	78
1695.84	74
1697.13	74
1698.41	80
1699.69	78
1700.98	78
1702.26	64