File: Jesse_Dataset_v2/Pure Raman/Polypropylene oxide/785nm/ps-ppo-6jan25-0,0000-map2_Y05_X04.txt
204.377	368
206.045	364
207.713	338
209.38	336
211.048	320
212.715	332
214.381	324
216.047	324
217.712	322
219.377	346
221.042	350
222.706	394
224.369	444
226.032	522
227.695	626
229.357	750
231.019	868
232.68	930
234.341	930
236.001	928
237.661	874
239.321	818
240.98	732
242.639	668
244.297	608
245.955	544
247.612	482
249.268	442
250.924	394
252.58	338
254.236	306
255.891	282
257.546	258
259.2	230
260.854	230
262.507	208
264.16	196
265.812	172
267.463	180
269.115	174
270.766	180
272.417	178
274.067	170
275.717	174
277.365	174
279.014	178
280.663	182
282.311	200
283.958	224
285.605	248
287.252	256
288.898	324
290.543	360
292.188	390
293.833	394
295.477	422
297.121	412
298.765	388
300.407	360
302.05	340
303.693	318
305.334	296
306.975	284
308.615	270
310.256	252
311.896	240
313.535	230
315.175	238
316.813	226
318.451	216
320.089	206
321.726	224
323.362	218
324.999	226
326.635	224
328.271	238
329.905	244
331.54	248
333.174	250
334.807	256
336.441	250
338.074	238
339.707	222
341.338	218
342.969	194
344.601	212
346.231	200
347.861	192
349.491	192
351.12	202
352.749	202
354.378	202
356.006	214
357.633	202
359.261	190
360.887	182
362.513	184
364.139	180
365.764	166
367.39	188
369.014	180
370.638	196
372.261	196
373.884	188
375.508	182
377.13	178
378.752	158
380.373	156
381.994	136
383.615	132
385.235	132
386.854	128
388.473	134
390.092	134
391.711	124
393.328	114
394.947	122
396.564	122
398.181	116
399.797	120
401.412	118
403.027	132
404.642	136
406.257	128
407.871	142
409.484	158
411.098	184
412.711	202
414.323	194
415.935	196
417.547	186
419.158	170
420.768	160
422.378	150
423.988	136
425.597	122
427.206	112
428.814	112
430.422	104
432.03	106
433.637	98
435.243	86
436.85	90
438.456	88
440.062	80
441.666	90
443.271	76
444.876	76
446.479	70
448.082	84
449.685	74
451.287	78
452.89	88
454.492	72
456.092	72
457.693	74
459.293	78
460.893	82
462.492	84
464.092	84
465.691	92
467.288	122
468.887	110
470.483	126
472.081	144
473.677	164
475.273	170
476.869	192
478.463	212
480.059	222
481.653	250
483.247	252
484.84	270
486.433	274
488.026	234
489.618	190
491.21	152
492.801	146
494.392	144
495.983	126
497.573	112
499.162	98
500.752	96
502.341	94
503.929	96
505.517	104
507.105	108
508.692	120
510.279	146
511.865	178
513.45	214
515.037	196
516.621	164
518.206	140
519.79	136
521.374	138
522.957	144
524.54	156
526.123	166
527.705	180
529.287	222
530.868	254
532.448	302
534.029	354
535.609	400
537.188	422
538.768	442
540.346	416
541.925	386
543.502	354
545.08	294
546.657	254
548.234	214
549.81	190
551.386	190
552.961	190
554.536	206
556.11	236
557.684	250
559.258	304
560.832	378
562.405	500
563.977	684
565.55	976
567.12	1382
568.692	1858
570.263	2272
571.833	2230
573.403	1862
574.973	1398
576.542	982
578.111	682
579.679	464
581.247	382
582.815	322
584.382	330
585.948	322
587.514	310
589.081	282
590.645	266
592.211	242
593.775	244
595.339	240
596.904	232
598.466	216
600.03	172
601.592	146
603.154	126
604.715	114
606.277	106
607.838	92
609.398	90
610.958	92
612.518	102
614.077	94
615.636	76
617.194	90
618.753	76
620.31	92
621.867	106
623.424	106
624.98	110
626.537	116
628.092	116
629.647	132
631.202	144
632.756	138
634.31	146
635.864	152
637.417	152
638.969	124
640.521	138
642.074	122
643.625	118
645.176	110
646.726	100
648.276	110
649.827	82
651.376	94
652.925	82
654.473	90
656.021	78
657.569	68
659.117	66
660.664	70
662.21	68
663.757	68
665.302	68
666.847	62
668.392	60
669.937	62
671.481	62
673.025	58
674.568	60
676.111	58
677.653	52
679.195	56
680.737	54
682.279	58
683.82	62
685.36	58
686.9	60
688.44	48
689.979	62
691.517	62
693.056	50
694.594	52
696.132	62
697.669	60
699.206	42
700.742	54
702.278	54
703.814	60
705.35	66
706.884	72
708.419	74
709.953	76
711.487	86
713.019	86
714.552	96
716.085	96
717.617	84
719.148	74
720.68	74
722.21	74
723.741	70
725.271	72
726.8	72
728.33	68
729.858	68
731.387	74
732.915	72
734.443	66
735.97	74
737.497	74
739.023	78
740.549	86
742.075	100
743.6	106
745.125	128
746.65	134
748.173	130
749.697	126
751.22	118
752.743	116
754.266	124
755.788	114
757.309	104
758.831	80
760.351	86
761.871	70
763.392	72
764.912	72
766.431	56
767.95	58
769.468	64
770.986	74
772.504	64
774.022	68
775.538	76
777.055	66
778.571	70
780.086	82
781.602	76
783.117	70
784.632	74
786.146	60
787.659	74
789.173	70
790.685	62
792.198	66
793.71	60
795.222	64
796.733	76
798.244	66
799.755	70
801.265	64
802.775	64
804.284	62
805.793	74
807.302	72
808.81	72
810.318	74
811.826	70
813.333	68
814.84	68
816.346	74
817.851	72
819.357	86
820.862	80
822.367	96
823.871	104
825.376	120
826.878	160
828.382	220
829.885	326
831.387	472
832.889	554
834.391	534
835.892	374
837.392	230
838.893	168
840.393	134
841.893	116
843.392	86
844.891	94
846.389	98
847.888	86
849.386	86
850.882	86
852.38	92
853.876	82
855.372	80
856.868	78
858.363	82
859.858	80
861.353	82
862.847	70
864.341	70
865.834	70
867.328	68
868.82	60
870.313	60
871.805	60
873.296	60
874.787	66
876.278	56
877.769	56
879.258	58
880.748	54
882.237	52
883.726	56
885.214	56
886.702	58
888.19	54
889.677	56
891.164	56
892.651	52
894.137	56
895.623	54
897.108	62
898.593	58
900.077	60
901.562	48
903.046	58
904.529	52
906.012	50
907.495	56
908.977	58
910.459	52
911.941	54
913.422	52
914.903	54
916.383	54
917.863	58
919.343	52
920.822	60
922.301	56
923.779	58
925.257	54
926.735	50
928.213	58
929.69	56
931.166	64
932.643	62
934.119	62
935.594	66
937.069	64
938.543	68
940.018	68
941.492	74
942.966	88
944.439	90
945.911	96
947.384	112
948.856	118
950.328	134
951.799	158
953.27	202
954.741	244
956.21	286
957.68	332
959.15	368
960.619	364
962.088	362
963.556	328
965.023	292
966.491	244
967.958	206
969.425	200
970.891	170
972.357	148
973.824	134
975.288	106
976.754	102
978.218	88
979.682	78
981.146	74
982.609	76
984.072	78
985.534	68
986.997	64
988.459	68
989.92	72
991.382	76
992.842	66
994.302	72
995.763	62
997.222	60
998.681	60
1000.14	60
1001.6	68
1003.06	66
1004.52	56
1005.97	60
1007.43	62
1008.89	58
1010.34	60
1011.8	64
1013.25	64
1014.71	60
1016.16	68
1017.62	70
1019.07	70
1020.53	74
1021.98	76
1023.43	82
1024.89	80
1026.34	72
1027.79	86
1029.24	88
1030.69	88
1032.14	92
1033.59	92
1035.04	96
1036.49	92
1037.94	82
1039.39	90
1040.84	88
1042.29	82
1043.73	86
1045.18	76
1046.63	72
1048.08	72
1049.52	64
1050.97	70
1052.41	56
1053.86	68
1055.3	64
1056.75	62
1058.19	66
1059.64	60
1061.08	64
1062.52	60
1063.96	58
1065.41	54
1066.85	62
1068.29	58
1069.73	68
1071.17	58
1072.61	58
1074.05	58
1075.49	54
1076.93	66
1078.37	58
1079.81	64
1081.25	60
1082.68	58
1084.12	62
1085.56	62
1087	66
1088.43	68
1089.87	58
1091.3	64
1092.74	60
1094.17	70
1095.61	62
1097.04	68
1098.48	68
1099.91	70
1101.34	82
1102.78	80
1104.21	88
1105.64	108
1107.07	142
1108.5	184
1109.93	240
1111.36	300
1112.8	344
1114.22	314
1115.65	242
1117.08	188
1118.51	148
1119.94	118
1121.37	112
1122.8	116
1124.22	98
1125.65	98
1127.08	84
1128.5	74
1129.93	82
1131.35	80
1132.78	82
1134.2	74
1135.63	74
1137.05	80
1138.48	82
1139.9	86
1141.32	86
1142.75	84
1144.17	80
1145.59	76
1147.01	76
1148.43	72
1149.85	72
1151.27	80
1152.69	66
1154.11	74
1155.53	78
1156.95	76
1158.37	88
1159.79	92
1161.21	96
1162.62	92
1164.04	88
1165.46	86
1166.87	92
1168.29	84
1169.71	82
1171.12	82
1172.54	82
1173.95	96
1175.37	100
1176.78	98
1178.19	100
1179.61	114
1181.02	142
1182.43	172
1183.84	176
1185.26	222
1186.67	218
1188.08	238
1189.49	200
1190.9	186
1192.31	162
1193.72	162
1195.13	146
1196.54	152
1197.95	140
1199.36	152
1200.76	152
1202.17	172
1203.58	164
1204.99	160
1206.39	156
1207.8	132
1209.2	114
1210.61	106
1212.01	108
1213.42	98
1214.82	86
1216.23	84
1217.63	86
1219.03	86
1220.44	84
1221.84	88
1223.24	84
1224.64	98
1226.05	108
1227.45	110
1228.85	118
1230.25	132
1231.65	126
1233.05	114
1234.45	102
1235.85	100
1237.25	86
1238.64	86
1240.04	90
1241.44	90
1242.84	80
1244.23	88
1245.63	84
1247.03	80
1248.42	86
1249.82	80
1251.21	86
1252.61	92
1254	84
1255.4	84
1256.79	88
1258.19	90
1259.58	70
1260.97	90
1262.36	90
1263.76	90
1265.15	94
1266.54	98
1267.93	92
1269.32	98
1270.71	92
1272.1	104
1273.49	94
1274.88	92
1276.27	84
1277.66	112
1279.05	114
1280.43	114
1281.82	132
1283.21	132
1284.6	126
1285.98	144
1287.37	142
1288.75	152
1290.14	156
1291.53	160
1292.91	184
1294.29	210
1295.68	218
1297.06	298
1298.45	348
1299.83	412
1301.21	518
1302.59	640
1303.98	740
1305.36	780
1306.74	740
1308.12	618
1309.5	506
1310.88	404
1312.26	326
1313.64	278
1315.02	248
1316.4	234
1317.78	212
1319.16	190
1320.53	186
1321.91	186
1323.29	192
1324.67	174
1326.04	180
1327.42	176
1328.79	176
1330.17	172
1331.54	166
1332.92	160
1334.29	146
1335.67	156
1337.04	144
1338.42	140
1339.79	134
1341.16	146
1342.53	148
1343.91	146
1345.28	158
1346.65	156
1348.02	148
1349.39	166
1350.76	158
1352.13	164
1353.5	164
1354.87	154
1356.24	168
1357.61	142
1358.98	138
1360.34	150
1361.71	142
1363.08	150
1364.45	142
1365.81	134
1367.18	150
1368.54	162
1369.91	180
1371.28	186
1372.64	220
1374.01	268
1375.37	330
1376.73	360
1378.1	394
1379.46	420
1380.82	384
1382.19	382
1383.55	342
1384.91	310
1386.27	254
1387.63	228
1388.99	198
1390.35	166
1391.71	150
1393.07	150
1394.43	134
1395.79	130
1397.15	134
1398.51	128
1399.87	120
1401.23	138
1402.58	140
1403.94	134
1405.3	126
1406.65	136
1408.01	134
1409.37	138
1410.72	132
1412.08	140
1413.43	134
1414.79	150
1416.14	142
1417.49	152
1418.85	154
1420.2	160
1421.55	164
1422.91	176
1424.26	182
1425.61	184
1426.96	176
1428.31	182
1429.66	180
1431.01	188
1432.36	186
1433.71	182
1435.06	194
1436.41	202
1437.76	212
1439.11	220
1440.46	206
1441.81	202
1443.15	200
1444.5	176
1445.85	194
1447.19	182
1448.54	166
1449.89	166
1451.23	162
1452.58	158
1453.92	162
1455.27	148
1456.61	146
1457.95	156
1459.3	156
1460.64	148
1461.98	146
1463.33	152
1464.67	150
1466.01	138
1467.35	156
1468.69	154
1470.03	148
1471.37	156
1472.71	146
1474.05	152
1475.39	150
1476.73	134
1478.07	150
1479.41	140
1480.75	134
1482.09	130
1483.42	142
1484.76	134
1486.1	130
1487.43	122
1488.77	126
1490.11	126
1491.44	122
1492.78	122
1494.11	128
1495.45	112
1496.78	112
1498.12	112
1499.45	112
1500.78	112
1502.11	112
1503.45	108
1504.78	114
1506.11	120
1507.44	114
1508.77	112
1510.11	106
1511.44	112
1512.77	110
1514.1	108
1515.43	108
1516.76	98
1518.08	108
1519.41	108
1520.74	106
1522.07	112
1523.4	106
1524.72	118
1526.05	108
1527.38	98
1528.7	102
1530.03	102
1531.36	108
1532.68	102
1534.01	112
1535.33	100
1536.66	106
1537.98	102
1539.3	104
1540.63	108
1541.95	102
1543.27	104
1544.6	108
1545.92	110
1547.24	112
1548.56	106
1549.88	110
1551.2	100
1552.52	112
1553.84	96
1555.17	114
1556.48	102
1557.8	120
1559.12	100
1560.44	106
1561.76	106
1563.08	102
1564.4	106
1565.71	110
1567.03	110
1568.35	118
1569.66	114
1570.98	112
1572.29	118
1573.61	120
1574.93	124
1576.24	124
1577.55	130
1578.87	132
1580.18	146
1581.5	150
1582.81	170
1584.12	186
1585.43	180
1586.75	192
1588.06	230
1589.37	224
1590.68	252
1591.99	268
1593.3	312
1594.61	328
1595.92	360
1597.23	396
1598.54	428
1599.85	426
1601.16	444
1602.47	462
1603.78	460
1605.08	426
1606.39	412
1607.7	384
1609	372
1610.31	334
1611.62	304
1612.92	290
1614.23	262
1615.53	240
1616.84	210
1618.14	208
1619.45	176
1620.75	164
1622.06	158
1623.36	144
1624.66	128
1625.96	132
1627.27	108
1628.57	108
1629.87	100
1631.17	108
1632.47	96
1633.77	98
1635.07	92
1636.37	92
1637.67	98
1638.97	86
1640.27	92
1641.57	92
1642.87	80
1644.17	80
1645.47	88
1646.76	78
1648.06	80
1649.36	92
1650.66	80
1651.95	76
1653.25	86
1654.54	86
1655.84	80
1657.13	82
1658.43	82
1659.72	78
1661.02	76
1662.31	82
1663.6	84
1664.9	82
1666.19	72
1667.48	86
1668.78	80
1670.07	78
1671.36	82
1672.65	76
1673.94	76
1675.23	78
1676.52	78
1677.81	80
1679.1	72
1680.39	76
1681.68	78
1682.97	78
1684.26	78
1685.55	70
1686.83	72
1688.12	72
1689.41	80
1690.7	78
1691.98	80
1693.27	76
1694.55	76
1695.84	80
1697.13	80
1698.41	84
1699.69	80
1700.98	70
1702.26	86