File: Jesse_Dataset_v2/Pure Raman/Polypropylene oxide/785nm/ps-ppo-6jan25-0,0000-map2_Y02_X06.txt
204.377	374
206.045	366
207.713	322
209.38	340
211.048	336
212.715	320
214.381	294
216.047	298
217.712	308
219.377	350
221.042	346
222.706	392
224.369	456
226.032	526
227.695	648
229.357	752
231.019	840
232.68	920
234.341	930
236.001	908
237.661	840
239.321	802
240.98	738
242.639	662
244.297	602
245.955	558
247.612	480
249.268	444
250.924	390
252.58	348
254.236	316
255.891	274
257.546	248
259.2	242
260.854	224
262.507	216
264.16	194
265.812	204
267.463	178
269.115	192
270.766	174
272.417	178
274.067	168
275.717	186
277.365	178
279.014	184
280.663	194
282.311	198
283.958	220
285.605	236
287.252	298
288.898	308
290.543	340
292.188	378
293.833	386
295.477	406
297.121	398
298.765	382
300.407	368
302.05	328
303.693	306
305.334	294
306.975	270
308.615	272
310.256	250
311.896	234
313.535	222
315.175	220
316.813	216
318.451	220
320.089	226
321.726	216
323.362	216
324.999	204
326.635	230
328.271	222
329.905	234
331.54	250
333.174	248
334.807	260
336.441	250
338.074	238
339.707	236
341.338	216
342.969	208
344.601	198
346.231	202
347.861	196
349.491	204
351.12	208
352.749	210
354.378	212
356.006	210
357.633	188
359.261	198
360.887	184
362.513	170
364.139	182
365.764	180
367.39	170
369.014	194
370.638	202
372.261	174
373.884	184
375.508	188
377.13	168
378.752	158
380.373	154
381.994	148
383.615	140
385.235	126
386.854	138
388.473	138
390.092	134
391.711	128
393.328	122
394.947	124
396.564	122
398.181	106
399.797	132
401.412	126
403.027	128
404.642	126
406.257	132
407.871	152
409.484	166
411.098	174
412.711	208
414.323	200
415.935	212
417.547	192
419.158	164
420.768	150
422.378	148
423.988	134
425.597	134
427.206	116
428.814	114
430.422	106
432.03	90
433.637	86
435.243	88
436.85	88
438.456	78
440.062	94
441.666	86
443.271	76
444.876	80
446.479	80
448.082	84
449.685	82
451.287	72
452.89	74
454.492	76
456.092	76
457.693	78
459.293	84
460.893	88
462.492	94
464.092	86
465.691	106
467.288	110
468.887	110
470.483	134
472.081	140
473.677	160
475.273	174
476.869	192
478.463	210
480.059	230
481.653	236
483.247	268
484.84	286
486.433	274
488.026	248
489.618	188
491.21	182
492.801	146
494.392	136
495.983	130
497.573	106
499.162	94
500.752	100
502.341	100
503.929	92
505.517	106
507.105	108
508.692	120
510.279	156
511.865	182
513.45	224
515.037	204
516.621	172
518.206	148
519.79	130
521.374	132
522.957	158
524.54	156
526.123	162
527.705	198
529.287	212
530.868	246
532.448	302
534.029	346
535.609	388
537.188	402
538.768	414
540.346	420
541.925	400
543.502	350
545.08	284
546.657	246
548.234	218
549.81	198
551.386	196
552.961	180
554.536	208
556.11	214
557.684	242
559.258	286
560.832	378
562.405	504
563.977	690
565.55	972
567.12	1370
568.692	1836
570.263	2164
571.833	2232
573.403	1880
574.973	1394
576.542	966
578.111	660
579.679	464
581.247	390
582.815	342
584.382	328
585.948	314
587.514	314
589.081	276
590.645	256
592.211	244
593.775	252
595.339	230
596.904	220
598.466	194
600.03	174
601.592	142
603.154	128
604.715	120
606.277	108
607.838	94
609.398	98
610.958	94
612.518	86
614.077	94
615.636	84
617.194	92
618.753	98
620.31	98
621.867	98
623.424	90
624.98	118
626.537	120
628.092	120
629.647	124
631.202	128
632.756	132
634.31	142
635.864	148
637.417	134
638.969	148
640.521	134
642.074	124
643.625	116
645.176	108
646.726	106
648.276	98
649.827	94
651.376	88
652.925	86
654.473	80
656.021	80
657.569	82
659.117	70
660.664	70
662.21	70
663.757	66
665.302	68
666.847	60
668.392	70
669.937	64
671.481	60
673.025	62
674.568	62
676.111	66
677.653	60
679.195	58
680.737	58
682.279	64
683.82	66
685.36	72
686.9	64
688.44	60
689.979	62
691.517	62
693.056	60
694.594	58
696.132	56
697.669	62
699.206	62
700.742	56
702.278	64
703.814	58
705.35	66
706.884	70
708.419	78
709.953	84
711.487	88
713.019	92
714.552	94
716.085	90
717.617	82
719.148	84
720.68	86
722.21	80
723.741	78
725.271	76
726.8	70
728.33	76
729.858	78
731.387	76
732.915	82
734.443	78
735.97	74
737.497	86
739.023	88
740.549	88
742.075	100
743.6	102
745.125	112
746.65	130
748.173	138
749.697	126
751.22	112
752.743	116
754.266	114
755.788	98
757.309	98
758.831	86
760.351	82
761.871	70
763.392	62
764.912	78
766.431	68
767.95	64
769.468	62
770.986	70
772.504	78
774.022	72
775.538	68
777.055	84
778.571	78
780.086	78
781.602	76
783.117	76
784.632	72
786.146	68
787.659	68
789.173	70
790.685	66
792.198	66
793.71	58
795.222	66
796.733	70
798.244	60
799.755	66
801.265	70
802.775	66
804.284	72
805.793	72
807.302	76
808.81	76
810.318	74
811.826	74
813.333	76
814.84	74
816.346	78
817.851	82
819.357	80
820.862	88
822.367	98
823.871	104
825.376	128
826.878	152
828.382	230
829.885	316
831.387	430
832.889	554
834.391	530
835.892	370
837.392	232
838.893	166
840.393	140
841.893	114
843.392	98
844.891	88
846.389	90
847.888	100
849.386	96
850.882	94
852.38	88
853.876	90
855.372	86
856.868	86
858.363	84
859.858	80
861.353	76
862.847	78
864.341	76
865.834	74
867.328	70
868.82	66
870.313	62
871.805	64
873.296	58
874.787	62
876.278	64
877.769	60
879.258	64
880.748	54
882.237	68
883.726	64
885.214	54
886.702	60
888.19	56
889.677	58
891.164	54
892.651	54
894.137	54
895.623	48
897.108	56
898.593	60
900.077	56
901.562	56
903.046	56
904.529	58
906.012	56
907.495	58
908.977	60
910.459	64
911.941	60
913.422	52
914.903	52
916.383	60
917.863	58
919.343	52
920.822	58
922.301	62
923.779	60
925.257	62
926.735	60
928.213	62
929.69	58
931.166	66
932.643	66
934.119	64
935.594	68
937.069	70
938.543	68
940.018	78
941.492	76
942.966	68
944.439	86
945.911	90
947.384	114
948.856	130
950.328	148
951.799	176
953.27	204
954.741	236
956.21	276
957.68	324
959.15	350
960.619	354
962.088	356
963.556	312
965.023	270
966.491	254
967.958	218
969.425	184
970.891	176
972.357	140
973.824	132
975.288	118
976.754	94
978.218	78
979.682	82
981.146	86
982.609	70
984.072	66
985.534	72
986.997	66
988.459	64
989.92	72
991.382	72
992.842	72
994.302	66
995.763	66
997.222	72
998.681	58
1000.14	64
1001.6	68
1003.06	64
1004.52	66
1005.97	66
1007.43	64
1008.89	58
1010.34	60
1011.8	60
1013.25	68
1014.71	66
1016.16	70
1017.62	70
1019.07	68
1020.53	90
1021.98	76
1023.43	80
1024.89	78
1026.34	78
1027.79	84
1029.24	86
1030.69	90
1032.14	98
1033.59	106
1035.04	96
1036.49	90
1037.94	90
1039.39	92
1040.84	94
1042.29	82
1043.73	86
1045.18	68
1046.63	76
1048.08	70
1049.52	66
1050.97	68
1052.41	62
1053.86	68
1055.3	60
1056.75	64
1058.19	66
1059.64	58
1061.08	60
1062.52	60
1063.96	62
1065.41	62
1066.85	62
1068.29	70
1069.73	72
1071.17	60
1072.61	62
1074.05	64
1075.49	60
1076.93	66
1078.37	64
1079.81	68
1081.25	64
1082.68	62
1084.12	62
1085.56	56
1087	66
1088.43	68
1089.87	66
1091.3	64
1092.74	70
1094.17	62
1095.61	66
1097.04	66
1098.48	70
1099.91	76
1101.34	72
1102.78	84
1104.21	100
1105.64	106
1107.07	130
1108.5	188
1109.93	248
1111.36	306
1112.8	346
1114.22	306
1115.65	240
1117.08	194
1118.51	160
1119.94	136
1121.37	106
1122.8	112
1124.22	94
1125.65	92
1127.08	90
1128.5	90
1129.93	88
1131.35	84
1132.78	86
1134.2	86
1135.63	82
1137.05	92
1138.48	80
1139.9	86
1141.32	90
1142.75	86
1144.17	84
1145.59	74
1147.01	72
1148.43	76
1149.85	70
1151.27	74
1152.69	74
1154.11	76
1155.53	74
1156.95	84
1158.37	84
1159.79	88
1161.21	90
1162.62	96
1164.04	90
1165.46	92
1166.87	88
1168.29	74
1169.71	86
1171.12	82
1172.54	80
1173.95	92
1175.37	94
1176.78	100
1178.19	106
1179.61	124
1181.02	136
1182.43	166
1183.84	188
1185.26	214
1186.67	214
1188.08	224
1189.49	192
1190.9	192
1192.31	164
1193.72	138
1195.13	164
1196.54	146
1197.95	154
1199.36	160
1200.76	156
1202.17	158
1203.58	158
1204.99	168
1206.39	162
1207.8	136
1209.2	132
1210.61	122
1212.01	104
1213.42	88
1214.82	96
1216.23	84
1217.63	84
1219.03	82
1220.44	74
1221.84	88
1223.24	90
1224.64	98
1226.05	110
1227.45	126
1228.85	124
1230.25	130
1231.65	134
1233.05	118
1234.45	108
1235.85	100
1237.25	94
1238.64	90
1240.04	88
1241.44	90
1242.84	78
1244.23	86
1245.63	84
1247.03	68
1248.42	86
1249.82	80
1251.21	84
1252.61	90
1254	92
1255.4	86
1256.79	90
1258.19	90
1259.58	84
1260.97	90
1262.36	94
1263.76	94
1265.15	90
1266.54	92
1267.93	84
1269.32	92
1270.71	86
1272.1	100
1273.49	102
1274.88	98
1276.27	104
1277.66	96
1279.05	112
1280.43	120
1281.82	128
1283.21	130
1284.6	142
1285.98	144
1287.37	148
1288.75	154
1290.14	162
1291.53	178
1292.91	182
1294.29	192
1295.68	212
1297.06	280
1298.45	328
1299.83	414
1301.21	514
1302.59	600
1303.98	728
1305.36	762
1306.74	704
1308.12	618
1309.5	496
1310.88	384
1312.26	338
1313.64	282
1315.02	236
1316.4	226
1317.78	206
1319.16	196
1320.53	186
1321.91	182
1323.29	194
1324.67	172
1326.04	184
1327.42	180
1328.79	174
1330.17	166
1331.54	166
1332.92	162
1334.29	164
1335.67	136
1337.04	140
1338.42	142
1339.79	148
1341.16	142
1342.53	144
1343.91	148
1345.28	168
1346.65	160
1348.02	166
1349.39	158
1350.76	164
1352.13	162
1353.5	166
1354.87	158
1356.24	140
1357.61	158
1358.98	138
1360.34	140
1361.71	150
1363.08	144
1364.45	138
1365.81	136
1367.18	160
1368.54	152
1369.91	178
1371.28	182
1372.64	228
1374.01	270
1375.37	316
1376.73	366
1378.1	380
1379.46	422
1380.82	376
1382.19	380
1383.55	352
1384.91	306
1386.27	252
1387.63	218
1388.99	192
1390.35	166
1391.71	148
1393.07	144
1394.43	148
1395.79	142
1397.15	130
1398.51	142
1399.87	126
1401.23	140
1402.58	136
1403.94	134
1405.3	124
1406.65	132
1408.01	130
1409.37	130
1410.72	138
1412.08	144
1413.43	132
1414.79	146
1416.14	136
1417.49	150
1418.85	154
1420.2	146
1421.55	164
1422.91	174
1424.26	168
1425.61	180
1426.96	188
1428.31	174
1429.66	166
1431.01	174
1432.36	196
1433.71	198
1435.06	192
1436.41	190
1437.76	192
1439.11	200
1440.46	194
1441.81	204
1443.15	204
1444.5	194
1445.85	208
1447.19	180
1448.54	180
1449.89	164
1451.23	148
1452.58	160
1453.92	156
1455.27	160
1456.61	144
1457.95	150
1459.3	160
1460.64	162
1461.98	160
1463.33	144
1464.67	152
1466.01	144
1467.35	148
1468.69	140
1470.03	150
1471.37	138
1472.71	146
1474.05	146
1475.39	154
1476.73	146
1478.07	146
1479.41	146
1480.75	126
1482.09	130
1483.42	136
1484.76	134
1486.1	124
1487.43	126
1488.77	120
1490.11	116
1491.44	116
1492.78	112
1494.11	118
1495.45	108
1496.78	114
1498.12	112
1499.45	104
1500.78	118
1502.11	112
1503.45	126
1504.78	114
1506.11	118
1507.44	108
1508.77	104
1510.11	106
1511.44	102
1512.77	104
1514.1	108
1515.43	104
1516.76	104
1518.08	108
1519.41	114
1520.74	110
1522.07	114
1523.4	112
1524.72	106
1526.05	102
1527.38	104
1528.7	108
1530.03	110
1531.36	104
1532.68	110
1534.01	108
1535.33	108
1536.66	106
1537.98	106
1539.3	106
1540.63	112
1541.95	102
1543.27	98
1544.6	104
1545.92	104
1547.24	108
1548.56	104
1549.88	114
1551.2	112
1552.52	106
1553.84	112
1555.17	112
1556.48	104
1557.8	108
1559.12	108
1560.44	116
1561.76	110
1563.08	116
1564.4	106
1565.71	102
1567.03	120
1568.35	112
1569.66	116
1570.98	124
1572.29	126
1573.61	128
1574.93	126
1576.24	142
1577.55	134
1578.87	142
1580.18	138
1581.5	158
1582.81	162
1584.12	156
1585.43	180
1586.75	200
1588.06	196
1589.37	212
1590.68	244
1591.99	276
1593.3	290
1594.61	326
1595.92	348
1597.23	370
1598.54	396
1599.85	426
1601.16	460
1602.47	456
1603.78	444
1605.08	452
1606.39	430
1607.7	392
1609	356
1610.31	350
1611.62	304
1612.92	278
1614.23	262
1615.53	244
1616.84	212
1618.14	194
1619.45	178
1620.75	164
1622.06	156
1623.36	134
1624.66	134
1625.96	120
1627.27	128
1628.57	106
1629.87	100
1631.17	98
1632.47	102
1633.77	96
1635.07	96
1636.37	92
1637.67	96
1638.97	92
1640.27	90
1641.57	90
1642.87	96
1644.17	86
1645.47	88
1646.76	86
1648.06	80
1649.36	88
1650.66	88
1651.95	72
1653.25	90
1654.54	80
1655.84	82
1657.13	78
1658.43	84
1659.72	82
1661.02	80
1662.31	78
1663.6	84
1664.9	72
1666.19	82
1667.48	76
1668.78	76
1670.07	74
1671.36	70
1672.65	72
1673.94	74
1675.23	76
1676.52	80
1677.81	80
1679.1	74
1680.39	80
1681.68	80
1682.97	78
1684.26	78
1685.55	82
1686.83	80
1688.12	74
1689.41	88
1690.7	80
1691.98	84
1693.27	72
1694.55	78
1695.84	84
1697.13	76
1698.41	78
1699.69	78
1700.98	82
1702.26	74