File: Jesse_Dataset_v2/Pure Raman/Polypropylene oxide/785nm/ps-ppo-6jan25-0,0000-map2_Y07_X04.txt
204.377	328
206.045	318
207.713	296
209.38	302
211.048	298
212.715	274
214.381	284
216.047	272
217.712	298
219.377	302
221.042	340
222.706	374
224.369	410
226.032	458
227.695	566
229.357	668
231.019	744
232.68	838
234.341	834
236.001	824
237.661	760
239.321	696
240.98	666
242.639	600
244.297	530
245.955	476
247.612	438
249.268	384
250.924	346
252.58	312
254.236	284
255.891	256
257.546	242
259.2	200
260.854	186
262.507	188
264.16	174
265.812	174
267.463	166
269.115	160
270.766	164
272.417	168
274.067	158
275.717	156
277.365	176
279.014	164
280.663	172
282.311	180
283.958	202
285.605	222
287.252	262
288.898	300
290.543	336
292.188	342
293.833	364
295.477	378
297.121	354
298.765	358
300.407	328
302.05	302
303.693	270
305.334	250
306.975	244
308.615	244
310.256	220
311.896	224
313.535	212
315.175	192
316.813	204
318.451	182
320.089	198
321.726	208
323.362	192
324.999	208
326.635	220
328.271	194
329.905	222
331.54	238
333.174	222
334.807	226
336.441	220
338.074	212
339.707	212
341.338	202
342.969	172
344.601	186
346.231	170
347.861	194
349.491	186
351.12	186
352.749	180
354.378	196
356.006	182
357.633	168
359.261	172
360.887	172
362.513	168
364.139	164
365.764	166
367.39	166
369.014	180
370.638	184
372.261	168
373.884	172
375.508	166
377.13	156
378.752	150
380.373	140
381.994	136
383.615	126
385.235	128
386.854	122
388.473	130
390.092	122
391.711	118
393.328	118
394.947	110
396.564	106
398.181	116
399.797	108
401.412	118
403.027	126
404.642	118
406.257	122
407.871	132
409.484	150
411.098	168
412.711	180
414.323	178
415.935	176
417.547	170
419.158	158
420.768	136
422.378	128
423.988	122
425.597	108
427.206	110
428.814	100
430.422	104
432.03	90
433.637	80
435.243	84
436.85	76
438.456	80
440.062	78
441.666	78
443.271	70
444.876	76
446.479	80
448.082	66
449.685	70
451.287	72
452.89	74
454.492	70
456.092	72
457.693	74
459.293	70
460.893	78
462.492	74
464.092	84
465.691	98
467.288	94
468.887	106
470.483	124
472.081	140
473.677	142
475.273	168
476.869	180
478.463	196
480.059	204
481.653	220
483.247	236
484.84	248
486.433	244
488.026	202
489.618	176
491.21	156
492.801	142
494.392	124
495.983	112
497.573	96
499.162	88
500.752	86
502.341	86
503.929	88
505.517	98
507.105	104
508.692	102
510.279	136
511.865	184
513.45	182
515.037	178
516.621	150
518.206	132
519.79	116
521.374	134
522.957	134
524.54	152
526.123	162
527.705	174
529.287	204
530.868	236
532.448	272
534.029	314
535.609	360
537.188	366
538.768	380
540.346	358
541.925	352
543.502	304
545.08	262
546.657	220
548.234	188
549.81	178
551.386	168
552.961	172
554.536	190
556.11	206
557.684	228
559.258	278
560.832	364
562.405	464
563.977	616
565.55	876
567.12	1248
568.692	1686
570.263	1984
571.833	1932
573.403	1648
574.973	1222
576.542	848
578.111	588
579.679	424
581.247	334
582.815	294
584.382	296
585.948	286
587.514	270
589.081	246
590.645	236
592.211	230
593.775	230
595.339	218
596.904	194
598.466	186
600.03	160
601.592	130
603.154	118
604.715	96
606.277	102
607.838	90
609.398	84
610.958	86
612.518	88
614.077	90
615.636	84
617.194	82
618.753	82
620.31	76
621.867	92
623.424	98
624.98	102
626.537	110
628.092	116
629.647	124
631.202	124
632.756	120
634.31	134
635.864	134
637.417	124
638.969	126
640.521	110
642.074	118
643.625	108
645.176	96
646.726	96
648.276	88
649.827	82
651.376	80
652.925	76
654.473	74
656.021	70
657.569	70
659.117	74
660.664	70
662.21	60
663.757	62
665.302	66
666.847	56
668.392	58
669.937	52
671.481	58
673.025	56
674.568	60
676.111	56
677.653	50
679.195	54
680.737	56
682.279	60
683.82	58
685.36	58
686.9	58
688.44	54
689.979	58
691.517	52
693.056	52
694.594	54
696.132	54
697.669	56
699.206	56
700.742	58
702.278	58
703.814	58
705.35	58
706.884	54
708.419	64
709.953	68
711.487	82
713.019	88
714.552	80
716.085	92
717.617	80
719.148	72
720.68	68
722.21	68
723.741	68
725.271	62
726.8	64
728.33	70
729.858	64
731.387	72
732.915	78
734.443	72
735.97	80
737.497	72
739.023	78
740.549	82
742.075	90
743.6	104
745.125	112
746.65	128
748.173	134
749.697	104
751.22	110
752.743	106
754.266	104
755.788	94
757.309	90
758.831	82
760.351	74
761.871	68
763.392	62
764.912	60
766.431	68
767.95	62
769.468	64
770.986	62
772.504	64
774.022	70
775.538	72
777.055	72
778.571	76
780.086	72
781.602	70
783.117	66
784.632	68
786.146	74
787.659	54
789.173	64
790.685	56
792.198	62
793.71	60
795.222	60
796.733	56
798.244	64
799.755	60
801.265	60
802.775	58
804.284	66
805.793	64
807.302	74
808.81	68
810.318	68
811.826	66
813.333	62
814.84	74
816.346	68
817.851	76
819.357	78
820.862	86
822.367	80
823.871	100
825.376	116
826.878	158
828.382	200
829.885	298
831.387	404
832.889	478
834.391	450
835.892	320
837.392	210
838.893	138
840.393	116
841.893	94
843.392	92
844.891	94
846.389	86
847.888	88
849.386	82
850.882	86
852.38	72
853.876	80
855.372	82
856.868	82
858.363	82
859.858	64
861.353	72
862.847	72
864.341	62
865.834	64
867.328	66
868.82	68
870.313	60
871.805	62
873.296	54
874.787	56
876.278	58
877.769	58
879.258	60
880.748	58
882.237	60
883.726	60
885.214	58
886.702	50
888.19	54
889.677	50
891.164	60
892.651	56
894.137	56
895.623	56
897.108	52
898.593	60
900.077	48
901.562	52
903.046	50
904.529	50
906.012	54
907.495	56
908.977	48
910.459	62
911.941	56
913.422	62
914.903	46
916.383	58
917.863	52
919.343	52
920.822	54
922.301	56
923.779	48
925.257	56
926.735	58
928.213	60
929.69	58
931.166	60
932.643	50
934.119	62
935.594	64
937.069	62
938.543	60
940.018	70
941.492	78
942.966	70
944.439	82
945.911	94
947.384	98
948.856	106
950.328	130
951.799	160
953.27	200
954.741	226
956.21	266
957.68	306
959.15	310
960.619	316
962.088	312
963.556	286
965.023	240
966.491	216
967.958	196
969.425	178
970.891	164
972.357	132
973.824	106
975.288	110
976.754	82
978.218	84
979.682	76
981.146	74
982.609	68
984.072	72
985.534	68
986.997	72
988.459	62
989.92	72
991.382	66
992.842	70
994.302	60
995.763	62
997.222	62
998.681	60
1000.14	64
1001.6	60
1003.06	62
1004.52	54
1005.97	56
1007.43	58
1008.89	58
1010.34	62
1011.8	60
1013.25	62
1014.71	66
1016.16	56
1017.62	66
1019.07	70
1020.53	74
1021.98	66
1023.43	68
1024.89	74
1026.34	74
1027.79	84
1029.24	80
1030.69	82
1032.14	98
1033.59	90
1035.04	90
1036.49	88
1037.94	92
1039.39	82
1040.84	84
1042.29	78
1043.73	70
1045.18	76
1046.63	76
1048.08	66
1049.52	62
1050.97	64
1052.41	64
1053.86	66
1055.3	58
1056.75	62
1058.19	60
1059.64	62
1061.08	52
1062.52	62
1063.96	64
1065.41	60
1066.85	58
1068.29	56
1069.73	56
1071.17	54
1072.61	62
1074.05	60
1075.49	60
1076.93	58
1078.37	58
1079.81	62
1081.25	60
1082.68	58
1084.12	60
1085.56	60
1087	60
1088.43	60
1089.87	60
1091.3	64
1092.74	68
1094.17	68
1095.61	66
1097.04	62
1098.48	66
1099.91	74
1101.34	74
1102.78	82
1104.21	90
1105.64	100
1107.07	130
1108.5	172
1109.93	222
1111.36	272
1112.8	292
1114.22	276
1115.65	228
1117.08	174
1118.51	136
1119.94	114
1121.37	106
1122.8	96
1124.22	92
1125.65	96
1127.08	86
1128.5	78
1129.93	80
1131.35	68
1132.78	76
1134.2	78
1135.63	80
1137.05	76
1138.48	82
1139.9	78
1141.32	84
1142.75	80
1144.17	74
1145.59	78
1147.01	74
1148.43	64
1149.85	64
1151.27	64
1152.69	68
1154.11	68
1155.53	72
1156.95	70
1158.37	78
1159.79	84
1161.21	88
1162.62	88
1164.04	88
1165.46	80
1166.87	80
1168.29	84
1169.71	84
1171.12	74
1172.54	86
1173.95	86
1175.37	88
1176.78	90
1178.19	104
1179.61	108
1181.02	122
1182.43	160
1183.84	176
1185.26	204
1186.67	206
1188.08	206
1189.49	184
1190.9	162
1192.31	148
1193.72	146
1195.13	128
1196.54	126
1197.95	146
1199.36	148
1200.76	146
1202.17	152
1203.58	162
1204.99	142
1206.39	134
1207.8	134
1209.2	118
1210.61	96
1212.01	90
1213.42	92
1214.82	86
1216.23	88
1217.63	86
1219.03	88
1220.44	76
1221.84	78
1223.24	92
1224.64	94
1226.05	106
1227.45	108
1228.85	118
1230.25	122
1231.65	108
1233.05	108
1234.45	112
1235.85	80
1237.25	88
1238.64	84
1240.04	88
1241.44	86
1242.84	82
1244.23	84
1245.63	72
1247.03	84
1248.42	82
1249.82	72
1251.21	74
1252.61	74
1254	84
1255.4	74
1256.79	86
1258.19	78
1259.58	80
1260.97	72
1262.36	92
1263.76	86
1265.15	80
1266.54	82
1267.93	88
1269.32	98
1270.71	88
1272.1	88
1273.49	88
1274.88	92
1276.27	98
1277.66	100
1279.05	106
1280.43	106
1281.82	110
1283.21	112
1284.6	128
1285.98	134
1287.37	136
1288.75	132
1290.14	148
1291.53	154
1292.91	154
1294.29	194
1295.68	206
1297.06	244
1298.45	298
1299.83	376
1301.21	468
1302.59	568
1303.98	644
1305.36	654
1306.74	620
1308.12	546
1309.5	420
1310.88	330
1312.26	292
1313.64	254
1315.02	218
1316.4	200
1317.78	184
1319.16	184
1320.53	166
1321.91	158
1323.29	168
1324.67	168
1326.04	166
1327.42	168
1328.79	156
1330.17	158
1331.54	150
1332.92	136
1334.29	130
1335.67	142
1337.04	128
1338.42	138
1339.79	116
1341.16	128
1342.53	132
1343.91	126
1345.28	144
1346.65	140
1348.02	136
1349.39	150
1350.76	156
1352.13	142
1353.5	152
1354.87	140
1356.24	140
1357.61	144
1358.98	134
1360.34	124
1361.71	142
1363.08	136
1364.45	128
1365.81	134
1367.18	136
1368.54	144
1369.91	140
1371.28	182
1372.64	204
1374.01	254
1375.37	292
1376.73	324
1378.1	366
1379.46	352
1380.82	340
1382.19	322
1383.55	296
1384.91	264
1386.27	236
1387.63	194
1388.99	158
1390.35	150
1391.71	148
1393.07	136
1394.43	134
1395.79	120
1397.15	130
1398.51	122
1399.87	118
1401.23	124
1402.58	114
1403.94	122
1405.3	116
1406.65	118
1408.01	112
1409.37	112
1410.72	120
1412.08	134
1413.43	118
1414.79	134
1416.14	136
1417.49	134
1418.85	136
1420.2	144
1421.55	148
1422.91	156
1424.26	150
1425.61	160
1426.96	164
1428.31	164
1429.66	174
1431.01	164
1432.36	180
1433.71	172
1435.06	186
1436.41	188
1437.76	196
1439.11	194
1440.46	184
1441.81	188
1443.15	178
1444.5	172
1445.85	166
1447.19	168
1448.54	150
1449.89	164
1451.23	152
1452.58	150
1453.92	146
1455.27	142
1456.61	138
1457.95	150
1459.3	150
1460.64	148
1461.98	144
1463.33	142
1464.67	132
1466.01	136
1467.35	128
1468.69	126
1470.03	130
1471.37	134
1472.71	136
1474.05	128
1475.39	126
1476.73	126
1478.07	130
1479.41	136
1480.75	122
1482.09	130
1483.42	124
1484.76	118
1486.1	116
1487.43	114
1488.77	110
1490.11	104
1491.44	98
1492.78	108
1494.11	100
1495.45	102
1496.78	104
1498.12	110
1499.45	96
1500.78	94
1502.11	96
1503.45	104
1504.78	110
1506.11	96
1507.44	90
1508.77	106
1510.11	104
1511.44	104
1512.77	100
1514.1	98
1515.43	98
1516.76	102
1518.08	98
1519.41	98
1520.74	98
1522.07	100
1523.4	92
1524.72	94
1526.05	94
1527.38	94
1528.7	96
1530.03	100
1531.36	98
1532.68	94
1534.01	100
1535.33	104
1536.66	102
1537.98	90
1539.3	98
1540.63	100
1541.95	88
1543.27	94
1544.6	100
1545.92	104
1547.24	88
1548.56	104
1549.88	96
1551.2	98
1552.52	102
1553.84	98
1555.17	94
1556.48	80
1557.8	92
1559.12	100
1560.44	100
1561.76	100
1563.08	94
1564.4	100
1565.71	104
1567.03	102
1568.35	104
1569.66	102
1570.98	106
1572.29	108
1573.61	114
1574.93	116
1576.24	106
1577.55	120
1578.87	118
1580.18	138
1581.5	134
1582.81	150
1584.12	164
1585.43	162
1586.75	170
1588.06	212
1589.37	200
1590.68	224
1591.99	260
1593.3	278
1594.61	294
1595.92	302
1597.23	354
1598.54	370
1599.85	382
1601.16	420
1602.47	406
1603.78	398
1605.08	364
1606.39	388
1607.7	342
1609	318
1610.31	292
1611.62	292
1612.92	260
1614.23	236
1615.53	208
1616.84	200
1618.14	182
1619.45	164
1620.75	140
1622.06	128
1623.36	116
1624.66	116
1625.96	110
1627.27	110
1628.57	104
1629.87	102
1631.17	104
1632.47	86
1633.77	90
1635.07	74
1636.37	94
1637.67	90
1638.97	92
1640.27	86
1641.57	82
1642.87	84
1644.17	84
1645.47	78
1646.76	82
1648.06	84
1649.36	76
1650.66	76
1651.95	80
1653.25	80
1654.54	72
1655.84	84
1657.13	68
1658.43	74
1659.72	74
1661.02	78
1662.31	76
1663.6	74
1664.9	68
1666.19	74
1667.48	76
1668.78	72
1670.07	64
1671.36	82
1672.65	66
1673.94	76
1675.23	70
1676.52	64
1677.81	70
1679.1	62
1680.39	76
1681.68	76
1682.97	66
1684.26	74
1685.55	64
1686.83	68
1688.12	72
1689.41	78
1690.7	74
1691.98	74
1693.27	62
1694.55	70
1695.84	72
1697.13	72
1698.41	66
1699.69	70
1700.98	72
1702.26	72