File: Jesse_Dataset_v2/Pure Raman/Polypropylene oxide/785nm/ps-ppo-6jan25-0,0000-map2_Y03_X06.txt
204.377	362
206.045	372
207.713	360
209.38	336
211.048	322
212.715	324
214.381	316
216.047	302
217.712	356
219.377	362
221.042	380
222.706	412
224.369	474
226.032	548
227.695	640
229.357	796
231.019	860
232.68	944
234.341	954
236.001	936
237.661	892
239.321	836
240.98	748
242.639	720
244.297	628
245.955	546
247.612	468
249.268	456
250.924	410
252.58	356
254.236	328
255.891	276
257.546	266
259.2	242
260.854	234
262.507	222
264.16	194
265.812	184
267.463	178
269.115	180
270.766	182
272.417	178
274.067	174
275.717	178
277.365	182
279.014	184
280.663	198
282.311	216
283.958	242
285.605	264
287.252	270
288.898	330
290.543	364
292.188	392
293.833	446
295.477	432
297.121	418
298.765	412
300.407	352
302.05	356
303.693	314
305.334	306
306.975	278
308.615	278
310.256	262
311.896	236
313.535	254
315.175	238
316.813	234
318.451	224
320.089	232
321.726	220
323.362	224
324.999	232
326.635	254
328.271	258
329.905	252
331.54	250
333.174	270
334.807	250
336.441	264
338.074	244
339.707	234
341.338	230
342.969	210
344.601	208
346.231	212
347.861	198
349.491	202
351.12	202
352.749	200
354.378	218
356.006	198
357.633	212
359.261	212
360.887	184
362.513	178
364.139	186
365.764	178
367.39	192
369.014	192
370.638	196
372.261	186
373.884	186
375.508	180
377.13	178
378.752	160
380.373	150
381.994	156
383.615	138
385.235	134
386.854	154
388.473	132
390.092	128
391.711	126
393.328	124
394.947	126
396.564	114
398.181	120
399.797	114
401.412	122
403.027	138
404.642	126
406.257	144
407.871	152
409.484	174
411.098	184
412.711	218
414.323	198
415.935	202
417.547	200
419.158	170
420.768	160
422.378	144
423.988	146
425.597	118
427.206	114
428.814	104
430.422	106
432.03	96
433.637	82
435.243	92
436.85	92
438.456	82
440.062	84
441.666	84
443.271	80
444.876	82
446.479	80
448.082	72
449.685	78
451.287	78
452.89	72
454.492	78
456.092	82
457.693	74
459.293	82
460.893	92
462.492	92
464.092	86
465.691	102
467.288	108
468.887	122
470.483	128
472.081	156
473.677	170
475.273	188
476.869	200
478.463	226
480.059	248
481.653	256
483.247	252
484.84	292
486.433	288
488.026	238
489.618	188
491.21	176
492.801	156
494.392	128
495.983	118
497.573	120
499.162	102
500.752	98
502.341	96
503.929	98
505.517	100
507.105	110
508.692	128
510.279	164
511.865	200
513.45	204
515.037	200
516.621	160
518.206	144
519.79	154
521.374	140
522.957	142
524.54	150
526.123	184
527.705	202
529.287	224
530.868	266
532.448	306
534.029	358
535.609	412
537.188	406
538.768	438
540.346	432
541.925	380
543.502	364
545.08	306
546.657	240
548.234	216
549.81	204
551.386	192
552.961	198
554.536	206
556.11	230
557.684	250
559.258	322
560.832	394
562.405	510
563.977	694
565.55	988
567.12	1398
568.692	1874
570.263	2266
571.833	2306
573.403	1902
574.973	1432
576.542	968
578.111	674
579.679	484
581.247	408
582.815	348
584.382	332
585.948	320
587.514	316
589.081	278
590.645	258
592.211	264
593.775	252
595.339	248
596.904	238
598.466	214
600.03	180
601.592	150
603.154	136
604.715	118
606.277	102
607.838	94
609.398	96
610.958	94
612.518	88
614.077	88
615.636	90
617.194	100
618.753	90
620.31	102
621.867	108
623.424	102
624.98	108
626.537	118
628.092	128
629.647	138
631.202	140
632.756	134
634.31	148
635.864	146
637.417	134
638.969	144
640.521	128
642.074	134
643.625	124
645.176	110
646.726	96
648.276	110
649.827	94
651.376	96
652.925	86
654.473	78
656.021	80
657.569	74
659.117	74
660.664	78
662.21	70
663.757	70
665.302	58
666.847	66
668.392	62
669.937	58
671.481	62
673.025	54
674.568	60
676.111	66
677.653	58
679.195	60
680.737	60
682.279	60
683.82	60
685.36	60
686.9	64
688.44	64
689.979	60
691.517	58
693.056	56
694.594	58
696.132	54
697.669	60
699.206	56
700.742	66
702.278	62
703.814	64
705.35	66
706.884	66
708.419	70
709.953	80
711.487	88
713.019	96
714.552	98
716.085	98
717.617	94
719.148	88
720.68	82
722.21	74
723.741	76
725.271	76
726.8	76
728.33	76
729.858	68
731.387	74
732.915	78
734.443	82
735.97	82
737.497	82
739.023	90
740.549	84
742.075	96
743.6	106
745.125	116
746.65	132
748.173	134
749.697	140
751.22	116
752.743	122
754.266	120
755.788	118
757.309	112
758.831	102
760.351	86
761.871	70
763.392	72
764.912	70
766.431	64
767.95	66
769.468	76
770.986	76
772.504	58
774.022	62
775.538	72
777.055	76
778.571	76
780.086	82
781.602	78
783.117	72
784.632	76
786.146	70
787.659	72
789.173	70
790.685	60
792.198	64
793.71	64
795.222	62
796.733	74
798.244	64
799.755	64
801.265	62
802.775	62
804.284	62
805.793	68
807.302	78
808.81	76
810.318	78
811.826	74
813.333	70
814.84	74
816.346	64
817.851	80
819.357	76
820.862	88
822.367	96
823.871	122
825.376	128
826.878	174
828.382	224
829.885	328
831.387	468
832.889	568
834.391	552
835.892	400
837.392	242
838.893	168
840.393	138
841.893	108
843.392	104
844.891	94
846.389	98
847.888	96
849.386	94
850.882	94
852.38	96
853.876	78
855.372	96
856.868	86
858.363	90
859.858	84
861.353	76
862.847	78
864.341	74
865.834	62
867.328	70
868.82	68
870.313	62
871.805	70
873.296	68
874.787	58
876.278	60
877.769	64
879.258	50
880.748	68
882.237	68
883.726	64
885.214	60
886.702	54
888.19	62
889.677	56
891.164	58
892.651	56
894.137	52
895.623	58
897.108	58
898.593	52
900.077	52
901.562	58
903.046	58
904.529	58
906.012	60
907.495	54
908.977	56
910.459	58
911.941	58
913.422	62
914.903	54
916.383	58
917.863	60
919.343	58
920.822	62
922.301	58
923.779	60
925.257	58
926.735	62
928.213	62
929.69	62
931.166	64
932.643	68
934.119	64
935.594	64
937.069	64
938.543	70
940.018	70
941.492	76
942.966	90
944.439	94
945.911	102
947.384	126
948.856	130
950.328	136
951.799	180
953.27	208
954.741	248
956.21	294
957.68	348
959.15	362
960.619	376
962.088	378
963.556	332
965.023	286
966.491	258
967.958	236
969.425	208
970.891	160
972.357	158
973.824	138
975.288	110
976.754	100
978.218	88
979.682	82
981.146	80
982.609	72
984.072	80
985.534	72
986.997	70
988.459	70
989.92	70
991.382	74
992.842	76
994.302	62
995.763	60
997.222	66
998.681	66
1000.14	60
1001.6	62
1003.06	66
1004.52	60
1005.97	60
1007.43	58
1008.89	58
1010.34	72
1011.8	64
1013.25	66
1014.71	64
1016.16	68
1017.62	74
1019.07	78
1020.53	82
1021.98	76
1023.43	76
1024.89	70
1026.34	82
1027.79	90
1029.24	92
1030.69	82
1032.14	94
1033.59	96
1035.04	98
1036.49	90
1037.94	96
1039.39	96
1040.84	86
1042.29	94
1043.73	84
1045.18	80
1046.63	78
1048.08	66
1049.52	62
1050.97	66
1052.41	64
1053.86	60
1055.3	62
1056.75	66
1058.19	60
1059.64	64
1061.08	58
1062.52	58
1063.96	68
1065.41	60
1066.85	66
1068.29	58
1069.73	70
1071.17	64
1072.61	60
1074.05	60
1075.49	62
1076.93	62
1078.37	62
1079.81	62
1081.25	66
1082.68	64
1084.12	68
1085.56	66
1087	66
1088.43	60
1089.87	64
1091.3	68
1092.74	60
1094.17	64
1095.61	70
1097.04	66
1098.48	72
1099.91	72
1101.34	78
1102.78	88
1104.21	88
1105.64	116
1107.07	148
1108.5	200
1109.93	260
1111.36	320
1112.8	344
1114.22	332
1115.65	256
1117.08	190
1118.51	142
1119.94	132
1121.37	118
1122.8	106
1124.22	96
1125.65	92
1127.08	98
1128.5	90
1129.93	84
1131.35	80
1132.78	80
1134.2	82
1135.63	74
1137.05	84
1138.48	78
1139.9	90
1141.32	84
1142.75	90
1144.17	88
1145.59	82
1147.01	68
1148.43	74
1149.85	66
1151.27	66
1152.69	72
1154.11	72
1155.53	76
1156.95	78
1158.37	82
1159.79	92
1161.21	80
1162.62	86
1164.04	96
1165.46	78
1166.87	90
1168.29	82
1169.71	80
1171.12	86
1172.54	88
1173.95	86
1175.37	100
1176.78	108
1178.19	112
1179.61	116
1181.02	142
1182.43	164
1183.84	184
1185.26	232
1186.67	234
1188.08	228
1189.49	202
1190.9	186
1192.31	154
1193.72	154
1195.13	150
1196.54	144
1197.95	154
1199.36	160
1200.76	174
1202.17	162
1203.58	160
1204.99	170
1206.39	160
1207.8	136
1209.2	128
1210.61	108
1212.01	100
1213.42	84
1214.82	92
1216.23	96
1217.63	82
1219.03	84
1220.44	88
1221.84	90
1223.24	96
1224.64	94
1226.05	112
1227.45	122
1228.85	126
1230.25	136
1231.65	124
1233.05	120
1234.45	122
1235.85	108
1237.25	94
1238.64	86
1240.04	90
1241.44	94
1242.84	96
1244.23	80
1245.63	82
1247.03	82
1248.42	86
1249.82	80
1251.21	82
1252.61	80
1254	88
1255.4	82
1256.79	84
1258.19	92
1259.58	86
1260.97	90
1262.36	86
1263.76	88
1265.15	90
1266.54	90
1267.93	96
1269.32	96
1270.71	92
1272.1	98
1273.49	92
1274.88	94
1276.27	104
1277.66	104
1279.05	110
1280.43	116
1281.82	120
1283.21	126
1284.6	140
1285.98	144
1287.37	156
1288.75	154
1290.14	162
1291.53	170
1292.91	188
1294.29	206
1295.68	240
1297.06	276
1298.45	328
1299.83	420
1301.21	528
1302.59	638
1303.98	748
1305.36	786
1306.74	722
1308.12	640
1309.5	518
1310.88	402
1312.26	334
1313.64	296
1315.02	252
1316.4	236
1317.78	218
1319.16	200
1320.53	192
1321.91	182
1323.29	186
1324.67	180
1326.04	180
1327.42	176
1328.79	168
1330.17	168
1331.54	164
1332.92	162
1334.29	146
1335.67	152
1337.04	144
1338.42	134
1339.79	148
1341.16	142
1342.53	152
1343.91	164
1345.28	156
1346.65	144
1348.02	162
1349.39	162
1350.76	154
1352.13	160
1353.5	158
1354.87	158
1356.24	160
1357.61	172
1358.98	148
1360.34	142
1361.71	144
1363.08	142
1364.45	156
1365.81	136
1367.18	162
1368.54	168
1369.91	170
1371.28	196
1372.64	218
1374.01	260
1375.37	320
1376.73	382
1378.1	428
1379.46	412
1380.82	406
1382.19	384
1383.55	356
1384.91	302
1386.27	278
1387.63	252
1388.99	196
1390.35	180
1391.71	154
1393.07	158
1394.43	142
1395.79	140
1397.15	134
1398.51	136
1399.87	126
1401.23	132
1402.58	116
1403.94	132
1405.3	130
1406.65	126
1408.01	138
1409.37	132
1410.72	136
1412.08	144
1413.43	138
1414.79	154
1416.14	140
1417.49	148
1418.85	154
1420.2	156
1421.55	170
1422.91	150
1424.26	170
1425.61	186
1426.96	178
1428.31	172
1429.66	172
1431.01	180
1432.36	188
1433.71	186
1435.06	210
1436.41	194
1437.76	200
1439.11	200
1440.46	206
1441.81	212
1443.15	196
1444.5	192
1445.85	202
1447.19	188
1448.54	192
1449.89	184
1451.23	158
1452.58	166
1453.92	156
1455.27	150
1456.61	148
1457.95	168
1459.3	144
1460.64	152
1461.98	148
1463.33	152
1464.67	148
1466.01	140
1467.35	142
1468.69	142
1470.03	150
1471.37	154
1472.71	140
1474.05	148
1475.39	146
1476.73	140
1478.07	142
1479.41	146
1480.75	132
1482.09	132
1483.42	138
1484.76	136
1486.1	132
1487.43	130
1488.77	118
1490.11	126
1491.44	124
1492.78	130
1494.11	128
1495.45	118
1496.78	116
1498.12	114
1499.45	114
1500.78	116
1502.11	100
1503.45	112
1504.78	118
1506.11	114
1507.44	108
1508.77	108
1510.11	108
1511.44	98
1512.77	118
1514.1	116
1515.43	118
1516.76	106
1518.08	104
1519.41	108
1520.74	104
1522.07	104
1523.4	104
1524.72	116
1526.05	108
1527.38	102
1528.7	100
1530.03	112
1531.36	110
1532.68	100
1534.01	112
1535.33	110
1536.66	108
1537.98	98
1539.3	118
1540.63	108
1541.95	106
1543.27	100
1544.6	102
1545.92	108
1547.24	102
1548.56	106
1549.88	110
1551.2	102
1552.52	114
1553.84	100
1555.17	118
1556.48	110
1557.8	108
1559.12	108
1560.44	118
1561.76	100
1563.08	112
1564.4	104
1565.71	108
1567.03	110
1568.35	114
1569.66	110
1570.98	118
1572.29	128
1573.61	124
1574.93	134
1576.24	130
1577.55	136
1578.87	144
1580.18	154
1581.5	158
1582.81	154
1584.12	164
1585.43	176
1586.75	210
1588.06	216
1589.37	218
1590.68	244
1591.99	272
1593.3	300
1594.61	336
1595.92	368
1597.23	394
1598.54	432
1599.85	438
1601.16	432
1602.47	450
1603.78	454
1605.08	432
1606.39	400
1607.7	406
1609	364
1610.31	344
1611.62	336
1612.92	290
1614.23	280
1615.53	256
1616.84	200
1618.14	196
1619.45	194
1620.75	162
1622.06	158
1623.36	144
1624.66	130
1625.96	124
1627.27	108
1628.57	104
1629.87	116
1631.17	108
1632.47	106
1633.77	116
1635.07	102
1636.37	102
1637.67	86
1638.97	94
1640.27	96
1641.57	92
1642.87	92
1644.17	90
1645.47	82
1646.76	82
1648.06	88
1649.36	84
1650.66	86
1651.95	84
1653.25	92
1654.54	84
1655.84	82
1657.13	80
1658.43	86
1659.72	72
1661.02	78
1662.31	76
1663.6	88
1664.9	80
1666.19	78
1667.48	78
1668.78	78
1670.07	74
1671.36	74
1672.65	80
1673.94	78
1675.23	82
1676.52	76
1677.81	76
1679.1	72
1680.39	76
1681.68	76
1682.97	86
1684.26	78
1685.55	76
1686.83	80
1688.12	78
1689.41	82
1690.7	78
1691.98	80
1693.27	76
1694.55	78
1695.84	82
1697.13	84
1698.41	82
1699.69	80
1700.98	80
1702.26	76