File: Jesse_Dataset_v2/Pure Raman/Polypropylene oxide/785nm/ps-ppo-6jan25-0,0000-map2_Y06_X06.txt
204.377	360
206.045	372
207.713	352
209.38	360
211.048	336
212.715	314
214.381	322
216.047	326
217.712	334
219.377	366
221.042	352
222.706	428
224.369	480
226.032	568
227.695	666
229.357	782
231.019	910
232.68	958
234.341	970
236.001	958
237.661	876
239.321	854
240.98	748
242.639	688
244.297	616
245.955	552
247.612	494
249.268	444
250.924	384
252.58	352
254.236	310
255.891	278
257.546	260
259.2	252
260.854	218
262.507	202
264.16	208
265.812	196
267.463	170
269.115	188
270.766	162
272.417	168
274.067	178
275.717	164
277.365	170
279.014	180
280.663	194
282.311	214
283.958	232
285.605	250
287.252	272
288.898	318
290.543	368
292.188	398
293.833	418
295.477	432
297.121	410
298.765	392
300.407	390
302.05	346
303.693	338
305.334	300
306.975	280
308.615	280
310.256	252
311.896	228
313.535	226
315.175	212
316.813	234
318.451	212
320.089	220
321.726	220
323.362	210
324.999	214
326.635	236
328.271	236
329.905	258
331.54	264
333.174	252
334.807	240
336.441	252
338.074	224
339.707	232
341.338	210
342.969	208
344.601	212
346.231	198
347.861	182
349.491	200
351.12	216
352.749	206
354.378	208
356.006	220
357.633	194
359.261	196
360.887	206
362.513	184
364.139	178
365.764	184
367.39	188
369.014	172
370.638	200
372.261	182
373.884	186
375.508	174
377.13	176
378.752	168
380.373	164
381.994	152
383.615	126
385.235	134
386.854	140
388.473	120
390.092	132
391.711	130
393.328	122
394.947	116
396.564	128
398.181	114
399.797	124
401.412	120
403.027	122
404.642	134
406.257	146
407.871	142
409.484	162
411.098	176
412.711	214
414.323	206
415.935	218
417.547	184
419.158	180
420.768	162
422.378	146
423.988	140
425.597	126
427.206	110
428.814	112
430.422	100
432.03	94
433.637	96
435.243	90
436.85	82
438.456	86
440.062	86
441.666	68
443.271	76
444.876	78
446.479	72
448.082	80
449.685	74
451.287	76
452.89	80
454.492	82
456.092	78
457.693	78
459.293	74
460.893	82
462.492	84
464.092	84
465.691	98
467.288	112
468.887	114
470.483	128
472.081	142
473.677	166
475.273	180
476.869	202
478.463	216
480.059	230
481.653	244
483.247	266
484.84	274
486.433	276
488.026	244
489.618	198
491.21	164
492.801	150
494.392	136
495.983	114
497.573	118
499.162	98
500.752	96
502.341	102
503.929	96
505.517	86
507.105	110
508.692	130
510.279	142
511.865	202
513.45	218
515.037	198
516.621	158
518.206	144
519.79	154
521.374	154
522.957	150
524.54	154
526.123	184
527.705	198
529.287	208
530.868	256
532.448	298
534.029	338
535.609	400
537.188	432
538.768	430
540.346	430
541.925	406
543.502	366
545.08	302
546.657	242
548.234	224
549.81	182
551.386	178
552.961	200
554.536	178
556.11	232
557.684	270
559.258	314
560.832	402
562.405	494
563.977	704
565.55	982
567.12	1446
568.692	1912
570.263	2288
571.833	2292
573.403	1968
574.973	1450
576.542	1002
578.111	666
579.679	490
581.247	410
582.815	348
584.382	326
585.948	340
587.514	292
589.081	292
590.645	254
592.211	260
593.775	262
595.339	246
596.904	216
598.466	198
600.03	170
601.592	148
603.154	126
604.715	114
606.277	98
607.838	106
609.398	88
610.958	92
612.518	90
614.077	78
615.636	90
617.194	86
618.753	102
620.31	94
621.867	100
623.424	108
624.98	96
626.537	118
628.092	116
629.647	122
631.202	138
632.756	140
634.31	146
635.864	158
637.417	148
638.969	128
640.521	134
642.074	118
643.625	116
645.176	106
646.726	98
648.276	98
649.827	94
651.376	86
652.925	82
654.473	84
656.021	84
657.569	76
659.117	68
660.664	66
662.21	64
663.757	62
665.302	70
666.847	58
668.392	58
669.937	56
671.481	62
673.025	56
674.568	56
676.111	62
677.653	62
679.195	56
680.737	56
682.279	54
683.82	56
685.36	52
686.9	56
688.44	60
689.979	62
691.517	54
693.056	52
694.594	60
696.132	48
697.669	54
699.206	52
700.742	56
702.278	58
703.814	64
705.35	64
706.884	62
708.419	76
709.953	80
711.487	78
713.019	92
714.552	102
716.085	96
717.617	84
719.148	78
720.68	78
722.21	74
723.741	68
725.271	74
726.8	62
728.33	72
729.858	76
731.387	76
732.915	76
734.443	78
735.97	80
737.497	76
739.023	86
740.549	84
742.075	94
743.6	108
745.125	120
746.65	142
748.173	126
749.697	132
751.22	122
752.743	112
754.266	120
755.788	108
757.309	96
758.831	90
760.351	88
761.871	68
763.392	62
764.912	64
766.431	64
767.95	68
769.468	68
770.986	62
772.504	70
774.022	70
775.538	84
777.055	76
778.571	72
780.086	80
781.602	70
783.117	68
784.632	76
786.146	72
787.659	68
789.173	60
790.685	60
792.198	62
793.71	64
795.222	64
796.733	60
798.244	64
799.755	70
801.265	70
802.775	74
804.284	64
805.793	72
807.302	72
808.81	66
810.318	64
811.826	72
813.333	68
814.84	66
816.346	74
817.851	74
819.357	84
820.862	90
822.367	100
823.871	98
825.376	132
826.878	166
828.382	228
829.885	338
831.387	468
832.889	594
834.391	538
835.892	372
837.392	240
838.893	168
840.393	122
841.893	108
843.392	100
844.891	96
846.389	102
847.888	88
849.386	90
850.882	96
852.38	82
853.876	82
855.372	80
856.868	78
858.363	84
859.858	80
861.353	76
862.847	64
864.341	70
865.834	74
867.328	70
868.82	66
870.313	72
871.805	54
873.296	64
874.787	58
876.278	54
877.769	62
879.258	52
880.748	58
882.237	58
883.726	58
885.214	62
886.702	48
888.19	46
889.677	54
891.164	54
892.651	56
894.137	50
895.623	60
897.108	52
898.593	54
900.077	54
901.562	52
903.046	56
904.529	52
906.012	56
907.495	52
908.977	54
910.459	54
911.941	62
913.422	56
914.903	58
916.383	54
917.863	54
919.343	54
920.822	54
922.301	62
923.779	62
925.257	56
926.735	56
928.213	60
929.69	60
931.166	62
932.643	66
934.119	60
935.594	60
937.069	54
938.543	68
940.018	72
941.492	78
942.966	84
944.439	92
945.911	96
947.384	114
948.856	118
950.328	148
951.799	172
953.27	204
954.741	256
956.21	282
957.68	334
959.15	362
960.619	362
962.088	338
963.556	332
965.023	290
966.491	242
967.958	212
969.425	206
970.891	172
972.357	158
973.824	130
975.288	110
976.754	94
978.218	94
979.682	84
981.146	74
982.609	72
984.072	78
985.534	74
986.997	60
988.459	66
989.92	70
991.382	74
992.842	70
994.302	70
995.763	68
997.222	64
998.681	62
1000.14	58
1001.6	62
1003.06	54
1004.52	56
1005.97	50
1007.43	66
1008.89	62
1010.34	58
1011.8	66
1013.25	64
1014.71	62
1016.16	66
1017.62	66
1019.07	76
1020.53	76
1021.98	80
1023.43	80
1024.89	80
1026.34	84
1027.79	90
1029.24	90
1030.69	92
1032.14	94
1033.59	82
1035.04	92
1036.49	86
1037.94	90
1039.39	86
1040.84	86
1042.29	82
1043.73	82
1045.18	76
1046.63	78
1048.08	64
1049.52	70
1050.97	58
1052.41	66
1053.86	68
1055.3	60
1056.75	60
1058.19	54
1059.64	64
1061.08	58
1062.52	54
1063.96	54
1065.41	64
1066.85	52
1068.29	60
1069.73	60
1071.17	62
1072.61	54
1074.05	64
1075.49	56
1076.93	70
1078.37	60
1079.81	62
1081.25	64
1082.68	64
1084.12	62
1085.56	64
1087	66
1088.43	60
1089.87	58
1091.3	58
1092.74	64
1094.17	70
1095.61	70
1097.04	66
1098.48	74
1099.91	74
1101.34	70
1102.78	84
1104.21	90
1105.64	104
1107.07	142
1108.5	192
1109.93	250
1111.36	328
1112.8	356
1114.22	322
1115.65	248
1117.08	202
1118.51	154
1119.94	134
1121.37	106
1122.8	104
1124.22	94
1125.65	94
1127.08	88
1128.5	84
1129.93	84
1131.35	80
1132.78	82
1134.2	80
1135.63	76
1137.05	82
1138.48	78
1139.9	82
1141.32	80
1142.75	84
1144.17	80
1145.59	74
1147.01	70
1148.43	60
1149.85	70
1151.27	68
1152.69	70
1154.11	70
1155.53	78
1156.95	76
1158.37	86
1159.79	82
1161.21	96
1162.62	88
1164.04	92
1165.46	80
1166.87	84
1168.29	86
1169.71	82
1171.12	90
1172.54	78
1173.95	86
1175.37	90
1176.78	92
1178.19	118
1179.61	124
1181.02	146
1182.43	168
1183.84	206
1185.26	236
1186.67	232
1188.08	226
1189.49	206
1190.9	178
1192.31	158
1193.72	156
1195.13	146
1196.54	146
1197.95	156
1199.36	146
1200.76	158
1202.17	176
1203.58	172
1204.99	168
1206.39	152
1207.8	146
1209.2	114
1210.61	118
1212.01	98
1213.42	92
1214.82	94
1216.23	92
1217.63	82
1219.03	86
1220.44	80
1221.84	94
1223.24	100
1224.64	96
1226.05	108
1227.45	134
1228.85	130
1230.25	124
1231.65	126
1233.05	118
1234.45	110
1235.85	98
1237.25	96
1238.64	86
1240.04	90
1241.44	88
1242.84	84
1244.23	88
1245.63	82
1247.03	88
1248.42	80
1249.82	86
1251.21	80
1252.61	88
1254	80
1255.4	80
1256.79	94
1258.19	88
1259.58	76
1260.97	94
1262.36	84
1263.76	86
1265.15	90
1266.54	86
1267.93	96
1269.32	90
1270.71	92
1272.1	86
1273.49	102
1274.88	100
1276.27	98
1277.66	116
1279.05	92
1280.43	116
1281.82	122
1283.21	128
1284.6	136
1285.98	132
1287.37	154
1288.75	142
1290.14	166
1291.53	172
1292.91	178
1294.29	210
1295.68	240
1297.06	266
1298.45	346
1299.83	428
1301.21	530
1302.59	654
1303.98	698
1305.36	788
1306.74	754
1308.12	598
1309.5	524
1310.88	390
1312.26	332
1313.64	278
1315.02	246
1316.4	234
1317.78	214
1319.16	208
1320.53	196
1321.91	184
1323.29	188
1324.67	170
1326.04	184
1327.42	174
1328.79	178
1330.17	182
1331.54	170
1332.92	154
1334.29	146
1335.67	160
1337.04	130
1338.42	146
1339.79	136
1341.16	140
1342.53	148
1343.91	154
1345.28	160
1346.65	160
1348.02	162
1349.39	150
1350.76	168
1352.13	164
1353.5	162
1354.87	156
1356.24	148
1357.61	142
1358.98	134
1360.34	140
1361.71	130
1363.08	150
1364.45	132
1365.81	148
1367.18	152
1368.54	148
1369.91	170
1371.28	196
1372.64	210
1374.01	282
1375.37	328
1376.73	366
1378.1	412
1379.46	414
1380.82	406
1382.19	386
1383.55	364
1384.91	314
1386.27	272
1387.63	232
1388.99	196
1390.35	182
1391.71	170
1393.07	150
1394.43	136
1395.79	146
1397.15	134
1398.51	136
1399.87	130
1401.23	130
1402.58	134
1403.94	134
1405.3	124
1406.65	136
1408.01	132
1409.37	136
1410.72	128
1412.08	124
1413.43	140
1414.79	140
1416.14	144
1417.49	150
1418.85	138
1420.2	160
1421.55	152
1422.91	168
1424.26	176
1425.61	184
1426.96	176
1428.31	178
1429.66	184
1431.01	186
1432.36	194
1433.71	202
1435.06	196
1436.41	204
1437.76	210
1439.11	208
1440.46	208
1441.81	222
1443.15	210
1444.5	204
1445.85	188
1447.19	182
1448.54	158
1449.89	180
1451.23	158
1452.58	166
1453.92	164
1455.27	154
1456.61	152
1457.95	160
1459.3	148
1460.64	160
1461.98	152
1463.33	140
1464.67	162
1466.01	156
1467.35	154
1468.69	146
1470.03	144
1471.37	146
1472.71	138
1474.05	144
1475.39	150
1476.73	144
1478.07	140
1479.41	148
1480.75	140
1482.09	128
1483.42	130
1484.76	124
1486.1	128
1487.43	128
1488.77	118
1490.11	112
1491.44	110
1492.78	114
1494.11	114
1495.45	118
1496.78	114
1498.12	114
1499.45	114
1500.78	96
1502.11	112
1503.45	108
1504.78	108
1506.11	112
1507.44	118
1508.77	112
1510.11	106
1511.44	114
1512.77	116
1514.1	104
1515.43	112
1516.76	100
1518.08	104
1519.41	112
1520.74	110
1522.07	114
1523.4	108
1524.72	106
1526.05	104
1527.38	104
1528.7	104
1530.03	108
1531.36	106
1532.68	104
1534.01	112
1535.33	102
1536.66	116
1537.98	104
1539.3	106
1540.63	110
1541.95	106
1543.27	106
1544.6	112
1545.92	94
1547.24	108
1548.56	108
1549.88	106
1551.2	102
1552.52	102
1553.84	104
1555.17	106
1556.48	98
1557.8	98
1559.12	110
1560.44	102
1561.76	108
1563.08	114
1564.4	106
1565.71	110
1567.03	94
1568.35	118
1569.66	116
1570.98	112
1572.29	118
1573.61	130
1574.93	126
1576.24	134
1577.55	134
1578.87	144
1580.18	146
1581.5	168
1582.81	170
1584.12	170
1585.43	178
1586.75	198
1588.06	198
1589.37	236
1590.68	250
1591.99	286
1593.3	294
1594.61	336
1595.92	374
1597.23	408
1598.54	420
1599.85	456
1601.16	454
1602.47	474
1603.78	464
1605.08	452
1606.39	418
1607.7	402
1609	358
1610.31	352
1611.62	308
1612.92	276
1614.23	264
1615.53	246
1616.84	222
1618.14	202
1619.45	168
1620.75	174
1622.06	152
1623.36	144
1624.66	130
1625.96	122
1627.27	114
1628.57	106
1629.87	104
1631.17	100
1632.47	94
1633.77	94
1635.07	98
1636.37	104
1637.67	84
1638.97	90
1640.27	98
1641.57	100
1642.87	76
1644.17	84
1645.47	80
1646.76	88
1648.06	78
1649.36	88
1650.66	76
1651.95	72
1653.25	78
1654.54	76
1655.84	80
1657.13	84
1658.43	76
1659.72	74
1661.02	86
1662.31	72
1663.6	80
1664.9	82
1666.19	80
1667.48	78
1668.78	82
1670.07	80
1671.36	84
1672.65	72
1673.94	76
1675.23	76
1676.52	74
1677.81	74
1679.1	72
1680.39	74
1681.68	82
1682.97	78
1684.26	82
1685.55	72
1686.83	74
1688.12	80
1689.41	76
1690.7	70
1691.98	86
1693.27	80
1694.55	64
1695.84	76
1697.13	76
1698.41	76
1699.69	82
1700.98	76
1702.26	84