File: Jesse_Dataset_v2/Pure Raman/Polypropylene oxide/785nm/ps-ppo-6jan25-0,0000-map2_Y06_X02.txt
204.377	392
206.045	376
207.713	374
209.38	362
211.048	336
212.715	342
214.381	330
216.047	314
217.712	342
219.377	364
221.042	368
222.706	412
224.369	510
226.032	582
227.695	694
229.357	776
231.019	922
232.68	1010
234.341	1012
236.001	984
237.661	930
239.321	854
240.98	776
242.639	682
244.297	636
245.955	590
247.612	518
249.268	454
250.924	408
252.58	378
254.236	332
255.891	300
257.546	274
259.2	252
260.854	236
262.507	218
264.16	200
265.812	202
267.463	198
269.115	188
270.766	188
272.417	182
274.067	188
275.717	180
277.365	188
279.014	194
280.663	202
282.311	218
283.958	238
285.605	270
287.252	290
288.898	334
290.543	374
292.188	406
293.833	428
295.477	450
297.121	430
298.765	420
300.407	380
302.05	356
303.693	326
305.334	306
306.975	310
308.615	292
310.256	270
311.896	254
313.535	248
315.175	232
316.813	216
318.451	214
320.089	234
321.726	216
323.362	232
324.999	232
326.635	236
328.271	244
329.905	262
331.54	264
333.174	266
334.807	270
336.441	264
338.074	248
339.707	252
341.338	228
342.969	226
344.601	224
346.231	208
347.861	214
349.491	198
351.12	226
352.749	230
354.378	222
356.006	208
357.633	220
359.261	204
360.887	204
362.513	198
364.139	192
365.764	202
367.39	200
369.014	190
370.638	202
372.261	192
373.884	194
375.508	192
377.13	196
378.752	156
380.373	172
381.994	144
383.615	150
385.235	146
386.854	134
388.473	132
390.092	128
391.711	142
393.328	124
394.947	122
396.564	118
398.181	128
399.797	124
401.412	134
403.027	130
404.642	144
406.257	144
407.871	162
409.484	166
411.098	186
412.711	204
414.323	224
415.935	216
417.547	200
419.158	174
420.768	166
422.378	158
423.988	142
425.597	132
427.206	118
428.814	124
430.422	114
432.03	108
433.637	94
435.243	94
436.85	90
438.456	82
440.062	84
441.666	86
443.271	76
444.876	74
446.479	80
448.082	82
449.685	74
451.287	82
452.89	70
454.492	82
456.092	78
457.693	86
459.293	88
460.893	84
462.492	88
464.092	96
465.691	108
467.288	108
468.887	128
470.483	144
472.081	148
473.677	160
475.273	196
476.869	200
478.463	210
480.059	250
481.653	264
483.247	300
484.84	292
486.433	280
488.026	240
489.618	210
491.21	178
492.801	158
494.392	128
495.983	132
497.573	118
499.162	96
500.752	108
502.341	104
503.929	98
505.517	104
507.105	110
508.692	130
510.279	164
511.865	210
513.45	218
515.037	200
516.621	170
518.206	150
519.79	142
521.374	150
522.957	160
524.54	162
526.123	200
527.705	204
529.287	234
530.868	268
532.448	336
534.029	374
535.609	390
537.188	450
538.768	452
540.346	444
541.925	406
543.502	364
545.08	302
546.657	264
548.234	224
549.81	196
551.386	186
552.961	202
554.536	218
556.11	230
557.684	270
559.258	334
560.832	410
562.405	546
563.977	752
565.55	1060
567.12	1494
568.692	2002
570.263	2396
571.833	2382
573.403	2012
574.973	1456
576.542	1040
578.111	702
579.679	502
581.247	406
582.815	376
584.382	338
585.948	324
587.514	308
589.081	304
590.645	288
592.211	244
593.775	262
595.339	260
596.904	240
598.466	210
600.03	164
601.592	160
603.154	150
604.715	116
606.277	110
607.838	106
609.398	98
610.958	106
612.518	100
614.077	84
615.636	98
617.194	86
618.753	102
620.31	100
621.867	100
623.424	118
624.98	122
626.537	128
628.092	142
629.647	134
631.202	148
632.756	142
634.31	156
635.864	154
637.417	164
638.969	146
640.521	144
642.074	132
643.625	124
645.176	112
646.726	112
648.276	108
649.827	92
651.376	92
652.925	88
654.473	84
656.021	78
657.569	76
659.117	74
660.664	72
662.21	74
663.757	74
665.302	68
666.847	64
668.392	64
669.937	60
671.481	62
673.025	60
674.568	66
676.111	60
677.653	60
679.195	58
680.737	56
682.279	66
683.82	58
685.36	68
686.9	56
688.44	72
689.979	64
691.517	62
693.056	52
694.594	58
696.132	58
697.669	62
699.206	50
700.742	64
702.278	56
703.814	64
705.35	68
706.884	70
708.419	66
709.953	76
711.487	82
713.019	94
714.552	104
716.085	104
717.617	96
719.148	84
720.68	72
722.21	82
723.741	78
725.271	74
726.8	78
728.33	74
729.858	74
731.387	72
732.915	82
734.443	76
735.97	82
737.497	86
739.023	76
740.549	90
742.075	100
743.6	112
745.125	130
746.65	142
748.173	142
749.697	136
751.22	122
752.743	120
754.266	120
755.788	116
757.309	102
758.831	104
760.351	82
761.871	82
763.392	70
764.912	64
766.431	72
767.95	68
769.468	68
770.986	74
772.504	72
774.022	70
775.538	78
777.055	80
778.571	78
780.086	80
781.602	74
783.117	68
784.632	74
786.146	70
787.659	72
789.173	66
790.685	68
792.198	68
793.71	72
795.222	58
796.733	66
798.244	68
799.755	64
801.265	68
802.775	76
804.284	64
805.793	70
807.302	72
808.81	70
810.318	78
811.826	80
813.333	72
814.84	74
816.346	68
817.851	86
819.357	94
820.862	98
822.367	102
823.871	116
825.376	140
826.878	182
828.382	236
829.885	362
831.387	506
832.889	600
834.391	550
835.892	398
837.392	248
838.893	192
840.393	138
841.893	116
843.392	96
844.891	92
846.389	98
847.888	100
849.386	100
850.882	96
852.38	94
853.876	92
855.372	88
856.868	100
858.363	84
859.858	90
861.353	84
862.847	74
864.341	70
865.834	74
867.328	74
868.82	62
870.313	56
871.805	62
873.296	66
874.787	68
876.278	72
877.769	58
879.258	62
880.748	56
882.237	66
883.726	50
885.214	64
886.702	58
888.19	60
889.677	66
891.164	60
892.651	58
894.137	58
895.623	50
897.108	56
898.593	56
900.077	54
901.562	60
903.046	60
904.529	56
906.012	54
907.495	62
908.977	58
910.459	58
911.941	46
913.422	56
914.903	60
916.383	58
917.863	60
919.343	60
920.822	62
922.301	54
923.779	52
925.257	64
926.735	56
928.213	58
929.69	64
931.166	64
932.643	62
934.119	66
935.594	70
937.069	68
938.543	72
940.018	84
941.492	80
942.966	86
944.439	98
945.911	96
947.384	108
948.856	138
950.328	154
951.799	166
953.27	214
954.741	260
956.21	292
957.68	342
959.15	408
960.619	394
962.088	372
963.556	312
965.023	274
966.491	258
967.958	232
969.425	200
970.891	176
972.357	158
973.824	138
975.288	112
976.754	100
978.218	86
979.682	82
981.146	76
982.609	74
984.072	72
985.534	72
986.997	80
988.459	72
989.92	68
991.382	76
992.842	74
994.302	78
995.763	66
997.222	68
998.681	68
1000.14	60
1001.6	66
1003.06	64
1004.52	62
1005.97	66
1007.43	68
1008.89	64
1010.34	62
1011.8	62
1013.25	62
1014.71	62
1016.16	68
1017.62	72
1019.07	78
1020.53	80
1021.98	80
1023.43	82
1024.89	82
1026.34	78
1027.79	96
1029.24	100
1030.69	98
1032.14	96
1033.59	98
1035.04	100
1036.49	92
1037.94	96
1039.39	92
1040.84	84
1042.29	92
1043.73	80
1045.18	76
1046.63	72
1048.08	68
1049.52	72
1050.97	62
1052.41	62
1053.86	62
1055.3	64
1056.75	62
1058.19	64
1059.64	66
1061.08	62
1062.52	68
1063.96	66
1065.41	70
1066.85	58
1068.29	64
1069.73	64
1071.17	62
1072.61	58
1074.05	66
1075.49	60
1076.93	58
1078.37	58
1079.81	68
1081.25	60
1082.68	66
1084.12	66
1085.56	66
1087	64
1088.43	60
1089.87	68
1091.3	72
1092.74	68
1094.17	76
1095.61	68
1097.04	74
1098.48	72
1099.91	70
1101.34	82
1102.78	82
1104.21	98
1105.64	112
1107.07	148
1108.5	210
1109.93	268
1111.36	340
1112.8	344
1114.22	322
1115.65	264
1117.08	200
1118.51	158
1119.94	136
1121.37	116
1122.8	108
1124.22	96
1125.65	98
1127.08	80
1128.5	82
1129.93	88
1131.35	88
1132.78	80
1134.2	88
1135.63	74
1137.05	80
1138.48	84
1139.9	90
1141.32	88
1142.75	86
1144.17	78
1145.59	72
1147.01	76
1148.43	72
1149.85	72
1151.27	78
1152.69	80
1154.11	76
1155.53	78
1156.95	86
1158.37	86
1159.79	90
1161.21	88
1162.62	94
1164.04	88
1165.46	96
1166.87	90
1168.29	82
1169.71	74
1171.12	78
1172.54	78
1173.95	88
1175.37	94
1176.78	110
1178.19	120
1179.61	124
1181.02	150
1182.43	178
1183.84	194
1185.26	232
1186.67	246
1188.08	226
1189.49	202
1190.9	176
1192.31	170
1193.72	154
1195.13	158
1196.54	156
1197.95	166
1199.36	162
1200.76	174
1202.17	180
1203.58	178
1204.99	154
1206.39	158
1207.8	152
1209.2	128
1210.61	114
1212.01	104
1213.42	94
1214.82	96
1216.23	96
1217.63	102
1219.03	86
1220.44	82
1221.84	92
1223.24	102
1224.64	94
1226.05	110
1227.45	122
1228.85	138
1230.25	128
1231.65	122
1233.05	124
1234.45	118
1235.85	102
1237.25	98
1238.64	94
1240.04	92
1241.44	84
1242.84	84
1244.23	82
1245.63	84
1247.03	78
1248.42	88
1249.82	84
1251.21	84
1252.61	78
1254	92
1255.4	90
1256.79	86
1258.19	82
1259.58	88
1260.97	94
1262.36	88
1263.76	98
1265.15	102
1266.54	94
1267.93	94
1269.32	104
1270.71	106
1272.1	98
1273.49	108
1274.88	102
1276.27	104
1277.66	120
1279.05	118
1280.43	122
1281.82	124
1283.21	128
1284.6	136
1285.98	140
1287.37	164
1288.75	168
1290.14	160
1291.53	184
1292.91	192
1294.29	224
1295.68	268
1297.06	296
1298.45	354
1299.83	442
1301.21	550
1302.59	676
1303.98	776
1305.36	802
1306.74	740
1308.12	636
1309.5	530
1310.88	416
1312.26	354
1313.64	310
1315.02	284
1316.4	238
1317.78	228
1319.16	198
1320.53	210
1321.91	180
1323.29	176
1324.67	188
1326.04	184
1327.42	184
1328.79	180
1330.17	172
1331.54	154
1332.92	170
1334.29	154
1335.67	150
1337.04	138
1338.42	156
1339.79	148
1341.16	146
1342.53	142
1343.91	144
1345.28	152
1346.65	164
1348.02	172
1349.39	174
1350.76	160
1352.13	178
1353.5	176
1354.87	166
1356.24	152
1357.61	160
1358.98	140
1360.34	146
1361.71	146
1363.08	152
1364.45	156
1365.81	154
1367.18	162
1368.54	166
1369.91	180
1371.28	194
1372.64	244
1374.01	280
1375.37	332
1376.73	390
1378.1	412
1379.46	418
1380.82	430
1382.19	388
1383.55	380
1384.91	326
1386.27	278
1387.63	216
1388.99	206
1390.35	176
1391.71	148
1393.07	154
1394.43	152
1395.79	140
1397.15	130
1398.51	134
1399.87	140
1401.23	148
1402.58	142
1403.94	146
1405.3	130
1406.65	138
1408.01	128
1409.37	146
1410.72	130
1412.08	140
1413.43	144
1414.79	150
1416.14	152
1417.49	162
1418.85	162
1420.2	162
1421.55	182
1422.91	182
1424.26	168
1425.61	178
1426.96	176
1428.31	182
1429.66	178
1431.01	202
1432.36	184
1433.71	206
1435.06	194
1436.41	198
1437.76	220
1439.11	220
1440.46	214
1441.81	202
1443.15	206
1444.5	196
1445.85	192
1447.19	184
1448.54	180
1449.89	164
1451.23	168
1452.58	170
1453.92	166
1455.27	150
1456.61	164
1457.95	174
1459.3	176
1460.64	164
1461.98	156
1463.33	158
1464.67	152
1466.01	156
1467.35	154
1468.69	152
1470.03	162
1471.37	150
1472.71	154
1474.05	130
1475.39	146
1476.73	142
1478.07	150
1479.41	138
1480.75	146
1482.09	142
1483.42	140
1484.76	136
1486.1	122
1487.43	126
1488.77	130
1490.11	118
1491.44	116
1492.78	124
1494.11	112
1495.45	110
1496.78	118
1498.12	110
1499.45	110
1500.78	108
1502.11	110
1503.45	114
1504.78	114
1506.11	110
1507.44	120
1508.77	112
1510.11	112
1511.44	118
1512.77	114
1514.1	122
1515.43	108
1516.76	120
1518.08	120
1519.41	108
1520.74	110
1522.07	108
1523.4	108
1524.72	108
1526.05	114
1527.38	104
1528.7	110
1530.03	108
1531.36	114
1532.68	112
1534.01	112
1535.33	102
1536.66	116
1537.98	110
1539.3	98
1540.63	96
1541.95	114
1543.27	98
1544.6	112
1545.92	100
1547.24	106
1548.56	104
1549.88	118
1551.2	114
1552.52	108
1553.84	116
1555.17	106
1556.48	112
1557.8	112
1559.12	98
1560.44	114
1561.76	112
1563.08	104
1564.4	108
1565.71	108
1567.03	102
1568.35	112
1569.66	116
1570.98	118
1572.29	124
1573.61	128
1574.93	134
1576.24	134
1577.55	140
1578.87	142
1580.18	158
1581.5	162
1582.81	168
1584.12	186
1585.43	186
1586.75	202
1588.06	222
1589.37	244
1590.68	264
1591.99	268
1593.3	322
1594.61	334
1595.92	370
1597.23	396
1598.54	438
1599.85	478
1601.16	462
1602.47	486
1603.78	500
1605.08	452
1606.39	426
1607.7	424
1609	382
1610.31	374
1611.62	336
1612.92	290
1614.23	274
1615.53	272
1616.84	234
1618.14	200
1619.45	184
1620.75	152
1622.06	150
1623.36	152
1624.66	132
1625.96	126
1627.27	116
1628.57	116
1629.87	110
1631.17	100
1632.47	100
1633.77	98
1635.07	100
1636.37	92
1637.67	98
1638.97	92
1640.27	90
1641.57	98
1642.87	98
1644.17	84
1645.47	84
1646.76	88
1648.06	92
1649.36	92
1650.66	92
1651.95	88
1653.25	82
1654.54	82
1655.84	84
1657.13	84
1658.43	86
1659.72	86
1661.02	78
1662.31	84
1663.6	82
1664.9	74
1666.19	82
1667.48	78
1668.78	76
1670.07	76
1671.36	80
1672.65	82
1673.94	74
1675.23	74
1676.52	76
1677.81	78
1679.1	82
1680.39	76
1681.68	66
1682.97	70
1684.26	78
1685.55	70
1686.83	80
1688.12	82
1689.41	84
1690.7	80
1691.98	78
1693.27	80
1694.55	84
1695.84	78
1697.13	76
1698.41	76
1699.69	74
1700.98	82
1702.26	84