File: Jesse_Dataset_v2/Pure Raman/Polypropylene oxide/785nm/ps-ppo-6jan25-0,0000-map2_Y09_X06.txt
204.377	350
206.045	322
207.713	328
209.38	324
211.048	324
212.715	316
214.381	282
216.047	304
217.712	296
219.377	328
221.042	356
222.706	368
224.369	440
226.032	516
227.695	632
229.357	716
231.019	808
232.68	876
234.341	888
236.001	864
237.661	834
239.321	762
240.98	698
242.639	608
244.297	578
245.955	516
247.612	452
249.268	420
250.924	362
252.58	302
254.236	282
255.891	252
257.546	254
259.2	216
260.854	210
262.507	200
264.16	200
265.812	178
267.463	178
269.115	160
270.766	174
272.417	172
274.067	160
275.717	162
277.365	170
279.014	180
280.663	188
282.311	200
283.958	210
285.605	254
287.252	270
288.898	306
290.543	332
292.188	372
293.833	396
295.477	398
297.121	398
298.765	338
300.407	340
302.05	318
303.693	304
305.334	290
306.975	272
308.615	274
310.256	236
311.896	220
313.535	200
315.175	196
316.813	216
318.451	206
320.089	198
321.726	206
323.362	218
324.999	208
326.635	224
328.271	212
329.905	236
331.54	246
333.174	242
334.807	242
336.441	232
338.074	236
339.707	224
341.338	206
342.969	202
344.601	188
346.231	206
347.861	188
349.491	190
351.12	178
352.749	192
354.378	198
356.006	202
357.633	196
359.261	188
360.887	172
362.513	168
364.139	180
365.764	170
367.39	178
369.014	182
370.638	184
372.261	174
373.884	182
375.508	174
377.13	152
378.752	152
380.373	150
381.994	136
383.615	132
385.235	138
386.854	126
388.473	122
390.092	124
391.711	118
393.328	128
394.947	118
396.564	110
398.181	126
399.797	122
401.412	126
403.027	126
404.642	122
406.257	134
407.871	146
409.484	162
411.098	174
412.711	186
414.323	194
415.935	196
417.547	174
419.158	174
420.768	154
422.378	130
423.988	124
425.597	124
427.206	108
428.814	104
430.422	104
432.03	100
433.637	92
435.243	88
436.85	82
438.456	86
440.062	82
441.666	82
443.271	68
444.876	78
446.479	80
448.082	76
449.685	70
451.287	76
452.89	72
454.492	72
456.092	68
457.693	80
459.293	80
460.893	72
462.492	90
464.092	92
465.691	100
467.288	100
468.887	120
470.483	128
472.081	142
473.677	154
475.273	162
476.869	196
478.463	206
480.059	226
481.653	216
483.247	246
484.84	276
486.433	240
488.026	224
489.618	182
491.21	150
492.801	148
494.392	132
495.983	118
497.573	104
499.162	96
500.752	98
502.341	96
503.929	88
505.517	98
507.105	110
508.692	120
510.279	150
511.865	190
513.45	194
515.037	186
516.621	156
518.206	148
519.79	138
521.374	144
522.957	142
524.54	164
526.123	162
527.705	176
529.287	204
530.868	246
532.448	288
534.029	322
535.609	386
537.188	400
538.768	388
540.346	386
541.925	390
543.502	334
545.08	274
546.657	228
548.234	200
549.81	182
551.386	180
552.961	182
554.536	186
556.11	214
557.684	226
559.258	294
560.832	332
562.405	492
563.977	656
565.55	898
567.12	1290
568.692	1794
570.263	2098
571.833	2046
573.403	1768
574.973	1310
576.542	894
578.111	618
579.679	454
581.247	338
582.815	320
584.382	306
585.948	292
587.514	294
589.081	256
590.645	250
592.211	246
593.775	234
595.339	226
596.904	202
598.466	172
600.03	156
601.592	138
603.154	120
604.715	96
606.277	100
607.838	94
609.398	90
610.958	82
612.518	80
614.077	88
615.636	84
617.194	92
618.753	90
620.31	94
621.867	102
623.424	98
624.98	118
626.537	102
628.092	120
629.647	120
631.202	140
632.756	130
634.31	142
635.864	142
637.417	142
638.969	132
640.521	134
642.074	132
643.625	116
645.176	108
646.726	102
648.276	94
649.827	92
651.376	76
652.925	80
654.473	76
656.021	88
657.569	70
659.117	74
660.664	72
662.21	72
663.757	64
665.302	66
666.847	62
668.392	62
669.937	58
671.481	54
673.025	60
674.568	56
676.111	60
677.653	58
679.195	62
680.737	58
682.279	58
683.82	66
685.36	60
686.9	64
688.44	56
689.979	56
691.517	60
693.056	60
694.594	58
696.132	58
697.669	54
699.206	56
700.742	62
702.278	56
703.814	64
705.35	64
706.884	68
708.419	80
709.953	82
711.487	80
713.019	92
714.552	88
716.085	86
717.617	84
719.148	76
720.68	78
722.21	70
723.741	70
725.271	78
726.8	74
728.33	72
729.858	70
731.387	74
732.915	80
734.443	72
735.97	84
737.497	82
739.023	84
740.549	88
742.075	90
743.6	96
745.125	118
746.65	132
748.173	138
749.697	128
751.22	120
752.743	104
754.266	124
755.788	110
757.309	90
758.831	84
760.351	82
761.871	68
763.392	68
764.912	64
766.431	56
767.95	62
769.468	62
770.986	68
772.504	66
774.022	74
775.538	68
777.055	68
778.571	78
780.086	58
781.602	72
783.117	72
784.632	72
786.146	68
787.659	62
789.173	66
790.685	62
792.198	60
793.71	62
795.222	66
796.733	60
798.244	60
799.755	62
801.265	62
802.775	68
804.284	68
805.793	68
807.302	68
808.81	70
810.318	70
811.826	62
813.333	76
814.84	72
816.346	66
817.851	80
819.357	72
820.862	82
822.367	94
823.871	112
825.376	124
826.878	154
828.382	206
829.885	324
831.387	454
832.889	528
834.391	464
835.892	360
837.392	210
838.893	150
840.393	132
841.893	110
843.392	98
844.891	86
846.389	96
847.888	92
849.386	96
850.882	90
852.38	86
853.876	88
855.372	86
856.868	74
858.363	80
859.858	74
861.353	72
862.847	70
864.341	74
865.834	68
867.328	70
868.82	60
870.313	66
871.805	60
873.296	64
874.787	58
876.278	62
877.769	62
879.258	58
880.748	58
882.237	66
883.726	60
885.214	58
886.702	60
888.19	52
889.677	60
891.164	58
892.651	52
894.137	50
895.623	52
897.108	56
898.593	54
900.077	54
901.562	54
903.046	54
904.529	54
906.012	60
907.495	58
908.977	54
910.459	50
911.941	50
913.422	50
914.903	52
916.383	60
917.863	58
919.343	54
920.822	62
922.301	52
923.779	60
925.257	60
926.735	56
928.213	64
929.69	54
931.166	60
932.643	60
934.119	72
935.594	72
937.069	68
938.543	68
940.018	76
941.492	80
942.966	76
944.439	90
945.911	92
947.384	106
948.856	120
950.328	134
951.799	170
953.27	186
954.741	248
956.21	274
957.68	310
959.15	342
960.619	328
962.088	342
963.556	298
965.023	264
966.491	224
967.958	206
969.425	188
970.891	160
972.357	136
973.824	116
975.288	106
976.754	92
978.218	88
979.682	74
981.146	74
982.609	76
984.072	70
985.534	62
986.997	64
988.459	66
989.92	76
991.382	72
992.842	72
994.302	64
995.763	58
997.222	58
998.681	66
1000.14	60
1001.6	64
1003.06	60
1004.52	58
1005.97	54
1007.43	66
1008.89	62
1010.34	62
1011.8	60
1013.25	60
1014.71	64
1016.16	64
1017.62	62
1019.07	70
1020.53	70
1021.98	72
1023.43	80
1024.89	70
1026.34	84
1027.79	88
1029.24	82
1030.69	86
1032.14	98
1033.59	82
1035.04	90
1036.49	88
1037.94	90
1039.39	84
1040.84	86
1042.29	90
1043.73	80
1045.18	88
1046.63	68
1048.08	66
1049.52	72
1050.97	60
1052.41	66
1053.86	60
1055.3	62
1056.75	66
1058.19	60
1059.64	64
1061.08	64
1062.52	58
1063.96	64
1065.41	60
1066.85	58
1068.29	62
1069.73	58
1071.17	56
1072.61	54
1074.05	56
1075.49	58
1076.93	56
1078.37	62
1079.81	64
1081.25	58
1082.68	58
1084.12	58
1085.56	70
1087	68
1088.43	62
1089.87	64
1091.3	68
1092.74	64
1094.17	62
1095.61	76
1097.04	66
1098.48	64
1099.91	68
1101.34	76
1102.78	80
1104.21	90
1105.64	112
1107.07	138
1108.5	176
1109.93	244
1111.36	292
1112.8	316
1114.22	282
1115.65	236
1117.08	186
1118.51	148
1119.94	114
1121.37	108
1122.8	108
1124.22	100
1125.65	94
1127.08	88
1128.5	82
1129.93	86
1131.35	78
1132.78	72
1134.2	86
1135.63	86
1137.05	82
1138.48	86
1139.9	82
1141.32	86
1142.75	90
1144.17	80
1145.59	72
1147.01	76
1148.43	74
1149.85	66
1151.27	68
1152.69	66
1154.11	68
1155.53	80
1156.95	78
1158.37	72
1159.79	84
1161.21	88
1162.62	82
1164.04	88
1165.46	94
1166.87	76
1168.29	82
1169.71	76
1171.12	82
1172.54	84
1173.95	88
1175.37	94
1176.78	100
1178.19	108
1179.61	122
1181.02	140
1182.43	160
1183.84	168
1185.26	204
1186.67	226
1188.08	208
1189.49	190
1190.9	176
1192.31	154
1193.72	144
1195.13	140
1196.54	140
1197.95	142
1199.36	138
1200.76	154
1202.17	156
1203.58	162
1204.99	164
1206.39	144
1207.8	130
1209.2	120
1210.61	96
1212.01	98
1213.42	102
1214.82	82
1216.23	82
1217.63	90
1219.03	80
1220.44	88
1221.84	90
1223.24	98
1224.64	90
1226.05	92
1227.45	110
1228.85	126
1230.25	114
1231.65	112
1233.05	110
1234.45	102
1235.85	94
1237.25	90
1238.64	78
1240.04	88
1241.44	76
1242.84	90
1244.23	74
1245.63	74
1247.03	84
1248.42	84
1249.82	84
1251.21	74
1252.61	82
1254	88
1255.4	86
1256.79	78
1258.19	88
1259.58	80
1260.97	82
1262.36	76
1263.76	84
1265.15	84
1266.54	82
1267.93	90
1269.32	90
1270.71	100
1272.1	98
1273.49	92
1274.88	104
1276.27	102
1277.66	100
1279.05	114
1280.43	110
1281.82	124
1283.21	110
1284.6	132
1285.98	136
1287.37	148
1288.75	146
1290.14	156
1291.53	160
1292.91	172
1294.29	198
1295.68	232
1297.06	262
1298.45	316
1299.83	408
1301.21	502
1302.59	600
1303.98	716
1305.36	708
1306.74	682
1308.12	592
1309.5	454
1310.88	374
1312.26	318
1313.64	272
1315.02	238
1316.4	226
1317.78	198
1319.16	190
1320.53	174
1321.91	176
1323.29	168
1324.67	166
1326.04	164
1327.42	166
1328.79	168
1330.17	162
1331.54	156
1332.92	152
1334.29	140
1335.67	138
1337.04	144
1338.42	132
1339.79	128
1341.16	144
1342.53	148
1343.91	142
1345.28	140
1346.65	158
1348.02	150
1349.39	162
1350.76	164
1352.13	152
1353.5	162
1354.87	152
1356.24	148
1357.61	132
1358.98	136
1360.34	130
1361.71	130
1363.08	144
1364.45	144
1365.81	144
1367.18	140
1368.54	156
1369.91	158
1371.28	188
1372.64	214
1374.01	254
1375.37	312
1376.73	356
1378.1	386
1379.46	392
1380.82	362
1382.19	374
1383.55	322
1384.91	264
1386.27	244
1387.63	218
1388.99	174
1390.35	150
1391.71	150
1393.07	134
1394.43	140
1395.79	130
1397.15	128
1398.51	128
1399.87	134
1401.23	122
1402.58	134
1403.94	118
1405.3	124
1406.65	120
1408.01	126
1409.37	118
1410.72	132
1412.08	126
1413.43	126
1414.79	128
1416.14	140
1417.49	148
1418.85	150
1420.2	150
1421.55	150
1422.91	158
1424.26	172
1425.61	156
1426.96	176
1428.31	172
1429.66	166
1431.01	178
1432.36	184
1433.71	184
1435.06	182
1436.41	188
1437.76	188
1439.11	196
1440.46	210
1441.81	184
1443.15	182
1444.5	192
1445.85	184
1447.19	168
1448.54	150
1449.89	166
1451.23	150
1452.58	148
1453.92	144
1455.27	154
1456.61	154
1457.95	150
1459.3	148
1460.64	146
1461.98	146
1463.33	154
1464.67	148
1466.01	122
1467.35	120
1468.69	128
1470.03	146
1471.37	128
1472.71	142
1474.05	140
1475.39	134
1476.73	138
1478.07	140
1479.41	134
1480.75	126
1482.09	126
1483.42	114
1484.76	122
1486.1	118
1487.43	110
1488.77	120
1490.11	108
1491.44	112
1492.78	112
1494.11	106
1495.45	98
1496.78	110
1498.12	108
1499.45	104
1500.78	96
1502.11	108
1503.45	112
1504.78	96
1506.11	110
1507.44	106
1508.77	110
1510.11	104
1511.44	96
1512.77	102
1514.1	112
1515.43	104
1516.76	102
1518.08	102
1519.41	96
1520.74	102
1522.07	110
1523.4	102
1524.72	100
1526.05	100
1527.38	104
1528.7	94
1530.03	94
1531.36	104
1532.68	108
1534.01	102
1535.33	102
1536.66	100
1537.98	98
1539.3	104
1540.63	106
1541.95	102
1543.27	106
1544.6	104
1545.92	108
1547.24	106
1548.56	104
1549.88	104
1551.2	102
1552.52	106
1553.84	98
1555.17	94
1556.48	96
1557.8	96
1559.12	98
1560.44	100
1561.76	106
1563.08	104
1564.4	102
1565.71	96
1567.03	104
1568.35	110
1569.66	106
1570.98	114
1572.29	110
1573.61	106
1574.93	116
1576.24	130
1577.55	126
1578.87	138
1580.18	128
1581.5	154
1582.81	156
1584.12	158
1585.43	176
1586.75	196
1588.06	194
1589.37	226
1590.68	246
1591.99	272
1593.3	292
1594.61	308
1595.92	330
1597.23	350
1598.54	390
1599.85	422
1601.16	434
1602.47	438
1603.78	404
1605.08	404
1606.39	384
1607.7	368
1609	342
1610.31	306
1611.62	294
1612.92	266
1614.23	250
1615.53	214
1616.84	200
1618.14	190
1619.45	184
1620.75	152
1622.06	130
1623.36	128
1624.66	118
1625.96	118
1627.27	114
1628.57	106
1629.87	108
1631.17	102
1632.47	92
1633.77	98
1635.07	90
1636.37	96
1637.67	88
1638.97	90
1640.27	86
1641.57	88
1642.87	88
1644.17	84
1645.47	80
1646.76	74
1648.06	88
1649.36	90
1650.66	82
1651.95	86
1653.25	84
1654.54	84
1655.84	80
1657.13	70
1658.43	82
1659.72	68
1661.02	74
1662.31	82
1663.6	76
1664.9	76
1666.19	74
1667.48	76
1668.78	72
1670.07	76
1671.36	76
1672.65	72
1673.94	78
1675.23	70
1676.52	74
1677.81	60
1679.1	70
1680.39	70
1681.68	70
1682.97	78
1684.26	74
1685.55	80
1686.83	84
1688.12	72
1689.41	80
1690.7	76
1691.98	78
1693.27	74
1694.55	74
1695.84	74
1697.13	78
1698.41	70
1699.69	78
1700.98	68
1702.26	70