File: Jesse_Dataset_v2/Pure Raman/Polypropylene oxide/785nm/ps-ppo-6jan25-0,0000-map2_Y08_X09.txt
204.377	364
206.045	362
207.713	346
209.38	322
211.048	324
212.715	302
214.381	322
216.047	312
217.712	336
219.377	344
221.042	362
222.706	394
224.369	450
226.032	534
227.695	640
229.357	760
231.019	820
232.68	942
234.341	920
236.001	924
237.661	868
239.321	798
240.98	704
242.639	652
244.297	614
245.955	528
247.612	476
249.268	442
250.924	384
252.58	354
254.236	320
255.891	274
257.546	246
259.2	236
260.854	218
262.507	202
264.16	198
265.812	176
267.463	170
269.115	166
270.766	178
272.417	168
274.067	166
275.717	168
277.365	182
279.014	190
280.663	186
282.311	202
283.958	218
285.605	242
287.252	282
288.898	312
290.543	366
292.188	378
293.833	396
295.477	422
297.121	414
298.765	412
300.407	366
302.05	334
303.693	308
305.334	294
306.975	278
308.615	268
310.256	242
311.896	248
313.535	236
315.175	220
316.813	224
318.451	208
320.089	226
321.726	224
323.362	212
324.999	204
326.635	222
328.271	228
329.905	242
331.54	256
333.174	242
334.807	242
336.441	246
338.074	238
339.707	208
341.338	218
342.969	200
344.601	210
346.231	190
347.861	198
349.491	212
351.12	198
352.749	204
354.378	210
356.006	208
357.633	208
359.261	198
360.887	180
362.513	174
364.139	190
365.764	190
367.39	168
369.014	172
370.638	182
372.261	180
373.884	190
375.508	188
377.13	176
378.752	162
380.373	140
381.994	142
383.615	142
385.235	142
386.854	136
388.473	134
390.092	118
391.711	124
393.328	110
394.947	118
396.564	126
398.181	126
399.797	138
401.412	126
403.027	130
404.642	126
406.257	138
407.871	158
409.484	158
411.098	180
412.711	192
414.323	200
415.935	208
417.547	186
419.158	174
420.768	156
422.378	146
423.988	136
425.597	116
427.206	108
428.814	108
430.422	98
432.03	96
433.637	98
435.243	94
436.85	92
438.456	84
440.062	76
441.666	86
443.271	76
444.876	78
446.479	74
448.082	70
449.685	80
451.287	78
452.89	80
454.492	72
456.092	80
457.693	84
459.293	74
460.893	86
462.492	86
464.092	88
465.691	94
467.288	114
468.887	120
470.483	132
472.081	146
473.677	154
475.273	188
476.869	190
478.463	224
480.059	236
481.653	234
483.247	268
484.84	284
486.433	272
488.026	232
489.618	180
491.21	164
492.801	150
494.392	132
495.983	124
497.573	112
499.162	106
500.752	96
502.341	94
503.929	94
505.517	110
507.105	98
508.692	122
510.279	164
511.865	184
513.45	216
515.037	192
516.621	162
518.206	134
519.79	134
521.374	142
522.957	152
524.54	158
526.123	172
527.705	194
529.287	222
530.868	254
532.448	298
534.029	338
535.609	372
537.188	418
538.768	422
540.346	412
541.925	402
543.502	328
545.08	280
546.657	246
548.234	218
549.81	190
551.386	184
552.961	184
554.536	206
556.11	230
557.684	252
559.258	312
560.832	412
562.405	508
563.977	672
565.55	934
567.12	1390
568.692	1860
570.263	2196
571.833	2204
573.403	1842
574.973	1358
576.542	926
578.111	624
579.679	476
581.247	378
582.815	360
584.382	322
585.948	308
587.514	290
589.081	270
590.645	242
592.211	250
593.775	244
595.339	230
596.904	222
598.466	194
600.03	160
601.592	152
603.154	114
604.715	114
606.277	104
607.838	94
609.398	96
610.958	88
612.518	88
614.077	80
615.636	82
617.194	86
618.753	100
620.31	96
621.867	90
623.424	110
624.98	114
626.537	108
628.092	114
629.647	128
631.202	126
632.756	136
634.31	144
635.864	136
637.417	150
638.969	136
640.521	118
642.074	112
643.625	108
645.176	108
646.726	102
648.276	94
649.827	90
651.376	90
652.925	84
654.473	84
656.021	70
657.569	74
659.117	70
660.664	70
662.21	68
663.757	70
665.302	68
666.847	62
668.392	58
669.937	60
671.481	60
673.025	64
674.568	56
676.111	60
677.653	60
679.195	54
680.737	56
682.279	56
683.82	62
685.36	60
686.9	62
688.44	56
689.979	62
691.517	56
693.056	60
694.594	52
696.132	54
697.669	52
699.206	58
700.742	60
702.278	60
703.814	60
705.35	66
706.884	72
708.419	74
709.953	80
711.487	82
713.019	96
714.552	88
716.085	86
717.617	86
719.148	92
720.68	78
722.21	74
723.741	74
725.271	70
726.8	76
728.33	68
729.858	72
731.387	80
732.915	80
734.443	74
735.97	78
737.497	76
739.023	86
740.549	84
742.075	90
743.6	98
745.125	120
746.65	140
748.173	134
749.697	126
751.22	114
752.743	112
754.266	116
755.788	106
757.309	94
758.831	88
760.351	82
761.871	72
763.392	62
764.912	70
766.431	62
767.95	66
769.468	58
770.986	66
772.504	70
774.022	62
775.538	70
777.055	74
778.571	72
780.086	72
781.602	74
783.117	78
784.632	82
786.146	72
787.659	68
789.173	62
790.685	68
792.198	60
793.71	72
795.222	66
796.733	64
798.244	66
799.755	58
801.265	68
802.775	66
804.284	64
805.793	70
807.302	70
808.81	78
810.318	74
811.826	66
813.333	66
814.84	74
816.346	76
817.851	86
819.357	82
820.862	86
822.367	96
823.871	110
825.376	124
826.878	164
828.382	222
829.885	330
831.387	456
832.889	558
834.391	518
835.892	376
837.392	248
838.893	162
840.393	126
841.893	106
843.392	100
844.891	92
846.389	90
847.888	98
849.386	92
850.882	88
852.38	92
853.876	86
855.372	82
856.868	94
858.363	86
859.858	70
861.353	76
862.847	76
864.341	68
865.834	66
867.328	70
868.82	68
870.313	64
871.805	62
873.296	64
874.787	54
876.278	64
877.769	60
879.258	64
880.748	62
882.237	64
883.726	60
885.214	60
886.702	56
888.19	62
889.677	54
891.164	62
892.651	58
894.137	58
895.623	58
897.108	52
898.593	56
900.077	56
901.562	60
903.046	50
904.529	56
906.012	56
907.495	58
908.977	54
910.459	56
911.941	58
913.422	60
914.903	58
916.383	56
917.863	52
919.343	60
920.822	60
922.301	60
923.779	60
925.257	50
926.735	56
928.213	58
929.69	60
931.166	64
932.643	60
934.119	64
935.594	64
937.069	70
938.543	66
940.018	72
941.492	70
942.966	84
944.439	88
945.911	92
947.384	108
948.856	128
950.328	140
951.799	178
953.27	196
954.741	236
956.21	290
957.68	326
959.15	368
960.619	344
962.088	354
963.556	318
965.023	258
966.491	236
967.958	202
969.425	204
970.891	178
972.357	142
973.824	128
975.288	98
976.754	96
978.218	82
979.682	82
981.146	76
982.609	78
984.072	70
985.534	68
986.997	72
988.459	68
989.92	74
991.382	72
992.842	72
994.302	60
995.763	66
997.222	60
998.681	72
1000.14	62
1001.6	58
1003.06	66
1004.52	60
1005.97	60
1007.43	64
1008.89	56
1010.34	60
1011.8	60
1013.25	58
1014.71	64
1016.16	70
1017.62	56
1019.07	76
1020.53	76
1021.98	80
1023.43	84
1024.89	74
1026.34	80
1027.79	90
1029.24	88
1030.69	88
1032.14	96
1033.59	94
1035.04	86
1036.49	102
1037.94	88
1039.39	96
1040.84	86
1042.29	86
1043.73	84
1045.18	72
1046.63	72
1048.08	58
1049.52	74
1050.97	74
1052.41	70
1053.86	58
1055.3	60
1056.75	64
1058.19	58
1059.64	66
1061.08	56
1062.52	62
1063.96	58
1065.41	60
1066.85	62
1068.29	62
1069.73	56
1071.17	64
1072.61	68
1074.05	66
1075.49	64
1076.93	64
1078.37	60
1079.81	64
1081.25	68
1082.68	64
1084.12	60
1085.56	68
1087	60
1088.43	62
1089.87	64
1091.3	66
1092.74	62
1094.17	68
1095.61	68
1097.04	68
1098.48	60
1099.91	72
1101.34	74
1102.78	82
1104.21	94
1105.64	110
1107.07	138
1108.5	180
1109.93	260
1111.36	332
1112.8	332
1114.22	306
1115.65	218
1117.08	192
1118.51	158
1119.94	126
1121.37	102
1122.8	100
1124.22	100
1125.65	88
1127.08	98
1128.5	90
1129.93	84
1131.35	82
1132.78	86
1134.2	80
1135.63	82
1137.05	78
1138.48	80
1139.9	80
1141.32	84
1142.75	82
1144.17	74
1145.59	74
1147.01	68
1148.43	66
1149.85	72
1151.27	66
1152.69	68
1154.11	78
1155.53	74
1156.95	82
1158.37	80
1159.79	82
1161.21	98
1162.62	96
1164.04	94
1165.46	86
1166.87	80
1168.29	86
1169.71	86
1171.12	86
1172.54	82
1173.95	94
1175.37	94
1176.78	100
1178.19	110
1179.61	126
1181.02	124
1182.43	160
1183.84	198
1185.26	220
1186.67	224
1188.08	220
1189.49	200
1190.9	174
1192.31	146
1193.72	144
1195.13	150
1196.54	136
1197.95	144
1199.36	164
1200.76	162
1202.17	158
1203.58	166
1204.99	160
1206.39	140
1207.8	130
1209.2	114
1210.61	106
1212.01	108
1213.42	90
1214.82	86
1216.23	90
1217.63	88
1219.03	88
1220.44	92
1221.84	92
1223.24	86
1224.64	110
1226.05	112
1227.45	110
1228.85	132
1230.25	132
1231.65	128
1233.05	108
1234.45	110
1235.85	100
1237.25	90
1238.64	84
1240.04	94
1241.44	84
1242.84	80
1244.23	80
1245.63	86
1247.03	82
1248.42	90
1249.82	84
1251.21	84
1252.61	92
1254	82
1255.4	80
1256.79	84
1258.19	78
1259.58	84
1260.97	90
1262.36	84
1263.76	86
1265.15	90
1266.54	98
1267.93	90
1269.32	92
1270.71	86
1272.1	92
1273.49	94
1274.88	96
1276.27	102
1277.66	110
1279.05	108
1280.43	110
1281.82	118
1283.21	126
1284.6	136
1285.98	140
1287.37	154
1288.75	152
1290.14	158
1291.53	174
1292.91	188
1294.29	194
1295.68	244
1297.06	268
1298.45	318
1299.83	400
1301.21	500
1302.59	648
1303.98	678
1305.36	764
1306.74	706
1308.12	608
1309.5	496
1310.88	402
1312.26	308
1313.64	266
1315.02	256
1316.4	218
1317.78	198
1319.16	202
1320.53	200
1321.91	170
1323.29	170
1324.67	174
1326.04	178
1327.42	176
1328.79	180
1330.17	178
1331.54	158
1332.92	154
1334.29	144
1335.67	150
1337.04	130
1338.42	134
1339.79	132
1341.16	136
1342.53	130
1343.91	150
1345.28	146
1346.65	148
1348.02	154
1349.39	156
1350.76	150
1352.13	156
1353.5	152
1354.87	146
1356.24	148
1357.61	134
1358.98	146
1360.34	132
1361.71	132
1363.08	142
1364.45	142
1365.81	134
1367.18	156
1368.54	158
1369.91	158
1371.28	176
1372.64	200
1374.01	258
1375.37	338
1376.73	372
1378.1	404
1379.46	398
1380.82	382
1382.19	378
1383.55	344
1384.91	284
1386.27	258
1387.63	226
1388.99	186
1390.35	170
1391.71	156
1393.07	138
1394.43	148
1395.79	136
1397.15	128
1398.51	138
1399.87	124
1401.23	132
1402.58	136
1403.94	124
1405.3	122
1406.65	132
1408.01	126
1409.37	134
1410.72	126
1412.08	128
1413.43	142
1414.79	144
1416.14	142
1417.49	140
1418.85	138
1420.2	160
1421.55	150
1422.91	156
1424.26	166
1425.61	158
1426.96	174
1428.31	178
1429.66	168
1431.01	184
1432.36	182
1433.71	182
1435.06	176
1436.41	206
1437.76	210
1439.11	216
1440.46	198
1441.81	194
1443.15	188
1444.5	180
1445.85	184
1447.19	182
1448.54	182
1449.89	168
1451.23	150
1452.58	156
1453.92	146
1455.27	154
1456.61	140
1457.95	150
1459.3	136
1460.64	154
1461.98	152
1463.33	144
1464.67	142
1466.01	138
1467.35	136
1468.69	140
1470.03	144
1471.37	150
1472.71	140
1474.05	134
1475.39	128
1476.73	136
1478.07	136
1479.41	140
1480.75	134
1482.09	136
1483.42	124
1484.76	128
1486.1	122
1487.43	116
1488.77	114
1490.11	104
1491.44	116
1492.78	116
1494.11	110
1495.45	106
1496.78	110
1498.12	112
1499.45	106
1500.78	106
1502.11	104
1503.45	108
1504.78	104
1506.11	108
1507.44	104
1508.77	110
1510.11	106
1511.44	104
1512.77	102
1514.1	110
1515.43	108
1516.76	108
1518.08	102
1519.41	108
1520.74	108
1522.07	98
1523.4	104
1524.72	96
1526.05	100
1527.38	98
1528.7	112
1530.03	102
1531.36	96
1532.68	96
1534.01	108
1535.33	112
1536.66	98
1537.98	98
1539.3	106
1540.63	100
1541.95	104
1543.27	106
1544.6	102
1545.92	110
1547.24	102
1548.56	108
1549.88	96
1551.2	100
1552.52	96
1553.84	98
1555.17	104
1556.48	98
1557.8	106
1559.12	106
1560.44	106
1561.76	102
1563.08	100
1564.4	110
1565.71	102
1567.03	118
1568.35	114
1569.66	112
1570.98	110
1572.29	112
1573.61	114
1574.93	118
1576.24	116
1577.55	138
1578.87	140
1580.18	138
1581.5	148
1582.81	158
1584.12	166
1585.43	172
1586.75	188
1588.06	198
1589.37	226
1590.68	262
1591.99	278
1593.3	298
1594.61	318
1595.92	344
1597.23	386
1598.54	392
1599.85	424
1601.16	444
1602.47	476
1603.78	440
1605.08	432
1606.39	396
1607.7	374
1609	342
1610.31	334
1611.62	310
1612.92	274
1614.23	236
1615.53	244
1616.84	208
1618.14	202
1619.45	172
1620.75	160
1622.06	146
1623.36	134
1624.66	130
1625.96	116
1627.27	124
1628.57	106
1629.87	106
1631.17	102
1632.47	100
1633.77	98
1635.07	94
1636.37	102
1637.67	96
1638.97	86
1640.27	90
1641.57	82
1642.87	90
1644.17	84
1645.47	86
1646.76	84
1648.06	82
1649.36	84
1650.66	82
1651.95	80
1653.25	74
1654.54	86
1655.84	78
1657.13	76
1658.43	72
1659.72	78
1661.02	70
1662.31	84
1663.6	78
1664.9	74
1666.19	82
1667.48	78
1668.78	68
1670.07	72
1671.36	76
1672.65	82
1673.94	68
1675.23	70
1676.52	74
1677.81	78
1679.1	68
1680.39	70
1681.68	76
1682.97	70
1684.26	74
1685.55	74
1686.83	82
1688.12	88
1689.41	78
1690.7	76
1691.98	84
1693.27	72
1694.55	78
1695.84	76
1697.13	76
1698.41	84
1699.69	68
1700.98	74
1702.26	74