File: Jesse_Dataset_v2/Pure Raman/Polypropylene oxide/785nm/ps-ppo-6jan25-0,0000-map2_Y09_X03.txt
204.377	324
206.045	326
207.713	320
209.38	308
211.048	282
212.715	288
214.381	284
216.047	296
217.712	302
219.377	302
221.042	340
222.706	346
224.369	442
226.032	476
227.695	606
229.357	686
231.019	796
232.68	828
234.341	842
236.001	834
237.661	798
239.321	740
240.98	672
242.639	602
244.297	524
245.955	496
247.612	406
249.268	374
250.924	352
252.58	316
254.236	290
255.891	252
257.546	242
259.2	204
260.854	204
262.507	184
264.16	184
265.812	176
267.463	160
269.115	166
270.766	168
272.417	154
274.067	156
275.717	156
277.365	160
279.014	150
280.663	176
282.311	182
283.958	196
285.605	226
287.252	248
288.898	284
290.543	318
292.188	338
293.833	372
295.477	372
297.121	374
298.765	356
300.407	334
302.05	288
303.693	282
305.334	276
306.975	262
308.615	244
310.256	230
311.896	232
313.535	208
315.175	198
316.813	198
318.451	202
320.089	208
321.726	216
323.362	200
324.999	204
326.635	208
328.271	222
329.905	224
331.54	232
333.174	242
334.807	224
336.441	232
338.074	216
339.707	202
341.338	190
342.969	196
344.601	180
346.231	194
347.861	176
349.491	176
351.12	188
352.749	180
354.378	200
356.006	182
357.633	184
359.261	162
360.887	170
362.513	168
364.139	166
365.764	172
367.39	186
369.014	174
370.638	164
372.261	156
373.884	184
375.508	166
377.13	158
378.752	146
380.373	134
381.994	126
383.615	132
385.235	128
386.854	118
388.473	110
390.092	124
391.711	118
393.328	108
394.947	118
396.564	118
398.181	98
399.797	108
401.412	122
403.027	120
404.642	116
406.257	128
407.871	140
409.484	142
411.098	154
412.711	174
414.323	188
415.935	194
417.547	166
419.158	142
420.768	148
422.378	128
423.988	122
425.597	106
427.206	104
428.814	94
430.422	94
432.03	90
433.637	90
435.243	88
436.85	78
438.456	80
440.062	80
441.666	72
443.271	78
444.876	80
446.479	80
448.082	80
449.685	74
451.287	64
452.89	70
454.492	82
456.092	76
457.693	80
459.293	78
460.893	74
462.492	82
464.092	82
465.691	92
467.288	96
468.887	114
470.483	120
472.081	134
473.677	146
475.273	158
476.869	170
478.463	196
480.059	216
481.653	238
483.247	250
484.84	260
486.433	242
488.026	216
489.618	184
491.21	158
492.801	134
494.392	124
495.983	106
497.573	98
499.162	98
500.752	108
502.341	90
503.929	90
505.517	86
507.105	104
508.692	108
510.279	146
511.865	182
513.45	192
515.037	186
516.621	160
518.206	126
519.79	126
521.374	134
522.957	134
524.54	150
526.123	156
527.705	178
529.287	202
530.868	248
532.448	276
534.029	336
535.609	346
537.188	376
538.768	396
540.346	374
541.925	354
543.502	298
545.08	256
546.657	226
548.234	194
549.81	194
551.386	174
552.961	162
554.536	184
556.11	204
557.684	216
559.258	274
560.832	336
562.405	476
563.977	632
565.55	896
567.12	1230
568.692	1652
570.263	1980
571.833	1918
573.403	1672
574.973	1212
576.542	842
578.111	572
579.679	444
581.247	340
582.815	306
584.382	314
585.948	274
587.514	280
589.081	248
590.645	234
592.211	224
593.775	224
595.339	206
596.904	200
598.466	184
600.03	152
601.592	128
603.154	116
604.715	100
606.277	98
607.838	94
609.398	92
610.958	82
612.518	82
614.077	84
615.636	82
617.194	82
618.753	86
620.31	92
621.867	88
623.424	104
624.98	102
626.537	112
628.092	102
629.647	126
631.202	136
632.756	136
634.31	130
635.864	118
637.417	132
638.969	120
640.521	118
642.074	112
643.625	114
645.176	98
646.726	92
648.276	90
649.827	90
651.376	80
652.925	80
654.473	82
656.021	68
657.569	72
659.117	66
660.664	68
662.21	68
663.757	62
665.302	62
666.847	60
668.392	58
669.937	64
671.481	62
673.025	50
674.568	62
676.111	56
677.653	48
679.195	58
680.737	56
682.279	54
683.82	56
685.36	60
686.9	58
688.44	60
689.979	56
691.517	64
693.056	50
694.594	54
696.132	62
697.669	58
699.206	54
700.742	56
702.278	60
703.814	64
705.35	68
706.884	68
708.419	68
709.953	76
711.487	62
713.019	86
714.552	84
716.085	94
717.617	80
719.148	78
720.68	72
722.21	66
723.741	68
725.271	72
726.8	68
728.33	68
729.858	68
731.387	72
732.915	76
734.443	70
735.97	68
737.497	80
739.023	78
740.549	88
742.075	88
743.6	96
745.125	110
746.65	118
748.173	120
749.697	124
751.22	102
752.743	102
754.266	96
755.788	100
757.309	90
758.831	80
760.351	64
761.871	68
763.392	66
764.912	58
766.431	62
767.95	64
769.468	60
770.986	62
772.504	72
774.022	66
775.538	74
777.055	68
778.571	80
780.086	72
781.602	72
783.117	78
784.632	70
786.146	72
787.659	70
789.173	64
790.685	62
792.198	64
793.71	62
795.222	66
796.733	66
798.244	60
799.755	62
801.265	64
802.775	56
804.284	72
805.793	62
807.302	66
808.81	62
810.318	66
811.826	68
813.333	62
814.84	66
816.346	72
817.851	72
819.357	78
820.862	80
822.367	98
823.871	94
825.376	122
826.878	156
828.382	212
829.885	298
831.387	426
832.889	510
834.391	448
835.892	330
837.392	208
838.893	146
840.393	116
841.893	96
843.392	90
844.891	96
846.389	84
847.888	90
849.386	84
850.882	84
852.38	76
853.876	84
855.372	80
856.868	74
858.363	80
859.858	74
861.353	70
862.847	72
864.341	60
865.834	68
867.328	64
868.82	66
870.313	62
871.805	66
873.296	56
874.787	64
876.278	60
877.769	64
879.258	58
880.748	58
882.237	54
883.726	52
885.214	54
886.702	50
888.19	56
889.677	62
891.164	60
892.651	54
894.137	54
895.623	54
897.108	56
898.593	46
900.077	52
901.562	58
903.046	56
904.529	50
906.012	54
907.495	54
908.977	52
910.459	54
911.941	58
913.422	54
914.903	50
916.383	58
917.863	54
919.343	52
920.822	52
922.301	54
923.779	56
925.257	56
926.735	60
928.213	56
929.69	60
931.166	56
932.643	62
934.119	56
935.594	62
937.069	62
938.543	68
940.018	70
941.492	74
942.966	80
944.439	80
945.911	90
947.384	102
948.856	116
950.328	142
951.799	154
953.27	170
954.741	232
956.21	262
957.68	296
959.15	324
960.619	340
962.088	312
963.556	282
965.023	248
966.491	220
967.958	194
969.425	166
970.891	162
972.357	124
973.824	114
975.288	98
976.754	90
978.218	84
979.682	78
981.146	76
982.609	66
984.072	64
985.534	62
986.997	72
988.459	64
989.92	72
991.382	64
992.842	72
994.302	58
995.763	60
997.222	60
998.681	62
1000.14	64
1001.6	58
1003.06	56
1004.52	62
1005.97	62
1007.43	54
1008.89	58
1010.34	60
1011.8	60
1013.25	58
1014.71	68
1016.16	70
1017.62	68
1019.07	68
1020.53	72
1021.98	74
1023.43	74
1024.89	76
1026.34	74
1027.79	80
1029.24	86
1030.69	86
1032.14	90
1033.59	80
1035.04	88
1036.49	88
1037.94	86
1039.39	80
1040.84	86
1042.29	76
1043.73	74
1045.18	74
1046.63	70
1048.08	76
1049.52	60
1050.97	66
1052.41	66
1053.86	66
1055.3	58
1056.75	62
1058.19	52
1059.64	64
1061.08	58
1062.52	64
1063.96	66
1065.41	66
1066.85	56
1068.29	56
1069.73	62
1071.17	60
1072.61	58
1074.05	60
1075.49	54
1076.93	56
1078.37	54
1079.81	62
1081.25	60
1082.68	64
1084.12	52
1085.56	60
1087	60
1088.43	66
1089.87	64
1091.3	64
1092.74	56
1094.17	56
1095.61	72
1097.04	64
1098.48	70
1099.91	68
1101.34	72
1102.78	72
1104.21	88
1105.64	110
1107.07	124
1108.5	174
1109.93	236
1111.36	314
1112.8	304
1114.22	282
1115.65	214
1117.08	174
1118.51	136
1119.94	114
1121.37	90
1122.8	100
1124.22	88
1125.65	88
1127.08	96
1128.5	84
1129.93	82
1131.35	74
1132.78	72
1134.2	76
1135.63	66
1137.05	84
1138.48	76
1139.9	80
1141.32	70
1142.75	84
1144.17	82
1145.59	68
1147.01	68
1148.43	56
1149.85	66
1151.27	64
1152.69	68
1154.11	64
1155.53	74
1156.95	66
1158.37	78
1159.79	86
1161.21	86
1162.62	90
1164.04	84
1165.46	90
1166.87	74
1168.29	80
1169.71	82
1171.12	84
1172.54	80
1173.95	82
1175.37	90
1176.78	96
1178.19	104
1179.61	116
1181.02	136
1182.43	152
1183.84	176
1185.26	196
1186.67	212
1188.08	204
1189.49	186
1190.9	154
1192.31	156
1193.72	150
1195.13	134
1196.54	122
1197.95	140
1199.36	148
1200.76	162
1202.17	156
1203.58	144
1204.99	140
1206.39	132
1207.8	130
1209.2	116
1210.61	104
1212.01	84
1213.42	90
1214.82	86
1216.23	80
1217.63	82
1219.03	88
1220.44	86
1221.84	84
1223.24	82
1224.64	90
1226.05	98
1227.45	118
1228.85	122
1230.25	116
1231.65	112
1233.05	110
1234.45	106
1235.85	102
1237.25	86
1238.64	84
1240.04	76
1241.44	86
1242.84	92
1244.23	80
1245.63	72
1247.03	78
1248.42	82
1249.82	88
1251.21	80
1252.61	82
1254	84
1255.4	76
1256.79	88
1258.19	88
1259.58	88
1260.97	88
1262.36	80
1263.76	90
1265.15	86
1266.54	88
1267.93	98
1269.32	88
1270.71	88
1272.1	94
1273.49	104
1274.88	98
1276.27	90
1277.66	102
1279.05	112
1280.43	114
1281.82	118
1283.21	128
1284.6	126
1285.98	134
1287.37	138
1288.75	138
1290.14	150
1291.53	160
1292.91	162
1294.29	180
1295.68	220
1297.06	246
1298.45	310
1299.83	376
1301.21	478
1302.59	568
1303.98	620
1305.36	696
1306.74	612
1308.12	526
1309.5	442
1310.88	346
1312.26	302
1313.64	272
1315.02	226
1316.4	208
1317.78	202
1319.16	190
1320.53	164
1321.91	174
1323.29	144
1324.67	160
1326.04	166
1327.42	164
1328.79	156
1330.17	164
1331.54	158
1332.92	148
1334.29	132
1335.67	136
1337.04	136
1338.42	128
1339.79	124
1341.16	140
1342.53	130
1343.91	142
1345.28	136
1346.65	148
1348.02	152
1349.39	148
1350.76	158
1352.13	150
1353.5	146
1354.87	142
1356.24	134
1357.61	144
1358.98	136
1360.34	136
1361.71	132
1363.08	144
1364.45	132
1365.81	140
1367.18	140
1368.54	156
1369.91	154
1371.28	188
1372.64	210
1374.01	254
1375.37	300
1376.73	330
1378.1	370
1379.46	368
1380.82	360
1382.19	352
1383.55	328
1384.91	292
1386.27	256
1387.63	214
1388.99	174
1390.35	162
1391.71	140
1393.07	142
1394.43	136
1395.79	140
1397.15	128
1398.51	124
1399.87	122
1401.23	134
1402.58	124
1403.94	134
1405.3	128
1406.65	122
1408.01	132
1409.37	130
1410.72	126
1412.08	134
1413.43	126
1414.79	130
1416.14	124
1417.49	140
1418.85	134
1420.2	150
1421.55	154
1422.91	162
1424.26	158
1425.61	140
1426.96	170
1428.31	164
1429.66	172
1431.01	174
1432.36	170
1433.71	178
1435.06	174
1436.41	180
1437.76	198
1439.11	192
1440.46	188
1441.81	182
1443.15	176
1444.5	180
1445.85	162
1447.19	178
1448.54	166
1449.89	158
1451.23	162
1452.58	148
1453.92	152
1455.27	156
1456.61	148
1457.95	154
1459.3	134
1460.64	144
1461.98	156
1463.33	134
1464.67	138
1466.01	140
1467.35	148
1468.69	130
1470.03	144
1471.37	138
1472.71	124
1474.05	126
1475.39	134
1476.73	134
1478.07	144
1479.41	144
1480.75	130
1482.09	120
1483.42	118
1484.76	122
1486.1	110
1487.43	114
1488.77	114
1490.11	112
1491.44	116
1492.78	108
1494.11	104
1495.45	108
1496.78	100
1498.12	108
1499.45	114
1500.78	98
1502.11	106
1503.45	96
1504.78	108
1506.11	106
1507.44	106
1508.77	102
1510.11	102
1511.44	112
1512.77	106
1514.1	110
1515.43	96
1516.76	112
1518.08	106
1519.41	88
1520.74	104
1522.07	94
1523.4	108
1524.72	98
1526.05	98
1527.38	102
1528.7	106
1530.03	98
1531.36	96
1532.68	98
1534.01	102
1535.33	100
1536.66	94
1537.98	102
1539.3	98
1540.63	102
1541.95	104
1543.27	102
1544.6	100
1545.92	102
1547.24	98
1548.56	112
1549.88	90
1551.2	108
1552.52	100
1553.84	96
1555.17	98
1556.48	92
1557.8	108
1559.12	104
1560.44	96
1561.76	102
1563.08	102
1564.4	106
1565.71	106
1567.03	102
1568.35	106
1569.66	96
1570.98	118
1572.29	118
1573.61	118
1574.93	118
1576.24	122
1577.55	116
1578.87	138
1580.18	152
1581.5	148
1582.81	140
1584.12	168
1585.43	166
1586.75	184
1588.06	202
1589.37	212
1590.68	238
1591.99	234
1593.3	276
1594.61	286
1595.92	332
1597.23	328
1598.54	358
1599.85	368
1601.16	428
1602.47	406
1603.78	416
1605.08	388
1606.39	366
1607.7	344
1609	326
1610.31	308
1611.62	292
1612.92	258
1614.23	242
1615.53	220
1616.84	188
1618.14	186
1619.45	168
1620.75	154
1622.06	144
1623.36	138
1624.66	126
1625.96	116
1627.27	108
1628.57	102
1629.87	98
1631.17	94
1632.47	94
1633.77	98
1635.07	92
1636.37	88
1637.67	90
1638.97	82
1640.27	84
1641.57	80
1642.87	88
1644.17	90
1645.47	78
1646.76	84
1648.06	86
1649.36	80
1650.66	72
1651.95	82
1653.25	80
1654.54	84
1655.84	84
1657.13	72
1658.43	74
1659.72	76
1661.02	76
1662.31	74
1663.6	78
1664.9	80
1666.19	78
1667.48	74
1668.78	70
1670.07	80
1671.36	76
1672.65	68
1673.94	76
1675.23	72
1676.52	72
1677.81	76
1679.1	76
1680.39	82
1681.68	72
1682.97	66
1684.26	70
1685.55	76
1686.83	70
1688.12	76
1689.41	68
1690.7	68
1691.98	78
1693.27	72
1694.55	90
1695.84	76
1697.13	72
1698.41	76
1699.69	72
1700.98	72
1702.26	72