File: Jesse_Dataset_v2/Pure Raman/Polypropylene oxide/785nm/ps-ppo-6jan25-0,0000-map2_Y01_X01.txt
204.377	398
206.045	390
207.713	394
209.38	366
211.048	348
212.715	340
214.381	334
216.047	350
217.712	364
219.377	372
221.042	394
222.706	432
224.369	496
226.032	568
227.695	694
229.357	802
231.019	924
232.68	1024
234.341	1032
236.001	1022
237.661	958
239.321	890
240.98	810
242.639	720
244.297	668
245.955	614
247.612	528
249.268	466
250.924	410
252.58	382
254.236	358
255.891	306
257.546	274
259.2	252
260.854	250
262.507	226
264.16	214
265.812	202
267.463	208
269.115	194
270.766	182
272.417	186
274.067	192
275.717	188
277.365	196
279.014	198
280.663	202
282.311	224
283.958	234
285.605	276
287.252	294
288.898	324
290.543	390
292.188	430
293.833	446
295.477	462
297.121	444
298.765	458
300.407	418
302.05	362
303.693	340
305.334	330
306.975	306
308.615	284
310.256	266
311.896	264
313.535	246
315.175	242
316.813	256
318.451	240
320.089	230
321.726	248
323.362	240
324.999	248
326.635	244
328.271	246
329.905	272
331.54	260
333.174	274
334.807	272
336.441	268
338.074	248
339.707	238
341.338	226
342.969	236
344.601	232
346.231	218
347.861	220
349.491	212
351.12	226
352.749	220
354.378	220
356.006	238
357.633	224
359.261	222
360.887	222
362.513	200
364.139	194
365.764	190
367.39	198
369.014	192
370.638	212
372.261	202
373.884	210
375.508	200
377.13	184
378.752	182
380.373	152
381.994	158
383.615	144
385.235	154
386.854	138
388.473	146
390.092	132
391.711	142
393.328	138
394.947	126
396.564	130
398.181	128
399.797	126
401.412	136
403.027	128
404.642	140
406.257	150
407.871	154
409.484	188
411.098	190
412.711	200
414.323	226
415.935	226
417.547	210
419.158	192
420.768	164
422.378	162
423.988	138
425.597	140
427.206	114
428.814	124
430.422	112
432.03	112
433.637	106
435.243	104
436.85	98
438.456	90
440.062	80
441.666	86
443.271	76
444.876	82
446.479	76
448.082	86
449.685	82
451.287	78
452.89	76
454.492	78
456.092	80
457.693	76
459.293	80
460.893	90
462.492	88
464.092	96
465.691	96
467.288	112
468.887	132
470.483	142
472.081	152
473.677	176
475.273	184
476.869	212
478.463	230
480.059	246
481.653	258
483.247	284
484.84	292
486.433	298
488.026	256
489.618	204
491.21	180
492.801	168
494.392	142
495.983	120
497.573	118
499.162	102
500.752	94
502.341	100
503.929	102
505.517	120
507.105	110
508.692	130
510.279	164
511.865	208
513.45	214
515.037	220
516.621	180
518.206	160
519.79	150
521.374	164
522.957	170
524.54	182
526.123	192
527.705	208
529.287	224
530.868	282
532.448	334
534.029	378
535.609	426
537.188	472
538.768	466
540.346	460
541.925	432
543.502	384
545.08	312
546.657	274
548.234	234
549.81	202
551.386	190
552.961	210
554.536	212
556.11	240
557.684	282
559.258	318
560.832	428
562.405	544
563.977	744
565.55	1030
567.12	1494
568.692	2010
570.263	2402
571.833	2470
573.403	2094
574.973	1510
576.542	1080
578.111	762
579.679	546
581.247	418
582.815	382
584.382	360
585.948	352
587.514	334
589.081	320
590.645	294
592.211	288
593.775	266
595.339	254
596.904	238
598.466	218
600.03	182
601.592	166
603.154	134
604.715	128
606.277	114
607.838	94
609.398	106
610.958	90
612.518	92
614.077	92
615.636	98
617.194	96
618.753	92
620.31	100
621.867	112
623.424	106
624.98	126
626.537	116
628.092	138
629.647	136
631.202	146
632.756	156
634.31	156
635.864	154
637.417	152
638.969	148
640.521	146
642.074	136
643.625	124
645.176	116
646.726	112
648.276	108
649.827	106
651.376	90
652.925	94
654.473	92
656.021	86
657.569	84
659.117	80
660.664	74
662.21	62
663.757	76
665.302	74
666.847	70
668.392	66
669.937	66
671.481	60
673.025	66
674.568	64
676.111	68
677.653	62
679.195	64
680.737	64
682.279	66
683.82	72
685.36	58
686.9	68
688.44	62
689.979	64
691.517	56
693.056	66
694.594	62
696.132	62
697.669	66
699.206	64
700.742	64
702.278	62
703.814	66
705.35	66
706.884	74
708.419	72
709.953	94
711.487	86
713.019	92
714.552	100
716.085	102
717.617	90
719.148	96
720.68	86
722.21	80
723.741	68
725.271	70
726.8	82
728.33	76
729.858	80
731.387	82
732.915	82
734.443	88
735.97	82
737.497	90
739.023	90
740.549	90
742.075	100
743.6	118
745.125	130
746.65	144
748.173	142
749.697	134
751.22	118
752.743	122
754.266	124
755.788	116
757.309	104
758.831	90
760.351	90
761.871	72
763.392	74
764.912	76
766.431	76
767.95	70
769.468	72
770.986	76
772.504	82
774.022	76
775.538	66
777.055	80
778.571	80
780.086	84
781.602	80
783.117	88
784.632	76
786.146	70
787.659	76
789.173	74
790.685	56
792.198	66
793.71	66
795.222	66
796.733	72
798.244	70
799.755	68
801.265	76
802.775	66
804.284	72
805.793	72
807.302	84
808.81	84
810.318	84
811.826	76
813.333	70
814.84	80
816.346	78
817.851	82
819.357	88
820.862	92
822.367	102
823.871	114
825.376	126
826.878	172
828.382	250
829.885	356
831.387	494
832.889	614
834.391	592
835.892	408
837.392	264
838.893	174
840.393	150
841.893	118
843.392	114
844.891	92
846.389	104
847.888	100
849.386	100
850.882	98
852.38	96
853.876	96
855.372	88
856.868	88
858.363	86
859.858	80
861.353	82
862.847	80
864.341	76
865.834	74
867.328	78
868.82	58
870.313	68
871.805	68
873.296	64
874.787	66
876.278	64
877.769	66
879.258	64
880.748	70
882.237	66
883.726	60
885.214	56
886.702	62
888.19	60
889.677	58
891.164	58
892.651	66
894.137	56
895.623	50
897.108	54
898.593	66
900.077	56
901.562	58
903.046	58
904.529	56
906.012	52
907.495	60
908.977	60
910.459	54
911.941	54
913.422	64
914.903	64
916.383	60
917.863	54
919.343	60
920.822	62
922.301	60
923.779	58
925.257	60
926.735	62
928.213	62
929.69	64
931.166	58
932.643	64
934.119	66
935.594	68
937.069	70
938.543	76
940.018	84
941.492	80
942.966	90
944.439	104
945.911	100
947.384	112
948.856	128
950.328	140
951.799	180
953.27	222
954.741	272
956.21	314
957.68	366
959.15	400
960.619	400
962.088	392
963.556	336
965.023	324
966.491	252
967.958	238
969.425	214
970.891	180
972.357	168
973.824	128
975.288	126
976.754	110
978.218	98
979.682	90
981.146	80
982.609	76
984.072	74
985.534	82
986.997	76
988.459	74
989.92	78
991.382	80
992.842	76
994.302	70
995.763	62
997.222	72
998.681	66
1000.14	64
1001.6	68
1003.06	56
1004.52	64
1005.97	62
1007.43	62
1008.89	68
1010.34	64
1011.8	62
1013.25	64
1014.71	70
1016.16	66
1017.62	70
1019.07	78
1020.53	74
1021.98	88
1023.43	82
1024.89	84
1026.34	82
1027.79	86
1029.24	88
1030.69	94
1032.14	100
1033.59	102
1035.04	104
1036.49	102
1037.94	86
1039.39	86
1040.84	86
1042.29	92
1043.73	92
1045.18	72
1046.63	76
1048.08	62
1049.52	68
1050.97	66
1052.41	70
1053.86	68
1055.3	72
1056.75	66
1058.19	62
1059.64	66
1061.08	62
1062.52	58
1063.96	68
1065.41	66
1066.85	70
1068.29	64
1069.73	58
1071.17	58
1072.61	60
1074.05	68
1075.49	64
1076.93	62
1078.37	68
1079.81	72
1081.25	68
1082.68	62
1084.12	70
1085.56	68
1087	66
1088.43	72
1089.87	68
1091.3	72
1092.74	70
1094.17	72
1095.61	72
1097.04	72
1098.48	78
1099.91	82
1101.34	80
1102.78	86
1104.21	104
1105.64	116
1107.07	150
1108.5	184
1109.93	260
1111.36	348
1112.8	362
1114.22	346
1115.65	274
1117.08	216
1118.51	170
1119.94	150
1121.37	134
1122.8	114
1124.22	106
1125.65	92
1127.08	102
1128.5	94
1129.93	84
1131.35	94
1132.78	84
1134.2	86
1135.63	86
1137.05	82
1138.48	84
1139.9	82
1141.32	90
1142.75	100
1144.17	86
1145.59	80
1147.01	80
1148.43	82
1149.85	74
1151.27	72
1152.69	74
1154.11	82
1155.53	82
1156.95	82
1158.37	88
1159.79	94
1161.21	92
1162.62	106
1164.04	100
1165.46	94
1166.87	90
1168.29	82
1169.71	92
1171.12	86
1172.54	88
1173.95	94
1175.37	102
1176.78	104
1178.19	126
1179.61	124
1181.02	150
1182.43	164
1183.84	222
1185.26	226
1186.67	240
1188.08	244
1189.49	216
1190.9	186
1192.31	166
1193.72	166
1195.13	170
1196.54	160
1197.95	154
1199.36	158
1200.76	172
1202.17	180
1203.58	174
1204.99	170
1206.39	164
1207.8	146
1209.2	140
1210.61	122
1212.01	108
1213.42	88
1214.82	100
1216.23	90
1217.63	96
1219.03	84
1220.44	88
1221.84	106
1223.24	108
1224.64	106
1226.05	118
1227.45	114
1228.85	134
1230.25	134
1231.65	140
1233.05	122
1234.45	122
1235.85	106
1237.25	96
1238.64	100
1240.04	98
1241.44	92
1242.84	88
1244.23	82
1245.63	86
1247.03	80
1248.42	92
1249.82	90
1251.21	94
1252.61	94
1254	88
1255.4	94
1256.79	86
1258.19	100
1259.58	88
1260.97	94
1262.36	90
1263.76	94
1265.15	92
1266.54	92
1267.93	100
1269.32	96
1270.71	98
1272.1	102
1273.49	104
1274.88	100
1276.27	114
1277.66	114
1279.05	116
1280.43	126
1281.82	130
1283.21	132
1284.6	148
1285.98	150
1287.37	164
1288.75	162
1290.14	164
1291.53	198
1292.91	184
1294.29	208
1295.68	238
1297.06	290
1298.45	356
1299.83	436
1301.21	578
1302.59	666
1303.98	778
1305.36	846
1306.74	756
1308.12	670
1309.5	532
1310.88	430
1312.26	374
1313.64	280
1315.02	280
1316.4	244
1317.78	232
1319.16	208
1320.53	202
1321.91	184
1323.29	200
1324.67	184
1326.04	186
1327.42	200
1328.79	184
1330.17	194
1331.54	164
1332.92	178
1334.29	168
1335.67	154
1337.04	144
1338.42	144
1339.79	152
1341.16	146
1342.53	158
1343.91	156
1345.28	158
1346.65	166
1348.02	162
1349.39	170
1350.76	172
1352.13	184
1353.5	160
1354.87	172
1356.24	164
1357.61	158
1358.98	146
1360.34	156
1361.71	148
1363.08	150
1364.45	156
1365.81	144
1367.18	162
1368.54	168
1369.91	184
1371.28	196
1372.64	226
1374.01	290
1375.37	360
1376.73	400
1378.1	452
1379.46	422
1380.82	446
1382.19	412
1383.55	376
1384.91	326
1386.27	284
1387.63	248
1388.99	210
1390.35	186
1391.71	176
1393.07	148
1394.43	146
1395.79	150
1397.15	158
1398.51	148
1399.87	142
1401.23	138
1402.58	144
1403.94	128
1405.3	142
1406.65	146
1408.01	134
1409.37	138
1410.72	134
1412.08	150
1413.43	134
1414.79	136
1416.14	152
1417.49	148
1418.85	160
1420.2	168
1421.55	182
1422.91	182
1424.26	186
1425.61	184
1426.96	190
1428.31	192
1429.66	190
1431.01	182
1432.36	200
1433.71	218
1435.06	212
1436.41	208
1437.76	208
1439.11	216
1440.46	222
1441.81	218
1443.15	222
1444.5	214
1445.85	200
1447.19	190
1448.54	176
1449.89	174
1451.23	180
1452.58	166
1453.92	166
1455.27	174
1456.61	164
1457.95	158
1459.3	158
1460.64	160
1461.98	164
1463.33	154
1464.67	164
1466.01	142
1467.35	158
1468.69	150
1470.03	162
1471.37	148
1472.71	150
1474.05	148
1475.39	152
1476.73	150
1478.07	138
1479.41	146
1480.75	146
1482.09	144
1483.42	130
1484.76	148
1486.1	130
1487.43	128
1488.77	136
1490.11	124
1491.44	116
1492.78	132
1494.11	122
1495.45	124
1496.78	118
1498.12	120
1499.45	122
1500.78	112
1502.11	116
1503.45	112
1504.78	122
1506.11	112
1507.44	120
1508.77	108
1510.11	112
1511.44	114
1512.77	108
1514.1	114
1515.43	106
1516.76	102
1518.08	100
1519.41	114
1520.74	114
1522.07	102
1523.4	100
1524.72	112
1526.05	108
1527.38	108
1528.7	106
1530.03	108
1531.36	98
1532.68	116
1534.01	108
1535.33	124
1536.66	106
1537.98	114
1539.3	100
1540.63	106
1541.95	116
1543.27	112
1544.6	104
1545.92	106
1547.24	112
1548.56	112
1549.88	116
1551.2	106
1552.52	106
1553.84	116
1555.17	108
1556.48	118
1557.8	108
1559.12	108
1560.44	110
1561.76	106
1563.08	108
1564.4	120
1565.71	120
1567.03	126
1568.35	122
1569.66	122
1570.98	118
1572.29	130
1573.61	140
1574.93	124
1576.24	136
1577.55	138
1578.87	152
1580.18	160
1581.5	162
1582.81	178
1584.12	184
1585.43	192
1586.75	214
1588.06	232
1589.37	250
1590.68	278
1591.99	316
1593.3	308
1594.61	334
1595.92	398
1597.23	430
1598.54	446
1599.85	482
1601.16	480
1602.47	494
1603.78	482
1605.08	478
1606.39	440
1607.7	396
1609	412
1610.31	374
1611.62	342
1612.92	322
1614.23	290
1615.53	254
1616.84	222
1618.14	224
1619.45	204
1620.75	178
1622.06	156
1623.36	156
1624.66	152
1625.96	126
1627.27	116
1628.57	116
1629.87	128
1631.17	114
1632.47	104
1633.77	106
1635.07	108
1636.37	100
1637.67	94
1638.97	92
1640.27	90
1641.57	90
1642.87	88
1644.17	98
1645.47	94
1646.76	104
1648.06	78
1649.36	78
1650.66	84
1651.95	84
1653.25	84
1654.54	82
1655.84	88
1657.13	86
1658.43	92
1659.72	86
1661.02	88
1662.31	86
1663.6	80
1664.9	80
1666.19	82
1667.48	78
1668.78	86
1670.07	72
1671.36	76
1672.65	74
1673.94	76
1675.23	74
1676.52	82
1677.81	86
1679.1	88
1680.39	82
1681.68	80
1682.97	82
1684.26	76
1685.55	88
1686.83	82
1688.12	88
1689.41	80
1690.7	80
1691.98	86
1693.27	84
1694.55	80
1695.84	72
1697.13	82
1698.41	80
1699.69	82
1700.98	72
1702.26	82