File: Jesse_Dataset_v2/Pure Raman/Polypropylene oxide/785nm/ps-ppo-6jan25-0,0000-map2_Y00_X06.txt
204.377	378
206.045	394
207.713	368
209.38	362
211.048	362
212.715	344
214.381	366
216.047	338
217.712	344
219.377	350
221.042	378
222.706	414
224.369	496
226.032	558
227.695	656
229.357	794
231.019	906
232.68	1008
234.341	1012
236.001	1002
237.661	946
239.321	842
240.98	794
242.639	730
244.297	646
245.955	582
247.612	514
249.268	460
250.924	404
252.58	360
254.236	336
255.891	316
257.546	274
259.2	242
260.854	244
262.507	222
264.16	206
265.812	208
267.463	198
269.115	194
270.766	190
272.417	196
274.067	190
275.717	196
277.365	188
279.014	202
280.663	204
282.311	216
283.958	224
285.605	262
287.252	282
288.898	320
290.543	388
292.188	404
293.833	416
295.477	466
297.121	440
298.765	406
300.407	400
302.05	352
303.693	346
305.334	330
306.975	298
308.615	292
310.256	258
311.896	250
313.535	234
315.175	248
316.813	246
318.451	222
320.089	234
321.726	230
323.362	242
324.999	248
326.635	256
328.271	234
329.905	262
331.54	276
333.174	272
334.807	274
336.441	268
338.074	240
339.707	248
341.338	240
342.969	224
344.601	224
346.231	218
347.861	204
349.491	216
351.12	204
352.749	214
354.378	224
356.006	236
357.633	220
359.261	218
360.887	204
362.513	202
364.139	200
365.764	186
367.39	198
369.014	216
370.638	208
372.261	214
373.884	194
375.508	190
377.13	190
378.752	190
380.373	170
381.994	164
383.615	154
385.235	148
386.854	146
388.473	136
390.092	144
391.711	132
393.328	134
394.947	130
396.564	130
398.181	126
399.797	134
401.412	124
403.027	144
404.642	138
406.257	148
407.871	150
409.484	184
411.098	202
412.711	222
414.323	224
415.935	204
417.547	200
419.158	186
420.768	182
422.378	144
423.988	146
425.597	108
427.206	130
428.814	120
430.422	104
432.03	106
433.637	104
435.243	98
436.85	92
438.456	100
440.062	88
441.666	90
443.271	88
444.876	82
446.479	92
448.082	82
449.685	90
451.287	84
452.89	80
454.492	82
456.092	84
457.693	88
459.293	80
460.893	86
462.492	92
464.092	104
465.691	118
467.288	120
468.887	138
470.483	146
472.081	150
473.677	182
475.273	196
476.869	210
478.463	224
480.059	248
481.653	264
483.247	274
484.84	298
486.433	290
488.026	232
489.618	200
491.21	174
492.801	168
494.392	160
495.983	128
497.573	114
499.162	106
500.752	106
502.341	104
503.929	96
505.517	112
507.105	126
508.692	134
510.279	168
511.865	200
513.45	222
515.037	218
516.621	186
518.206	154
519.79	168
521.374	156
522.957	160
524.54	172
526.123	192
527.705	204
529.287	230
530.868	274
532.448	322
534.029	366
535.609	414
537.188	450
538.768	460
540.346	440
541.925	444
543.502	362
545.08	308
546.657	272
548.234	232
549.81	200
551.386	208
552.961	196
554.536	204
556.11	244
557.684	260
559.258	338
560.832	398
562.405	536
563.977	716
565.55	1030
567.12	1390
568.692	1998
570.263	2310
571.833	2374
573.403	1998
574.973	1466
576.542	1088
578.111	708
579.679	524
581.247	414
582.815	358
584.382	352
585.948	356
587.514	308
589.081	314
590.645	280
592.211	270
593.775	260
595.339	246
596.904	232
598.466	220
600.03	196
601.592	160
603.154	136
604.715	122
606.277	116
607.838	110
609.398	100
610.958	94
612.518	96
614.077	104
615.636	96
617.194	104
618.753	112
620.31	100
621.867	102
623.424	110
624.98	116
626.537	120
628.092	134
629.647	142
631.202	146
632.756	150
634.31	162
635.864	154
637.417	158
638.969	152
640.521	140
642.074	134
643.625	122
645.176	120
646.726	114
648.276	110
649.827	104
651.376	102
652.925	90
654.473	88
656.021	78
657.569	82
659.117	86
660.664	78
662.21	74
663.757	72
665.302	68
666.847	72
668.392	74
669.937	76
671.481	66
673.025	72
674.568	68
676.111	64
677.653	66
679.195	64
680.737	66
682.279	60
683.82	60
685.36	64
686.9	70
688.44	66
689.979	64
691.517	62
693.056	66
694.594	64
696.132	64
697.669	66
699.206	66
700.742	66
702.278	74
703.814	66
705.35	64
706.884	72
708.419	76
709.953	90
711.487	90
713.019	104
714.552	98
716.085	100
717.617	98
719.148	86
720.68	78
722.21	80
723.741	82
725.271	82
726.8	78
728.33	82
729.858	84
731.387	76
732.915	80
734.443	84
735.97	90
737.497	92
739.023	86
740.549	90
742.075	102
743.6	116
745.125	130
746.65	150
748.173	152
749.697	136
751.22	126
752.743	122
754.266	118
755.788	112
757.309	106
758.831	92
760.351	86
761.871	78
763.392	70
764.912	74
766.431	64
767.95	76
769.468	72
770.986	70
772.504	74
774.022	80
775.538	86
777.055	84
778.571	76
780.086	86
781.602	80
783.117	82
784.632	78
786.146	82
787.659	78
789.173	74
790.685	74
792.198	76
793.71	64
795.222	74
796.733	76
798.244	74
799.755	62
801.265	72
802.775	68
804.284	74
805.793	66
807.302	72
808.81	74
810.318	82
811.826	78
813.333	80
814.84	80
816.346	84
817.851	76
819.357	88
820.862	84
822.367	102
823.871	122
825.376	130
826.878	182
828.382	246
829.885	318
831.387	484
832.889	602
834.391	548
835.892	426
837.392	244
838.893	174
840.393	140
841.893	124
843.392	112
844.891	112
846.389	98
847.888	100
849.386	112
850.882	100
852.38	104
853.876	90
855.372	90
856.868	96
858.363	88
859.858	80
861.353	84
862.847	78
864.341	78
865.834	66
867.328	72
868.82	70
870.313	66
871.805	70
873.296	74
874.787	68
876.278	70
877.769	66
879.258	62
880.748	66
882.237	68
883.726	62
885.214	62
886.702	58
888.19	62
889.677	62
891.164	60
892.651	58
894.137	60
895.623	58
897.108	64
898.593	56
900.077	64
901.562	56
903.046	60
904.529	58
906.012	62
907.495	64
908.977	68
910.459	58
911.941	58
913.422	58
914.903	56
916.383	56
917.863	64
919.343	60
920.822	56
922.301	64
923.779	64
925.257	62
926.735	68
928.213	64
929.69	64
931.166	68
932.643	66
934.119	76
935.594	70
937.069	70
938.543	78
940.018	72
941.492	90
942.966	94
944.439	94
945.911	100
947.384	104
948.856	132
950.328	154
951.799	180
953.27	202
954.741	268
956.21	312
957.68	350
959.15	382
960.619	372
962.088	374
963.556	322
965.023	280
966.491	262
967.958	232
969.425	210
970.891	184
972.357	164
973.824	140
975.288	120
976.754	94
978.218	96
979.682	94
981.146	86
982.609	78
984.072	78
985.534	68
986.997	68
988.459	70
989.92	80
991.382	76
992.842	78
994.302	72
995.763	76
997.222	68
998.681	64
1000.14	66
1001.6	68
1003.06	66
1004.52	64
1005.97	66
1007.43	66
1008.89	70
1010.34	66
1011.8	70
1013.25	66
1014.71	64
1016.16	78
1017.62	80
1019.07	84
1020.53	86
1021.98	84
1023.43	78
1024.89	86
1026.34	88
1027.79	92
1029.24	86
1030.69	90
1032.14	98
1033.59	104
1035.04	98
1036.49	96
1037.94	90
1039.39	96
1040.84	94
1042.29	86
1043.73	86
1045.18	84
1046.63	74
1048.08	74
1049.52	74
1050.97	72
1052.41	78
1053.86	68
1055.3	64
1056.75	66
1058.19	70
1059.64	64
1061.08	72
1062.52	64
1063.96	62
1065.41	70
1066.85	62
1068.29	66
1069.73	70
1071.17	62
1072.61	66
1074.05	64
1075.49	68
1076.93	70
1078.37	64
1079.81	70
1081.25	68
1082.68	64
1084.12	66
1085.56	66
1087	70
1088.43	66
1089.87	62
1091.3	72
1092.74	80
1094.17	66
1095.61	70
1097.04	76
1098.48	74
1099.91	78
1101.34	88
1102.78	86
1104.21	108
1105.64	110
1107.07	152
1108.5	190
1109.93	270
1111.36	326
1112.8	366
1114.22	322
1115.65	276
1117.08	204
1118.51	158
1119.94	144
1121.37	124
1122.8	106
1124.22	96
1125.65	88
1127.08	90
1128.5	98
1129.93	88
1131.35	92
1132.78	88
1134.2	86
1135.63	94
1137.05	82
1138.48	82
1139.9	92
1141.32	90
1142.75	86
1144.17	88
1145.59	76
1147.01	78
1148.43	76
1149.85	74
1151.27	74
1152.69	78
1154.11	78
1155.53	82
1156.95	86
1158.37	96
1159.79	90
1161.21	86
1162.62	96
1164.04	100
1165.46	98
1166.87	84
1168.29	84
1169.71	74
1171.12	86
1172.54	88
1173.95	92
1175.37	106
1176.78	112
1178.19	128
1179.61	122
1181.02	142
1182.43	174
1183.84	208
1185.26	224
1186.67	254
1188.08	248
1189.49	208
1190.9	186
1192.31	162
1193.72	152
1195.13	154
1196.54	150
1197.95	162
1199.36	174
1200.76	176
1202.17	164
1203.58	172
1204.99	174
1206.39	176
1207.8	150
1209.2	134
1210.61	118
1212.01	112
1213.42	100
1214.82	98
1216.23	88
1217.63	96
1219.03	88
1220.44	86
1221.84	90
1223.24	94
1224.64	96
1226.05	122
1227.45	124
1228.85	138
1230.25	140
1231.65	138
1233.05	122
1234.45	118
1235.85	110
1237.25	100
1238.64	96
1240.04	90
1241.44	82
1242.84	80
1244.23	94
1245.63	84
1247.03	86
1248.42	90
1249.82	92
1251.21	94
1252.61	92
1254	88
1255.4	86
1256.79	88
1258.19	96
1259.58	92
1260.97	88
1262.36	92
1263.76	92
1265.15	94
1266.54	102
1267.93	102
1269.32	98
1270.71	98
1272.1	100
1273.49	100
1274.88	108
1276.27	106
1277.66	112
1279.05	114
1280.43	128
1281.82	128
1283.21	136
1284.6	148
1285.98	146
1287.37	158
1288.75	170
1290.14	164
1291.53	180
1292.91	196
1294.29	222
1295.68	250
1297.06	278
1298.45	352
1299.83	434
1301.21	530
1302.59	666
1303.98	760
1305.36	802
1306.74	760
1308.12	642
1309.5	516
1310.88	418
1312.26	366
1313.64	310
1315.02	260
1316.4	244
1317.78	226
1319.16	212
1320.53	196
1321.91	190
1323.29	206
1324.67	176
1326.04	184
1327.42	176
1328.79	188
1330.17	176
1331.54	174
1332.92	172
1334.29	164
1335.67	142
1337.04	146
1338.42	144
1339.79	144
1341.16	142
1342.53	150
1343.91	158
1345.28	154
1346.65	166
1348.02	174
1349.39	166
1350.76	168
1352.13	178
1353.5	166
1354.87	176
1356.24	158
1357.61	162
1358.98	154
1360.34	156
1361.71	154
1363.08	150
1364.45	146
1365.81	146
1367.18	166
1368.54	158
1369.91	176
1371.28	200
1372.64	230
1374.01	284
1375.37	348
1376.73	384
1378.1	432
1379.46	428
1380.82	408
1382.19	408
1383.55	358
1384.91	322
1386.27	300
1387.63	238
1388.99	214
1390.35	184
1391.71	156
1393.07	158
1394.43	152
1395.79	148
1397.15	140
1398.51	136
1399.87	138
1401.23	136
1402.58	132
1403.94	130
1405.3	138
1406.65	134
1408.01	150
1409.37	146
1410.72	138
1412.08	148
1413.43	150
1414.79	154
1416.14	152
1417.49	160
1418.85	156
1420.2	156
1421.55	170
1422.91	174
1424.26	170
1425.61	172
1426.96	192
1428.31	188
1429.66	190
1431.01	202
1432.36	202
1433.71	188
1435.06	190
1436.41	210
1437.76	230
1439.11	208
1440.46	222
1441.81	226
1443.15	208
1444.5	212
1445.85	200
1447.19	196
1448.54	194
1449.89	190
1451.23	168
1452.58	174
1453.92	166
1455.27	168
1456.61	178
1457.95	164
1459.3	156
1460.64	170
1461.98	152
1463.33	158
1464.67	154
1466.01	152
1467.35	160
1468.69	154
1470.03	148
1471.37	146
1472.71	138
1474.05	162
1475.39	138
1476.73	148
1478.07	146
1479.41	148
1480.75	142
1482.09	140
1483.42	144
1484.76	140
1486.1	138
1487.43	130
1488.77	118
1490.11	132
1491.44	120
1492.78	128
1494.11	120
1495.45	122
1496.78	118
1498.12	122
1499.45	124
1500.78	126
1502.11	124
1503.45	116
1504.78	118
1506.11	120
1507.44	114
1508.77	118
1510.11	116
1511.44	116
1512.77	118
1514.1	112
1515.43	116
1516.76	120
1518.08	112
1519.41	116
1520.74	118
1522.07	112
1523.4	110
1524.72	108
1526.05	116
1527.38	114
1528.7	110
1530.03	120
1531.36	112
1532.68	110
1534.01	108
1535.33	106
1536.66	114
1537.98	108
1539.3	110
1540.63	110
1541.95	110
1543.27	120
1544.6	110
1545.92	118
1547.24	116
1548.56	120
1549.88	112
1551.2	114
1552.52	118
1553.84	118
1555.17	114
1556.48	120
1557.8	102
1559.12	114
1560.44	106
1561.76	106
1563.08	108
1564.4	116
1565.71	124
1567.03	126
1568.35	116
1569.66	130
1570.98	122
1572.29	128
1573.61	120
1574.93	128
1576.24	142
1577.55	148
1578.87	152
1580.18	150
1581.5	158
1582.81	168
1584.12	172
1585.43	190
1586.75	204
1588.06	226
1589.37	240
1590.68	256
1591.99	276
1593.3	298
1594.61	346
1595.92	386
1597.23	404
1598.54	432
1599.85	450
1601.16	488
1602.47	488
1603.78	494
1605.08	476
1606.39	448
1607.7	436
1609	392
1610.31	350
1611.62	334
1612.92	310
1614.23	284
1615.53	256
1616.84	232
1618.14	212
1619.45	194
1620.75	168
1622.06	162
1623.36	148
1624.66	138
1625.96	140
1627.27	122
1628.57	118
1629.87	114
1631.17	112
1632.47	102
1633.77	102
1635.07	94
1636.37	94
1637.67	94
1638.97	98
1640.27	98
1641.57	96
1642.87	100
1644.17	90
1645.47	92
1646.76	92
1648.06	90
1649.36	92
1650.66	86
1651.95	84
1653.25	94
1654.54	90
1655.84	84
1657.13	88
1658.43	90
1659.72	84
1661.02	78
1662.31	78
1663.6	78
1664.9	84
1666.19	74
1667.48	86
1668.78	74
1670.07	80
1671.36	82
1672.65	76
1673.94	76
1675.23	74
1676.52	80
1677.81	84
1679.1	82
1680.39	86
1681.68	80
1682.97	80
1684.26	82
1685.55	82
1686.83	82
1688.12	76
1689.41	86
1690.7	80
1691.98	84
1693.27	88
1694.55	92
1695.84	78
1697.13	84
1698.41	88
1699.69	80
1700.98	76
1702.26	74