File: Jesse_Dataset_v2/Pure Raman/Polypropylene oxide/785nm/ps-ppo-6jan25-0,0000-map2_Y05_X00.txt
204.377	362
206.045	370
207.713	350
209.38	362
211.048	336
212.715	316
214.381	324
216.047	326
217.712	332
219.377	370
221.042	394
222.706	406
224.369	490
226.032	562
227.695	640
229.357	770
231.019	874
232.68	948
234.341	952
236.001	954
237.661	928
239.321	864
240.98	790
242.639	682
244.297	630
245.955	540
247.612	522
249.268	442
250.924	400
252.58	352
254.236	312
255.891	300
257.546	252
259.2	252
260.854	230
262.507	212
264.16	196
265.812	208
267.463	198
269.115	178
270.766	158
272.417	176
274.067	180
275.717	186
277.365	180
279.014	200
280.663	186
282.311	200
283.958	232
285.605	274
287.252	302
288.898	316
290.543	368
292.188	404
293.833	448
295.477	412
297.121	438
298.765	416
300.407	376
302.05	346
303.693	334
305.334	310
306.975	288
308.615	282
310.256	268
311.896	266
313.535	228
315.175	236
316.813	232
318.451	222
320.089	226
321.726	218
323.362	240
324.999	224
326.635	248
328.271	242
329.905	268
331.54	250
333.174	262
334.807	256
336.441	252
338.074	260
339.707	240
341.338	218
342.969	230
344.601	208
346.231	214
347.861	184
349.491	210
351.12	212
352.749	220
354.378	208
356.006	206
357.633	218
359.261	208
360.887	200
362.513	192
364.139	192
365.764	184
367.39	196
369.014	202
370.638	198
372.261	198
373.884	194
375.508	184
377.13	174
378.752	164
380.373	162
381.994	146
383.615	148
385.235	138
386.854	142
388.473	136
390.092	124
391.711	134
393.328	128
394.947	126
396.564	130
398.181	118
399.797	132
401.412	128
403.027	122
404.642	140
406.257	134
407.871	148
409.484	160
411.098	182
412.711	208
414.323	204
415.935	196
417.547	184
419.158	180
420.768	162
422.378	152
423.988	148
425.597	138
427.206	120
428.814	108
430.422	112
432.03	108
433.637	106
435.243	98
436.85	90
438.456	92
440.062	84
441.666	82
443.271	80
444.876	78
446.479	80
448.082	80
449.685	86
451.287	84
452.89	76
454.492	78
456.092	84
457.693	82
459.293	84
460.893	78
462.492	86
464.092	86
465.691	100
467.288	104
468.887	122
470.483	138
472.081	148
473.677	168
475.273	196
476.869	204
478.463	216
480.059	236
481.653	244
483.247	264
484.84	278
486.433	270
488.026	250
489.618	196
491.21	178
492.801	160
494.392	142
495.983	134
497.573	102
499.162	112
500.752	104
502.341	96
503.929	102
505.517	104
507.105	114
508.692	134
510.279	144
511.865	196
513.45	222
515.037	198
516.621	168
518.206	146
519.79	148
521.374	142
522.957	146
524.54	160
526.123	188
527.705	196
529.287	220
530.868	258
532.448	318
534.029	354
535.609	428
537.188	442
538.768	454
540.346	412
541.925	406
543.502	362
545.08	292
546.657	246
548.234	220
549.81	184
551.386	196
552.961	184
554.536	206
556.11	224
557.684	284
559.258	314
560.832	384
562.405	546
563.977	706
565.55	986
567.12	1420
568.692	1896
570.263	2244
571.833	2294
573.403	1966
574.973	1434
576.542	996
578.111	660
579.679	500
581.247	406
582.815	342
584.382	338
585.948	324
587.514	304
589.081	286
590.645	266
592.211	250
593.775	262
595.339	246
596.904	244
598.466	196
600.03	194
601.592	156
603.154	134
604.715	112
606.277	114
607.838	94
609.398	100
610.958	90
612.518	92
614.077	86
615.636	86
617.194	96
618.753	94
620.31	94
621.867	106
623.424	108
624.98	126
626.537	128
628.092	126
629.647	130
631.202	132
632.756	148
634.31	146
635.864	156
637.417	150
638.969	140
640.521	144
642.074	124
643.625	124
645.176	116
646.726	110
648.276	104
649.827	98
651.376	90
652.925	88
654.473	92
656.021	80
657.569	80
659.117	76
660.664	78
662.21	76
663.757	62
665.302	68
666.847	72
668.392	58
669.937	62
671.481	62
673.025	64
674.568	58
676.111	64
677.653	58
679.195	60
680.737	60
682.279	62
683.82	56
685.36	62
686.9	60
688.44	66
689.979	62
691.517	56
693.056	56
694.594	58
696.132	60
697.669	60
699.206	60
700.742	62
702.278	62
703.814	66
705.35	62
706.884	76
708.419	72
709.953	80
711.487	86
713.019	86
714.552	98
716.085	108
717.617	100
719.148	92
720.68	68
722.21	72
723.741	78
725.271	76
726.8	74
728.33	78
729.858	80
731.387	78
732.915	86
734.443	84
735.97	80
737.497	86
739.023	92
740.549	94
742.075	100
743.6	114
745.125	120
746.65	138
748.173	140
749.697	130
751.22	136
752.743	108
754.266	102
755.788	100
757.309	106
758.831	98
760.351	88
761.871	80
763.392	68
764.912	68
766.431	70
767.95	70
769.468	72
770.986	70
772.504	70
774.022	70
775.538	74
777.055	72
778.571	72
780.086	84
781.602	78
783.117	84
784.632	78
786.146	74
787.659	70
789.173	70
790.685	66
792.198	62
793.71	68
795.222	66
796.733	60
798.244	66
799.755	68
801.265	68
802.775	68
804.284	72
805.793	78
807.302	82
808.81	78
810.318	74
811.826	76
813.333	74
814.84	76
816.346	78
817.851	82
819.357	76
820.862	90
822.367	96
823.871	112
825.376	132
826.878	158
828.382	240
829.885	340
831.387	456
832.889	612
834.391	542
835.892	414
837.392	244
838.893	174
840.393	120
841.893	112
843.392	112
844.891	96
846.389	88
847.888	100
849.386	94
850.882	86
852.38	86
853.876	84
855.372	84
856.868	86
858.363	82
859.858	88
861.353	84
862.847	82
864.341	68
865.834	72
867.328	74
868.82	72
870.313	60
871.805	64
873.296	58
874.787	56
876.278	62
877.769	66
879.258	64
880.748	68
882.237	56
883.726	62
885.214	58
886.702	64
888.19	56
889.677	64
891.164	62
892.651	54
894.137	54
895.623	60
897.108	54
898.593	60
900.077	58
901.562	58
903.046	58
904.529	56
906.012	58
907.495	52
908.977	64
910.459	48
911.941	56
913.422	60
914.903	50
916.383	56
917.863	56
919.343	60
920.822	50
922.301	62
923.779	64
925.257	60
926.735	56
928.213	64
929.69	62
931.166	66
932.643	66
934.119	64
935.594	66
937.069	68
938.543	72
940.018	78
941.492	76
942.966	86
944.439	98
945.911	98
947.384	112
948.856	124
950.328	142
951.799	182
953.27	216
954.741	256
956.21	300
957.68	334
959.15	354
960.619	372
962.088	372
963.556	316
965.023	290
966.491	244
967.958	228
969.425	200
970.891	174
972.357	156
973.824	144
975.288	104
976.754	104
978.218	86
979.682	86
981.146	80
982.609	86
984.072	86
985.534	74
986.997	72
988.459	68
989.92	76
991.382	76
992.842	74
994.302	72
995.763	66
997.222	64
998.681	62
1000.14	62
1001.6	62
1003.06	66
1004.52	58
1005.97	60
1007.43	62
1008.89	66
1010.34	66
1011.8	60
1013.25	66
1014.71	62
1016.16	64
1017.62	70
1019.07	78
1020.53	72
1021.98	90
1023.43	80
1024.89	94
1026.34	80
1027.79	92
1029.24	90
1030.69	96
1032.14	90
1033.59	96
1035.04	96
1036.49	100
1037.94	88
1039.39	94
1040.84	92
1042.29	90
1043.73	86
1045.18	70
1046.63	78
1048.08	72
1049.52	70
1050.97	58
1052.41	72
1053.86	64
1055.3	70
1056.75	56
1058.19	66
1059.64	70
1061.08	68
1062.52	58
1063.96	60
1065.41	64
1066.85	60
1068.29	58
1069.73	60
1071.17	66
1072.61	72
1074.05	60
1075.49	64
1076.93	66
1078.37	60
1079.81	62
1081.25	58
1082.68	64
1084.12	56
1085.56	60
1087	70
1088.43	64
1089.87	66
1091.3	74
1092.74	72
1094.17	68
1095.61	74
1097.04	72
1098.48	74
1099.91	78
1101.34	80
1102.78	76
1104.21	94
1105.64	120
1107.07	144
1108.5	200
1109.93	270
1111.36	316
1112.8	338
1114.22	306
1115.65	262
1117.08	188
1118.51	150
1119.94	130
1121.37	110
1122.8	102
1124.22	106
1125.65	104
1127.08	90
1128.5	78
1129.93	84
1131.35	84
1132.78	78
1134.2	84
1135.63	78
1137.05	78
1138.48	92
1139.9	92
1141.32	84
1142.75	94
1144.17	82
1145.59	80
1147.01	76
1148.43	76
1149.85	74
1151.27	78
1152.69	74
1154.11	74
1155.53	76
1156.95	88
1158.37	76
1159.79	100
1161.21	90
1162.62	90
1164.04	94
1165.46	96
1166.87	86
1168.29	92
1169.71	84
1171.12	88
1172.54	92
1173.95	92
1175.37	98
1176.78	104
1178.19	114
1179.61	124
1181.02	150
1182.43	164
1183.84	204
1185.26	224
1186.67	250
1188.08	244
1189.49	202
1190.9	194
1192.31	176
1193.72	164
1195.13	144
1196.54	152
1197.95	160
1199.36	174
1200.76	170
1202.17	158
1203.58	170
1204.99	166
1206.39	160
1207.8	136
1209.2	122
1210.61	116
1212.01	106
1213.42	98
1214.82	96
1216.23	88
1217.63	92
1219.03	86
1220.44	96
1221.84	96
1223.24	100
1224.64	108
1226.05	112
1227.45	126
1228.85	132
1230.25	128
1231.65	122
1233.05	114
1234.45	112
1235.85	102
1237.25	90
1238.64	92
1240.04	94
1241.44	94
1242.84	80
1244.23	86
1245.63	84
1247.03	94
1248.42	88
1249.82	84
1251.21	88
1252.61	82
1254	84
1255.4	90
1256.79	92
1258.19	80
1259.58	88
1260.97	82
1262.36	92
1263.76	98
1265.15	94
1266.54	86
1267.93	96
1269.32	96
1270.71	102
1272.1	96
1273.49	104
1274.88	98
1276.27	98
1277.66	114
1279.05	108
1280.43	114
1281.82	132
1283.21	132
1284.6	138
1285.98	142
1287.37	156
1288.75	148
1290.14	162
1291.53	178
1292.91	186
1294.29	212
1295.68	246
1297.06	292
1298.45	346
1299.83	400
1301.21	518
1302.59	678
1303.98	744
1305.36	786
1306.74	736
1308.12	638
1309.5	506
1310.88	420
1312.26	340
1313.64	290
1315.02	258
1316.4	240
1317.78	228
1319.16	200
1320.53	204
1321.91	196
1323.29	186
1324.67	178
1326.04	170
1327.42	178
1328.79	184
1330.17	180
1331.54	160
1332.92	162
1334.29	150
1335.67	156
1337.04	138
1338.42	144
1339.79	144
1341.16	146
1342.53	156
1343.91	146
1345.28	166
1346.65	164
1348.02	160
1349.39	170
1350.76	178
1352.13	164
1353.5	158
1354.87	170
1356.24	158
1357.61	150
1358.98	142
1360.34	146
1361.71	146
1363.08	144
1364.45	144
1365.81	146
1367.18	162
1368.54	160
1369.91	174
1371.28	200
1372.64	234
1374.01	286
1375.37	348
1376.73	372
1378.1	418
1379.46	408
1380.82	424
1382.19	400
1383.55	346
1384.91	320
1386.27	284
1387.63	230
1388.99	198
1390.35	180
1391.71	152
1393.07	148
1394.43	144
1395.79	140
1397.15	144
1398.51	140
1399.87	132
1401.23	142
1402.58	138
1403.94	130
1405.3	138
1406.65	134
1408.01	134
1409.37	132
1410.72	140
1412.08	142
1413.43	150
1414.79	146
1416.14	156
1417.49	148
1418.85	148
1420.2	162
1421.55	174
1422.91	178
1424.26	176
1425.61	184
1426.96	192
1428.31	170
1429.66	188
1431.01	184
1432.36	206
1433.71	200
1435.06	194
1436.41	192
1437.76	206
1439.11	220
1440.46	204
1441.81	210
1443.15	202
1444.5	198
1445.85	188
1447.19	190
1448.54	184
1449.89	178
1451.23	176
1452.58	166
1453.92	160
1455.27	150
1456.61	160
1457.95	158
1459.3	154
1460.64	154
1461.98	156
1463.33	148
1464.67	156
1466.01	152
1467.35	144
1468.69	162
1470.03	152
1471.37	162
1472.71	140
1474.05	142
1475.39	148
1476.73	146
1478.07	142
1479.41	128
1480.75	158
1482.09	132
1483.42	136
1484.76	142
1486.1	136
1487.43	126
1488.77	122
1490.11	130
1491.44	114
1492.78	120
1494.11	112
1495.45	124
1496.78	116
1498.12	110
1499.45	114
1500.78	120
1502.11	108
1503.45	114
1504.78	108
1506.11	122
1507.44	116
1508.77	114
1510.11	106
1511.44	112
1512.77	106
1514.1	106
1515.43	116
1516.76	104
1518.08	110
1519.41	100
1520.74	104
1522.07	106
1523.4	108
1524.72	112
1526.05	106
1527.38	100
1528.7	108
1530.03	100
1531.36	124
1532.68	106
1534.01	104
1535.33	112
1536.66	106
1537.98	112
1539.3	104
1540.63	106
1541.95	116
1543.27	106
1544.6	112
1545.92	102
1547.24	108
1548.56	106
1549.88	106
1551.2	106
1552.52	110
1553.84	100
1555.17	114
1556.48	110
1557.8	118
1559.12	106
1560.44	112
1561.76	100
1563.08	114
1564.4	106
1565.71	112
1567.03	112
1568.35	108
1569.66	124
1570.98	126
1572.29	120
1573.61	122
1574.93	136
1576.24	136
1577.55	142
1578.87	146
1580.18	146
1581.5	152
1582.81	158
1584.12	174
1585.43	188
1586.75	208
1588.06	212
1589.37	240
1590.68	258
1591.99	292
1593.3	306
1594.61	330
1595.92	380
1597.23	404
1598.54	436
1599.85	450
1601.16	460
1602.47	474
1603.78	482
1605.08	456
1606.39	440
1607.7	408
1609	378
1610.31	356
1611.62	320
1612.92	320
1614.23	268
1615.53	252
1616.84	216
1618.14	202
1619.45	174
1620.75	170
1622.06	154
1623.36	144
1624.66	130
1625.96	132
1627.27	122
1628.57	114
1629.87	124
1631.17	110
1632.47	104
1633.77	92
1635.07	102
1636.37	94
1637.67	100
1638.97	94
1640.27	94
1641.57	92
1642.87	90
1644.17	84
1645.47	80
1646.76	88
1648.06	82
1649.36	82
1650.66	78
1651.95	78
1653.25	86
1654.54	82
1655.84	78
1657.13	88
1658.43	88
1659.72	80
1661.02	84
1662.31	88
1663.6	76
1664.9	78
1666.19	84
1667.48	70
1668.78	82
1670.07	76
1671.36	82
1672.65	78
1673.94	74
1675.23	74
1676.52	80
1677.81	80
1679.1	76
1680.39	74
1681.68	82
1682.97	70
1684.26	74
1685.55	72
1686.83	82
1688.12	78
1689.41	80
1690.7	78
1691.98	80
1693.27	80
1694.55	82
1695.84	82
1697.13	80
1698.41	80
1699.69	82
1700.98	76
1702.26	70