File: Jesse_Dataset_v2/Pure Raman/Polypropylene oxide/785nm/ps-ppo-6jan25-0,0000-map2_Y03_X07.txt
204.377	374
206.045	374
207.713	344
209.38	362
211.048	330
212.715	334
214.381	322
216.047	326
217.712	336
219.377	348
221.042	372
222.706	422
224.369	476
226.032	574
227.695	654
229.357	790
231.019	890
232.68	972
234.341	984
236.001	964
237.661	914
239.321	848
240.98	762
242.639	662
244.297	618
245.955	550
247.612	484
249.268	446
250.924	374
252.58	374
254.236	312
255.891	280
257.546	264
259.2	240
260.854	228
262.507	224
264.16	204
265.812	190
267.463	178
269.115	180
270.766	176
272.417	178
274.067	182
275.717	180
277.365	186
279.014	192
280.663	186
282.311	206
283.958	224
285.605	254
287.252	296
288.898	340
290.543	356
292.188	404
293.833	430
295.477	432
297.121	456
298.765	400
300.407	400
302.05	354
303.693	320
305.334	312
306.975	284
308.615	278
310.256	254
311.896	246
313.535	242
315.175	232
316.813	226
318.451	240
320.089	224
321.726	230
323.362	218
324.999	222
326.635	234
328.271	244
329.905	248
331.54	270
333.174	262
334.807	268
336.441	232
338.074	250
339.707	250
341.338	224
342.969	210
344.601	204
346.231	204
347.861	196
349.491	210
351.12	212
352.749	220
354.378	220
356.006	216
357.633	212
359.261	212
360.887	188
362.513	190
364.139	196
365.764	194
367.39	184
369.014	194
370.638	192
372.261	192
373.884	204
375.508	188
377.13	178
378.752	164
380.373	146
381.994	148
383.615	140
385.235	136
386.854	136
388.473	140
390.092	128
391.711	134
393.328	126
394.947	128
396.564	118
398.181	114
399.797	120
401.412	124
403.027	124
404.642	134
406.257	146
407.871	150
409.484	166
411.098	196
412.711	208
414.323	224
415.935	206
417.547	198
419.158	180
420.768	160
422.378	144
423.988	154
425.597	134
427.206	116
428.814	118
430.422	110
432.03	106
433.637	112
435.243	84
436.85	90
438.456	86
440.062	84
441.666	76
443.271	88
444.876	82
446.479	74
448.082	78
449.685	76
451.287	70
452.89	82
454.492	82
456.092	74
457.693	76
459.293	78
460.893	86
462.492	96
464.092	90
465.691	100
467.288	112
468.887	120
470.483	130
472.081	146
473.677	168
475.273	190
476.869	192
478.463	216
480.059	240
481.653	254
483.247	286
484.84	292
486.433	282
488.026	230
489.618	182
491.21	166
492.801	162
494.392	140
495.983	132
497.573	118
499.162	96
500.752	92
502.341	94
503.929	94
505.517	92
507.105	110
508.692	128
510.279	162
511.865	200
513.45	218
515.037	206
516.621	162
518.206	152
519.79	146
521.374	142
522.957	164
524.54	164
526.123	174
527.705	188
529.287	226
530.868	270
532.448	308
534.029	368
535.609	406
537.188	442
538.768	448
540.346	450
541.925	416
543.502	378
545.08	302
546.657	254
548.234	218
549.81	198
551.386	194
552.961	204
554.536	206
556.11	226
557.684	258
559.258	312
560.832	394
562.405	502
563.977	706
565.55	1014
567.12	1408
568.692	1962
570.263	2332
571.833	2312
573.403	1972
574.973	1470
576.542	986
578.111	664
579.679	502
581.247	394
582.815	360
584.382	336
585.948	332
587.514	310
589.081	294
590.645	262
592.211	254
593.775	246
595.339	236
596.904	220
598.466	198
600.03	192
601.592	162
603.154	130
604.715	112
606.277	106
607.838	94
609.398	98
610.958	88
612.518	90
614.077	82
615.636	96
617.194	92
618.753	92
620.31	98
621.867	106
623.424	110
624.98	114
626.537	116
628.092	114
629.647	132
631.202	138
632.756	150
634.31	150
635.864	160
637.417	158
638.969	128
640.521	142
642.074	124
643.625	110
645.176	110
646.726	112
648.276	102
649.827	100
651.376	88
652.925	80
654.473	94
656.021	86
657.569	72
659.117	72
660.664	68
662.21	68
663.757	72
665.302	72
666.847	62
668.392	66
669.937	62
671.481	62
673.025	62
674.568	56
676.111	52
677.653	60
679.195	58
680.737	60
682.279	62
683.82	64
685.36	62
686.9	60
688.44	62
689.979	56
691.517	54
693.056	62
694.594	58
696.132	54
697.669	56
699.206	54
700.742	62
702.278	54
703.814	56
705.35	72
706.884	68
708.419	74
709.953	76
711.487	80
713.019	90
714.552	98
716.085	100
717.617	80
719.148	88
720.68	78
722.21	72
723.741	74
725.271	80
726.8	76
728.33	64
729.858	70
731.387	80
732.915	76
734.443	86
735.97	86
737.497	88
739.023	82
740.549	86
742.075	82
743.6	116
745.125	122
746.65	138
748.173	132
749.697	126
751.22	120
752.743	122
754.266	112
755.788	108
757.309	102
758.831	92
760.351	84
761.871	72
763.392	74
764.912	70
766.431	72
767.95	62
769.468	74
770.986	66
772.504	72
774.022	72
775.538	76
777.055	78
778.571	84
780.086	78
781.602	70
783.117	80
784.632	76
786.146	76
787.659	66
789.173	66
790.685	62
792.198	70
793.71	62
795.222	62
796.733	66
798.244	68
799.755	64
801.265	66
802.775	62
804.284	72
805.793	72
807.302	78
808.81	72
810.318	68
811.826	82
813.333	72
814.84	64
816.346	82
817.851	76
819.357	84
820.862	86
822.367	94
823.871	100
825.376	132
826.878	166
828.382	238
829.885	340
831.387	474
832.889	606
834.391	556
835.892	400
837.392	238
838.893	172
840.393	130
841.893	114
843.392	104
844.891	98
846.389	94
847.888	92
849.386	86
850.882	100
852.38	96
853.876	82
855.372	92
856.868	86
858.363	82
859.858	84
861.353	82
862.847	76
864.341	76
865.834	78
867.328	64
868.82	66
870.313	68
871.805	60
873.296	58
874.787	62
876.278	62
877.769	62
879.258	60
880.748	60
882.237	60
883.726	60
885.214	60
886.702	58
888.19	54
889.677	58
891.164	60
892.651	58
894.137	56
895.623	56
897.108	58
898.593	56
900.077	56
901.562	58
903.046	62
904.529	56
906.012	52
907.495	58
908.977	52
910.459	54
911.941	60
913.422	62
914.903	56
916.383	58
917.863	56
919.343	58
920.822	60
922.301	60
923.779	58
925.257	56
926.735	60
928.213	58
929.69	58
931.166	68
932.643	58
934.119	66
935.594	68
937.069	70
938.543	70
940.018	72
941.492	72
942.966	86
944.439	84
945.911	92
947.384	112
948.856	132
950.328	144
951.799	166
953.27	198
954.741	244
956.21	310
957.68	336
959.15	366
960.619	368
962.088	368
963.556	344
965.023	306
966.491	260
967.958	216
969.425	200
970.891	180
972.357	168
973.824	132
975.288	120
976.754	96
978.218	94
979.682	88
981.146	76
982.609	72
984.072	78
985.534	76
986.997	66
988.459	66
989.92	72
991.382	80
992.842	74
994.302	74
995.763	64
997.222	70
998.681	66
1000.14	68
1001.6	66
1003.06	62
1004.52	62
1005.97	60
1007.43	62
1008.89	64
1010.34	56
1011.8	60
1013.25	60
1014.71	62
1016.16	54
1017.62	76
1019.07	74
1020.53	76
1021.98	78
1023.43	82
1024.89	78
1026.34	84
1027.79	90
1029.24	92
1030.69	96
1032.14	96
1033.59	100
1035.04	98
1036.49	90
1037.94	102
1039.39	90
1040.84	84
1042.29	84
1043.73	68
1045.18	74
1046.63	74
1048.08	76
1049.52	68
1050.97	66
1052.41	64
1053.86	60
1055.3	62
1056.75	62
1058.19	62
1059.64	66
1061.08	56
1062.52	60
1063.96	66
1065.41	68
1066.85	62
1068.29	60
1069.73	62
1071.17	64
1072.61	66
1074.05	64
1075.49	66
1076.93	56
1078.37	56
1079.81	64
1081.25	64
1082.68	58
1084.12	58
1085.56	68
1087	64
1088.43	62
1089.87	68
1091.3	66
1092.74	66
1094.17	66
1095.61	66
1097.04	66
1098.48	68
1099.91	72
1101.34	74
1102.78	88
1104.21	98
1105.64	108
1107.07	136
1108.5	198
1109.93	266
1111.36	326
1112.8	346
1114.22	322
1115.65	242
1117.08	214
1118.51	160
1119.94	134
1121.37	120
1122.8	100
1124.22	98
1125.65	96
1127.08	96
1128.5	94
1129.93	84
1131.35	86
1132.78	86
1134.2	74
1135.63	82
1137.05	78
1138.48	80
1139.9	82
1141.32	80
1142.75	88
1144.17	84
1145.59	82
1147.01	68
1148.43	62
1149.85	76
1151.27	72
1152.69	74
1154.11	78
1155.53	74
1156.95	82
1158.37	80
1159.79	86
1161.21	90
1162.62	94
1164.04	88
1165.46	86
1166.87	84
1168.29	84
1169.71	84
1171.12	94
1172.54	82
1173.95	94
1175.37	108
1176.78	106
1178.19	112
1179.61	128
1181.02	148
1182.43	160
1183.84	196
1185.26	228
1186.67	246
1188.08	234
1189.49	208
1190.9	186
1192.31	168
1193.72	158
1195.13	150
1196.54	150
1197.95	154
1199.36	154
1200.76	168
1202.17	168
1203.58	174
1204.99	166
1206.39	170
1207.8	142
1209.2	134
1210.61	116
1212.01	96
1213.42	94
1214.82	90
1216.23	92
1217.63	94
1219.03	92
1220.44	82
1221.84	98
1223.24	94
1224.64	102
1226.05	110
1227.45	116
1228.85	136
1230.25	126
1231.65	136
1233.05	122
1234.45	108
1235.85	106
1237.25	102
1238.64	90
1240.04	88
1241.44	82
1242.84	88
1244.23	86
1245.63	84
1247.03	80
1248.42	76
1249.82	80
1251.21	86
1252.61	86
1254	88
1255.4	84
1256.79	82
1258.19	90
1259.58	90
1260.97	100
1262.36	100
1263.76	92
1265.15	92
1266.54	92
1267.93	94
1269.32	96
1270.71	98
1272.1	96
1273.49	98
1274.88	94
1276.27	106
1277.66	106
1279.05	108
1280.43	118
1281.82	120
1283.21	136
1284.6	136
1285.98	146
1287.37	160
1288.75	150
1290.14	166
1291.53	176
1292.91	182
1294.29	198
1295.68	250
1297.06	262
1298.45	348
1299.83	422
1301.21	534
1302.59	666
1303.98	756
1305.36	752
1306.74	742
1308.12	660
1309.5	500
1310.88	402
1312.26	332
1313.64	296
1315.02	264
1316.4	250
1317.78	220
1319.16	198
1320.53	184
1321.91	196
1323.29	184
1324.67	190
1326.04	176
1327.42	188
1328.79	186
1330.17	172
1331.54	170
1332.92	166
1334.29	150
1335.67	146
1337.04	154
1338.42	142
1339.79	134
1341.16	148
1342.53	150
1343.91	152
1345.28	150
1346.65	152
1348.02	158
1349.39	158
1350.76	170
1352.13	164
1353.5	164
1354.87	154
1356.24	156
1357.61	152
1358.98	148
1360.34	146
1361.71	154
1363.08	148
1364.45	144
1365.81	154
1367.18	150
1368.54	170
1369.91	186
1371.28	196
1372.64	228
1374.01	278
1375.37	354
1376.73	382
1378.1	382
1379.46	412
1380.82	414
1382.19	380
1383.55	370
1384.91	314
1386.27	278
1387.63	224
1388.99	200
1390.35	180
1391.71	148
1393.07	148
1394.43	142
1395.79	146
1397.15	134
1398.51	136
1399.87	130
1401.23	132
1402.58	122
1403.94	134
1405.3	138
1406.65	140
1408.01	132
1409.37	138
1410.72	142
1412.08	150
1413.43	132
1414.79	136
1416.14	154
1417.49	166
1418.85	160
1420.2	168
1421.55	162
1422.91	180
1424.26	182
1425.61	188
1426.96	176
1428.31	180
1429.66	192
1431.01	190
1432.36	184
1433.71	204
1435.06	206
1436.41	210
1437.76	206
1439.11	206
1440.46	212
1441.81	218
1443.15	202
1444.5	190
1445.85	204
1447.19	196
1448.54	170
1449.89	162
1451.23	176
1452.58	170
1453.92	166
1455.27	150
1456.61	144
1457.95	164
1459.3	148
1460.64	162
1461.98	146
1463.33	156
1464.67	156
1466.01	148
1467.35	142
1468.69	148
1470.03	146
1471.37	150
1472.71	152
1474.05	136
1475.39	142
1476.73	146
1478.07	154
1479.41	134
1480.75	140
1482.09	140
1483.42	130
1484.76	142
1486.1	138
1487.43	110
1488.77	116
1490.11	122
1491.44	126
1492.78	124
1494.11	114
1495.45	112
1496.78	124
1498.12	116
1499.45	118
1500.78	114
1502.11	108
1503.45	120
1504.78	112
1506.11	116
1507.44	114
1508.77	110
1510.11	116
1511.44	108
1512.77	114
1514.1	112
1515.43	100
1516.76	108
1518.08	114
1519.41	114
1520.74	102
1522.07	106
1523.4	108
1524.72	114
1526.05	106
1527.38	110
1528.7	110
1530.03	102
1531.36	106
1532.68	98
1534.01	108
1535.33	116
1536.66	106
1537.98	104
1539.3	110
1540.63	104
1541.95	114
1543.27	106
1544.6	114
1545.92	106
1547.24	106
1548.56	108
1549.88	108
1551.2	110
1552.52	108
1553.84	106
1555.17	100
1556.48	114
1557.8	114
1559.12	112
1560.44	112
1561.76	102
1563.08	120
1564.4	108
1565.71	108
1567.03	120
1568.35	114
1569.66	122
1570.98	120
1572.29	124
1573.61	126
1574.93	126
1576.24	138
1577.55	140
1578.87	142
1580.18	158
1581.5	150
1582.81	150
1584.12	166
1585.43	178
1586.75	212
1588.06	222
1589.37	234
1590.68	270
1591.99	272
1593.3	300
1594.61	332
1595.92	360
1597.23	394
1598.54	416
1599.85	456
1601.16	444
1602.47	472
1603.78	466
1605.08	470
1606.39	418
1607.7	396
1609	364
1610.31	330
1611.62	316
1612.92	290
1614.23	284
1615.53	262
1616.84	220
1618.14	194
1619.45	184
1620.75	166
1622.06	160
1623.36	136
1624.66	128
1625.96	128
1627.27	122
1628.57	116
1629.87	106
1631.17	106
1632.47	108
1633.77	96
1635.07	108
1636.37	96
1637.67	94
1638.97	96
1640.27	96
1641.57	96
1642.87	88
1644.17	88
1645.47	82
1646.76	82
1648.06	84
1649.36	84
1650.66	92
1651.95	80
1653.25	80
1654.54	82
1655.84	80
1657.13	84
1658.43	78
1659.72	78
1661.02	80
1662.31	82
1663.6	80
1664.9	88
1666.19	88
1667.48	80
1668.78	76
1670.07	80
1671.36	78
1672.65	74
1673.94	76
1675.23	74
1676.52	80
1677.81	74
1679.1	74
1680.39	78
1681.68	70
1682.97	70
1684.26	76
1685.55	80
1686.83	86
1688.12	78
1689.41	76
1690.7	82
1691.98	82
1693.27	86
1694.55	80
1695.84	80
1697.13	72
1698.41	76
1699.69	84
1700.98	86
1702.26	84