File: Jesse_Dataset_v2/Pure Raman/Polypropylene oxide/785nm/ps-ppo-6jan25-0,0000-map2_Y06_X08.txt
204.377	364
206.045	378
207.713	374
209.38	360
211.048	346
212.715	342
214.381	322
216.047	346
217.712	344
219.377	342
221.042	390
222.706	430
224.369	488
226.032	576
227.695	682
229.357	806
231.019	924
232.68	998
234.341	1032
236.001	974
237.661	938
239.321	848
240.98	780
242.639	704
244.297	650
245.955	590
247.612	524
249.268	452
250.924	416
252.58	358
254.236	354
255.891	316
257.546	280
259.2	260
260.854	236
262.507	232
264.16	220
265.812	206
267.463	190
269.115	182
270.766	190
272.417	200
274.067	184
275.717	184
277.365	200
279.014	188
280.663	206
282.311	212
283.958	242
285.605	266
287.252	298
288.898	322
290.543	392
292.188	414
293.833	458
295.477	462
297.121	448
298.765	410
300.407	388
302.05	358
303.693	332
305.334	310
306.975	312
308.615	278
310.256	278
311.896	240
313.535	256
315.175	240
316.813	244
318.451	228
320.089	232
321.726	226
323.362	238
324.999	240
326.635	244
328.271	234
329.905	246
331.54	274
333.174	260
334.807	270
336.441	252
338.074	266
339.707	252
341.338	208
342.969	222
344.601	222
346.231	202
347.861	202
349.491	214
351.12	222
352.749	234
354.378	206
356.006	212
357.633	202
359.261	212
360.887	194
362.513	188
364.139	180
365.764	188
367.39	186
369.014	186
370.638	206
372.261	198
373.884	200
375.508	192
377.13	166
378.752	168
380.373	172
381.994	146
383.615	156
385.235	150
386.854	140
388.473	134
390.092	138
391.711	134
393.328	126
394.947	130
396.564	118
398.181	130
399.797	134
401.412	130
403.027	128
404.642	120
406.257	142
407.871	152
409.484	180
411.098	190
412.711	204
414.323	218
415.935	218
417.547	196
419.158	182
420.768	176
422.378	160
423.988	132
425.597	128
427.206	114
428.814	116
430.422	112
432.03	102
433.637	98
435.243	100
436.85	92
438.456	84
440.062	86
441.666	88
443.271	76
444.876	86
446.479	84
448.082	72
449.685	78
451.287	78
452.89	78
454.492	78
456.092	80
457.693	76
459.293	78
460.893	84
462.492	86
464.092	102
465.691	100
467.288	112
468.887	112
470.483	126
472.081	154
473.677	166
475.273	194
476.869	198
478.463	230
480.059	252
481.653	264
483.247	294
484.84	292
486.433	286
488.026	242
489.618	198
491.21	184
492.801	154
494.392	146
495.983	130
497.573	114
499.162	96
500.752	108
502.341	96
503.929	100
505.517	104
507.105	118
508.692	128
510.279	160
511.865	202
513.45	224
515.037	204
516.621	176
518.206	168
519.79	134
521.374	154
522.957	166
524.54	166
526.123	180
527.705	216
529.287	244
530.868	274
532.448	332
534.029	374
535.609	398
537.188	440
538.768	456
540.346	470
541.925	406
543.502	378
545.08	302
546.657	268
548.234	210
549.81	206
551.386	192
552.961	196
554.536	214
556.11	236
557.684	270
559.258	326
560.832	422
562.405	518
563.977	748
565.55	1052
567.12	1470
568.692	1974
570.263	2396
571.833	2426
573.403	2004
574.973	1486
576.542	1016
578.111	696
579.679	504
581.247	404
582.815	370
584.382	342
585.948	334
587.514	316
589.081	302
590.645	268
592.211	264
593.775	256
595.339	244
596.904	222
598.466	220
600.03	186
601.592	164
603.154	130
604.715	112
606.277	114
607.838	114
609.398	102
610.958	96
612.518	90
614.077	90
615.636	98
617.194	88
618.753	100
620.31	102
621.867	104
623.424	106
624.98	124
626.537	114
628.092	138
629.647	142
631.202	130
632.756	144
634.31	154
635.864	162
637.417	154
638.969	142
640.521	134
642.074	126
643.625	116
645.176	112
646.726	102
648.276	100
649.827	94
651.376	92
652.925	96
654.473	88
656.021	78
657.569	78
659.117	72
660.664	76
662.21	70
663.757	72
665.302	68
666.847	70
668.392	64
669.937	64
671.481	62
673.025	66
674.568	64
676.111	62
677.653	68
679.195	66
680.737	58
682.279	60
683.82	60
685.36	68
686.9	56
688.44	66
689.979	58
691.517	58
693.056	60
694.594	58
696.132	64
697.669	52
699.206	58
700.742	62
702.278	58
703.814	66
705.35	68
706.884	66
708.419	74
709.953	74
711.487	82
713.019	98
714.552	106
716.085	98
717.617	88
719.148	74
720.68	78
722.21	72
723.741	80
725.271	74
726.8	68
728.33	74
729.858	74
731.387	78
732.915	84
734.443	78
735.97	80
737.497	84
739.023	84
740.549	88
742.075	102
743.6	114
745.125	130
746.65	138
748.173	132
749.697	122
751.22	132
752.743	118
754.266	120
755.788	120
757.309	100
758.831	92
760.351	76
761.871	78
763.392	76
764.912	74
766.431	62
767.95	70
769.468	70
770.986	62
772.504	66
774.022	74
775.538	68
777.055	84
778.571	68
780.086	82
781.602	74
783.117	84
784.632	70
786.146	64
787.659	62
789.173	68
790.685	74
792.198	70
793.71	68
795.222	60
796.733	70
798.244	64
799.755	62
801.265	66
802.775	68
804.284	80
805.793	76
807.302	74
808.81	78
810.318	70
811.826	72
813.333	70
814.84	78
816.346	80
817.851	86
819.357	84
820.862	88
822.367	94
823.871	122
825.376	138
826.878	176
828.382	236
829.885	350
831.387	502
832.889	566
834.391	554
835.892	408
837.392	246
838.893	178
840.393	138
841.893	114
843.392	96
844.891	106
846.389	94
847.888	96
849.386	94
850.882	92
852.38	86
853.876	90
855.372	82
856.868	84
858.363	88
859.858	84
861.353	74
862.847	68
864.341	76
865.834	82
867.328	66
868.82	76
870.313	62
871.805	70
873.296	60
874.787	60
876.278	70
877.769	60
879.258	60
880.748	60
882.237	62
883.726	60
885.214	62
886.702	60
888.19	54
889.677	64
891.164	56
892.651	54
894.137	54
895.623	68
897.108	64
898.593	54
900.077	52
901.562	60
903.046	58
904.529	56
906.012	56
907.495	52
908.977	58
910.459	54
911.941	56
913.422	52
914.903	60
916.383	56
917.863	54
919.343	60
920.822	58
922.301	54
923.779	50
925.257	60
926.735	56
928.213	60
929.69	58
931.166	60
932.643	64
934.119	70
935.594	70
937.069	74
938.543	72
940.018	62
941.492	76
942.966	88
944.439	96
945.911	102
947.384	104
948.856	132
950.328	148
951.799	182
953.27	224
954.741	246
956.21	304
957.68	350
959.15	380
960.619	394
962.088	382
963.556	344
965.023	290
966.491	262
967.958	216
969.425	204
970.891	186
972.357	166
973.824	132
975.288	132
976.754	98
978.218	98
979.682	86
981.146	86
982.609	78
984.072	76
985.534	74
986.997	72
988.459	68
989.92	76
991.382	76
992.842	68
994.302	72
995.763	66
997.222	62
998.681	62
1000.14	66
1001.6	62
1003.06	64
1004.52	60
1005.97	54
1007.43	64
1008.89	58
1010.34	62
1011.8	62
1013.25	60
1014.71	64
1016.16	76
1017.62	74
1019.07	74
1020.53	80
1021.98	74
1023.43	80
1024.89	80
1026.34	88
1027.79	92
1029.24	92
1030.69	90
1032.14	100
1033.59	98
1035.04	102
1036.49	90
1037.94	98
1039.39	92
1040.84	86
1042.29	88
1043.73	90
1045.18	86
1046.63	76
1048.08	74
1049.52	78
1050.97	64
1052.41	70
1053.86	68
1055.3	62
1056.75	58
1058.19	64
1059.64	68
1061.08	66
1062.52	62
1063.96	62
1065.41	66
1066.85	62
1068.29	66
1069.73	58
1071.17	66
1072.61	64
1074.05	62
1075.49	60
1076.93	64
1078.37	66
1079.81	66
1081.25	60
1082.68	62
1084.12	64
1085.56	62
1087	58
1088.43	62
1089.87	68
1091.3	64
1092.74	68
1094.17	68
1095.61	72
1097.04	68
1098.48	80
1099.91	78
1101.34	78
1102.78	90
1104.21	98
1105.64	108
1107.07	138
1108.5	198
1109.93	266
1111.36	332
1112.8	372
1114.22	322
1115.65	260
1117.08	204
1118.51	152
1119.94	132
1121.37	108
1122.8	116
1124.22	98
1125.65	102
1127.08	94
1128.5	94
1129.93	86
1131.35	88
1132.78	90
1134.2	88
1135.63	82
1137.05	82
1138.48	94
1139.9	88
1141.32	86
1142.75	88
1144.17	86
1145.59	76
1147.01	78
1148.43	74
1149.85	72
1151.27	76
1152.69	76
1154.11	76
1155.53	78
1156.95	90
1158.37	78
1159.79	88
1161.21	92
1162.62	96
1164.04	96
1165.46	86
1166.87	88
1168.29	82
1169.71	88
1171.12	84
1172.54	94
1173.95	94
1175.37	96
1176.78	106
1178.19	118
1179.61	126
1181.02	146
1182.43	150
1183.84	216
1185.26	242
1186.67	242
1188.08	230
1189.49	200
1190.9	190
1192.31	158
1193.72	154
1195.13	148
1196.54	152
1197.95	162
1199.36	158
1200.76	168
1202.17	172
1203.58	170
1204.99	152
1206.39	154
1207.8	150
1209.2	132
1210.61	116
1212.01	110
1213.42	98
1214.82	96
1216.23	96
1217.63	94
1219.03	98
1220.44	98
1221.84	96
1223.24	92
1224.64	108
1226.05	108
1227.45	114
1228.85	124
1230.25	130
1231.65	130
1233.05	126
1234.45	112
1235.85	110
1237.25	100
1238.64	92
1240.04	88
1241.44	78
1242.84	80
1244.23	80
1245.63	92
1247.03	76
1248.42	84
1249.82	90
1251.21	88
1252.61	88
1254	94
1255.4	94
1256.79	96
1258.19	88
1259.58	90
1260.97	100
1262.36	98
1263.76	92
1265.15	98
1266.54	94
1267.93	100
1269.32	104
1270.71	96
1272.1	96
1273.49	88
1274.88	106
1276.27	106
1277.66	108
1279.05	116
1280.43	126
1281.82	132
1283.21	134
1284.6	142
1285.98	144
1287.37	154
1288.75	164
1290.14	150
1291.53	164
1292.91	204
1294.29	204
1295.68	240
1297.06	298
1298.45	352
1299.83	458
1301.21	554
1302.59	668
1303.98	804
1305.36	824
1306.74	772
1308.12	646
1309.5	518
1310.88	422
1312.26	344
1313.64	290
1315.02	264
1316.4	236
1317.78	216
1319.16	208
1320.53	206
1321.91	198
1323.29	198
1324.67	194
1326.04	182
1327.42	188
1328.79	178
1330.17	180
1331.54	184
1332.92	158
1334.29	164
1335.67	150
1337.04	166
1338.42	144
1339.79	138
1341.16	148
1342.53	156
1343.91	148
1345.28	158
1346.65	172
1348.02	172
1349.39	158
1350.76	160
1352.13	168
1353.5	178
1354.87	164
1356.24	146
1357.61	152
1358.98	146
1360.34	154
1361.71	138
1363.08	140
1364.45	146
1365.81	156
1367.18	152
1368.54	176
1369.91	176
1371.28	192
1372.64	246
1374.01	294
1375.37	348
1376.73	406
1378.1	436
1379.46	422
1380.82	440
1382.19	414
1383.55	374
1384.91	316
1386.27	282
1387.63	240
1388.99	204
1390.35	176
1391.71	158
1393.07	148
1394.43	148
1395.79	142
1397.15	142
1398.51	140
1399.87	138
1401.23	128
1402.58	126
1403.94	140
1405.3	142
1406.65	150
1408.01	144
1409.37	142
1410.72	140
1412.08	142
1413.43	136
1414.79	146
1416.14	156
1417.49	148
1418.85	162
1420.2	168
1421.55	174
1422.91	172
1424.26	174
1425.61	188
1426.96	188
1428.31	184
1429.66	192
1431.01	196
1432.36	190
1433.71	196
1435.06	200
1436.41	212
1437.76	208
1439.11	212
1440.46	212
1441.81	210
1443.15	200
1444.5	190
1445.85	204
1447.19	186
1448.54	174
1449.89	174
1451.23	172
1452.58	156
1453.92	166
1455.27	174
1456.61	156
1457.95	162
1459.3	152
1460.64	154
1461.98	150
1463.33	146
1464.67	154
1466.01	148
1467.35	150
1468.69	152
1470.03	158
1471.37	162
1472.71	134
1474.05	150
1475.39	146
1476.73	148
1478.07	138
1479.41	138
1480.75	140
1482.09	138
1483.42	140
1484.76	140
1486.1	128
1487.43	130
1488.77	124
1490.11	122
1491.44	124
1492.78	126
1494.11	120
1495.45	114
1496.78	128
1498.12	118
1499.45	116
1500.78	124
1502.11	110
1503.45	114
1504.78	112
1506.11	118
1507.44	118
1508.77	118
1510.11	108
1511.44	110
1512.77	104
1514.1	106
1515.43	118
1516.76	100
1518.08	110
1519.41	112
1520.74	114
1522.07	110
1523.4	106
1524.72	104
1526.05	112
1527.38	108
1528.7	116
1530.03	112
1531.36	102
1532.68	116
1534.01	102
1535.33	100
1536.66	110
1537.98	110
1539.3	110
1540.63	106
1541.95	112
1543.27	104
1544.6	108
1545.92	108
1547.24	110
1548.56	110
1549.88	110
1551.2	104
1552.52	110
1553.84	104
1555.17	112
1556.48	108
1557.8	120
1559.12	112
1560.44	96
1561.76	112
1563.08	110
1564.4	108
1565.71	108
1567.03	112
1568.35	122
1569.66	118
1570.98	128
1572.29	120
1573.61	128
1574.93	132
1576.24	138
1577.55	154
1578.87	144
1580.18	148
1581.5	158
1582.81	180
1584.12	178
1585.43	200
1586.75	210
1588.06	212
1589.37	230
1590.68	260
1591.99	286
1593.3	312
1594.61	356
1595.92	390
1597.23	414
1598.54	420
1599.85	460
1601.16	484
1602.47	476
1603.78	500
1605.08	450
1606.39	450
1607.7	416
1609	394
1610.31	340
1611.62	324
1612.92	298
1614.23	260
1615.53	238
1616.84	224
1618.14	206
1619.45	188
1620.75	184
1622.06	168
1623.36	142
1624.66	146
1625.96	126
1627.27	118
1628.57	118
1629.87	112
1631.17	118
1632.47	104
1633.77	98
1635.07	94
1636.37	96
1637.67	98
1638.97	94
1640.27	88
1641.57	92
1642.87	82
1644.17	90
1645.47	92
1646.76	78
1648.06	86
1649.36	92
1650.66	82
1651.95	86
1653.25	80
1654.54	86
1655.84	84
1657.13	74
1658.43	86
1659.72	88
1661.02	84
1662.31	82
1663.6	82
1664.9	84
1666.19	74
1667.48	84
1668.78	80
1670.07	82
1671.36	78
1672.65	76
1673.94	68
1675.23	82
1676.52	82
1677.81	80
1679.1	78
1680.39	70
1681.68	78
1682.97	70
1684.26	78
1685.55	78
1686.83	74
1688.12	70
1689.41	88
1690.7	82
1691.98	78
1693.27	80
1694.55	84
1695.84	86
1697.13	78
1698.41	76
1699.69	78
1700.98	74
1702.26	80