File: Jesse_Dataset_v2/Pure Raman/Polypropylene oxide/785nm/ps-ppo-6jan25-0,0000-map2_Y00_X08.txt
204.377	380
206.045	358
207.713	346
209.38	348
211.048	322
212.715	326
214.381	328
216.047	310
217.712	318
219.377	334
221.042	380
222.706	394
224.369	448
226.032	540
227.695	618
229.357	748
231.019	878
232.68	924
234.341	926
236.001	914
237.661	916
239.321	788
240.98	732
242.639	684
244.297	598
245.955	542
247.612	474
249.268	416
250.924	372
252.58	350
254.236	320
255.891	284
257.546	264
259.2	250
260.854	224
262.507	218
264.16	194
265.812	188
267.463	172
269.115	178
270.766	172
272.417	180
274.067	168
275.717	174
277.365	168
279.014	200
280.663	198
282.311	200
283.958	230
285.605	268
287.252	280
288.898	326
290.543	366
292.188	378
293.833	406
295.477	420
297.121	404
298.765	378
300.407	364
302.05	320
303.693	308
305.334	306
306.975	272
308.615	268
310.256	250
311.896	232
313.535	240
315.175	240
316.813	214
318.451	216
320.089	230
321.726	226
323.362	214
324.999	236
326.635	240
328.271	236
329.905	260
331.54	254
333.174	272
334.807	254
336.441	246
338.074	238
339.707	222
341.338	228
342.969	198
344.601	206
346.231	208
347.861	194
349.491	208
351.12	204
352.749	192
354.378	200
356.006	214
357.633	200
359.261	190
360.887	200
362.513	194
364.139	184
365.764	170
367.39	180
369.014	190
370.638	178
372.261	198
373.884	184
375.508	190
377.13	184
378.752	164
380.373	156
381.994	160
383.615	150
385.235	132
386.854	132
388.473	134
390.092	128
391.711	132
393.328	122
394.947	120
396.564	134
398.181	126
399.797	132
401.412	124
403.027	142
404.642	130
406.257	138
407.871	148
409.484	174
411.098	186
412.711	210
414.323	210
415.935	208
417.547	204
419.158	172
420.768	154
422.378	150
423.988	128
425.597	130
427.206	122
428.814	116
430.422	114
432.03	110
433.637	84
435.243	98
436.85	96
438.456	84
440.062	94
441.666	78
443.271	82
444.876	80
446.479	90
448.082	72
449.685	82
451.287	80
452.89	74
454.492	86
456.092	80
457.693	80
459.293	72
460.893	88
462.492	98
464.092	94
465.691	94
467.288	126
468.887	124
470.483	134
472.081	144
473.677	164
475.273	178
476.869	200
478.463	228
480.059	246
481.653	256
483.247	276
484.84	276
486.433	282
488.026	234
489.618	196
491.21	178
492.801	142
494.392	140
495.983	128
497.573	110
499.162	110
500.752	98
502.341	96
503.929	98
505.517	100
507.105	108
508.692	132
510.279	144
511.865	204
513.45	212
515.037	204
516.621	168
518.206	146
519.79	144
521.374	138
522.957	150
524.54	166
526.123	180
527.705	212
529.287	224
530.868	260
532.448	304
534.029	330
535.609	386
537.188	426
538.768	428
540.346	414
541.925	390
543.502	348
545.08	302
546.657	246
548.234	212
549.81	186
551.386	188
552.961	192
554.536	208
556.11	238
557.684	260
559.258	306
560.832	362
562.405	494
563.977	688
565.55	946
567.12	1360
568.692	1834
570.263	2200
571.833	2152
573.403	1882
574.973	1382
576.542	926
578.111	670
579.679	494
581.247	394
582.815	350
584.382	338
585.948	310
587.514	306
589.081	278
590.645	250
592.211	260
593.775	238
595.339	234
596.904	230
598.466	208
600.03	174
601.592	156
603.154	136
604.715	114
606.277	110
607.838	98
609.398	94
610.958	84
612.518	88
614.077	94
615.636	94
617.194	88
618.753	92
620.31	92
621.867	104
623.424	112
624.98	120
626.537	118
628.092	128
629.647	138
631.202	144
632.756	142
634.31	146
635.864	156
637.417	150
638.969	152
640.521	144
642.074	114
643.625	122
645.176	112
646.726	100
648.276	100
649.827	88
651.376	86
652.925	80
654.473	82
656.021	88
657.569	80
659.117	80
660.664	68
662.21	74
663.757	72
665.302	68
666.847	68
668.392	70
669.937	66
671.481	68
673.025	66
674.568	62
676.111	58
677.653	66
679.195	60
680.737	62
682.279	64
683.82	54
685.36	70
686.9	68
688.44	68
689.979	64
691.517	68
693.056	62
694.594	60
696.132	64
697.669	60
699.206	62
700.742	74
702.278	70
703.814	58
705.35	68
706.884	68
708.419	76
709.953	80
711.487	86
713.019	102
714.552	100
716.085	100
717.617	92
719.148	88
720.68	76
722.21	80
723.741	78
725.271	76
726.8	74
728.33	76
729.858	78
731.387	74
732.915	80
734.443	84
735.97	84
737.497	90
739.023	88
740.549	94
742.075	90
743.6	104
745.125	130
746.65	142
748.173	132
749.697	128
751.22	118
752.743	120
754.266	112
755.788	112
757.309	104
758.831	88
760.351	86
761.871	78
763.392	80
764.912	70
766.431	70
767.95	68
769.468	64
770.986	68
772.504	72
774.022	78
775.538	72
777.055	64
778.571	74
780.086	76
781.602	82
783.117	72
784.632	76
786.146	84
787.659	68
789.173	72
790.685	70
792.198	68
793.71	68
795.222	60
796.733	74
798.244	68
799.755	68
801.265	66
802.775	68
804.284	64
805.793	76
807.302	76
808.81	76
810.318	66
811.826	78
813.333	76
814.84	78
816.346	74
817.851	86
819.357	88
820.862	100
822.367	94
823.871	100
825.376	122
826.878	162
828.382	220
829.885	304
831.387	442
832.889	550
834.391	512
835.892	374
837.392	236
838.893	170
840.393	132
841.893	110
843.392	114
844.891	94
846.389	94
847.888	100
849.386	88
850.882	88
852.38	88
853.876	80
855.372	92
856.868	94
858.363	78
859.858	84
861.353	76
862.847	84
864.341	70
865.834	70
867.328	70
868.82	68
870.313	62
871.805	62
873.296	66
874.787	64
876.278	58
877.769	68
879.258	64
880.748	66
882.237	66
883.726	62
885.214	56
886.702	56
888.19	66
889.677	58
891.164	50
892.651	62
894.137	58
895.623	58
897.108	64
898.593	60
900.077	64
901.562	60
903.046	62
904.529	56
906.012	60
907.495	54
908.977	50
910.459	60
911.941	62
913.422	58
914.903	58
916.383	58
917.863	62
919.343	56
920.822	58
922.301	62
923.779	56
925.257	58
926.735	64
928.213	62
929.69	66
931.166	64
932.643	68
934.119	62
935.594	66
937.069	70
938.543	72
940.018	76
941.492	82
942.966	82
944.439	92
945.911	96
947.384	116
948.856	124
950.328	142
951.799	164
953.27	186
954.741	230
956.21	282
957.68	326
959.15	344
960.619	376
962.088	336
963.556	334
965.023	276
966.491	230
967.958	212
969.425	192
970.891	164
972.357	154
973.824	126
975.288	110
976.754	98
978.218	90
979.682	72
981.146	82
982.609	82
984.072	70
985.534	70
986.997	70
988.459	74
989.92	70
991.382	70
992.842	70
994.302	60
995.763	64
997.222	62
998.681	66
1000.14	60
1001.6	70
1003.06	62
1004.52	72
1005.97	64
1007.43	62
1008.89	66
1010.34	66
1011.8	66
1013.25	68
1014.71	72
1016.16	62
1017.62	60
1019.07	70
1020.53	80
1021.98	78
1023.43	84
1024.89	80
1026.34	80
1027.79	86
1029.24	96
1030.69	100
1032.14	100
1033.59	100
1035.04	96
1036.49	98
1037.94	98
1039.39	82
1040.84	92
1042.29	78
1043.73	86
1045.18	78
1046.63	76
1048.08	70
1049.52	74
1050.97	74
1052.41	72
1053.86	68
1055.3	70
1056.75	70
1058.19	68
1059.64	56
1061.08	66
1062.52	66
1063.96	70
1065.41	64
1066.85	62
1068.29	70
1069.73	62
1071.17	62
1072.61	62
1074.05	70
1075.49	64
1076.93	56
1078.37	66
1079.81	62
1081.25	62
1082.68	66
1084.12	60
1085.56	64
1087	66
1088.43	76
1089.87	68
1091.3	68
1092.74	74
1094.17	62
1095.61	74
1097.04	70
1098.48	62
1099.91	72
1101.34	72
1102.78	80
1104.21	100
1105.64	106
1107.07	138
1108.5	180
1109.93	252
1111.36	296
1112.8	352
1114.22	322
1115.65	250
1117.08	186
1118.51	156
1119.94	122
1121.37	120
1122.8	106
1124.22	110
1125.65	96
1127.08	90
1128.5	86
1129.93	88
1131.35	78
1132.78	86
1134.2	80
1135.63	88
1137.05	80
1138.48	70
1139.9	78
1141.32	96
1142.75	96
1144.17	80
1145.59	80
1147.01	84
1148.43	74
1149.85	68
1151.27	68
1152.69	76
1154.11	74
1155.53	80
1156.95	76
1158.37	88
1159.79	90
1161.21	94
1162.62	88
1164.04	94
1165.46	88
1166.87	84
1168.29	82
1169.71	88
1171.12	82
1172.54	92
1173.95	94
1175.37	90
1176.78	100
1178.19	102
1179.61	122
1181.02	134
1182.43	172
1183.84	198
1185.26	202
1186.67	232
1188.08	232
1189.49	206
1190.9	182
1192.31	160
1193.72	140
1195.13	142
1196.54	138
1197.95	142
1199.36	170
1200.76	166
1202.17	156
1203.58	172
1204.99	152
1206.39	140
1207.8	136
1209.2	136
1210.61	110
1212.01	102
1213.42	100
1214.82	88
1216.23	96
1217.63	90
1219.03	92
1220.44	94
1221.84	86
1223.24	86
1224.64	92
1226.05	110
1227.45	116
1228.85	130
1230.25	134
1231.65	130
1233.05	118
1234.45	112
1235.85	92
1237.25	86
1238.64	94
1240.04	86
1241.44	88
1242.84	80
1244.23	86
1245.63	80
1247.03	82
1248.42	80
1249.82	82
1251.21	76
1252.61	90
1254	90
1255.4	78
1256.79	82
1258.19	88
1259.58	80
1260.97	90
1262.36	92
1263.76	92
1265.15	104
1266.54	96
1267.93	100
1269.32	96
1270.71	96
1272.1	96
1273.49	98
1274.88	114
1276.27	100
1277.66	108
1279.05	118
1280.43	118
1281.82	128
1283.21	124
1284.6	146
1285.98	138
1287.37	142
1288.75	146
1290.14	168
1291.53	172
1292.91	184
1294.29	212
1295.68	240
1297.06	280
1298.45	336
1299.83	386
1301.21	508
1302.59	600
1303.98	722
1305.36	724
1306.74	732
1308.12	596
1309.5	486
1310.88	404
1312.26	336
1313.64	286
1315.02	254
1316.4	230
1317.78	228
1319.16	210
1320.53	194
1321.91	176
1323.29	182
1324.67	176
1326.04	182
1327.42	182
1328.79	180
1330.17	150
1331.54	168
1332.92	158
1334.29	150
1335.67	134
1337.04	142
1338.42	136
1339.79	138
1341.16	154
1342.53	146
1343.91	148
1345.28	152
1346.65	160
1348.02	156
1349.39	170
1350.76	166
1352.13	162
1353.5	160
1354.87	148
1356.24	158
1357.61	144
1358.98	146
1360.34	140
1361.71	146
1363.08	148
1364.45	140
1365.81	136
1367.18	158
1368.54	148
1369.91	174
1371.28	184
1372.64	222
1374.01	252
1375.37	318
1376.73	378
1378.1	410
1379.46	422
1380.82	406
1382.19	386
1383.55	342
1384.91	314
1386.27	272
1387.63	220
1388.99	196
1390.35	164
1391.71	152
1393.07	160
1394.43	144
1395.79	134
1397.15	128
1398.51	134
1399.87	146
1401.23	136
1402.58	132
1403.94	122
1405.3	134
1406.65	132
1408.01	132
1409.37	136
1410.72	138
1412.08	136
1413.43	142
1414.79	150
1416.14	148
1417.49	154
1418.85	144
1420.2	168
1421.55	160
1422.91	170
1424.26	162
1425.61	164
1426.96	174
1428.31	180
1429.66	176
1431.01	180
1432.36	182
1433.71	188
1435.06	190
1436.41	210
1437.76	208
1439.11	194
1440.46	206
1441.81	204
1443.15	206
1444.5	196
1445.85	182
1447.19	180
1448.54	170
1449.89	166
1451.23	168
1452.58	164
1453.92	170
1455.27	158
1456.61	150
1457.95	150
1459.3	162
1460.64	158
1461.98	154
1463.33	142
1464.67	148
1466.01	150
1467.35	140
1468.69	154
1470.03	140
1471.37	146
1472.71	148
1474.05	136
1475.39	142
1476.73	138
1478.07	150
1479.41	138
1480.75	140
1482.09	132
1483.42	148
1484.76	126
1486.1	120
1487.43	124
1488.77	122
1490.11	120
1491.44	126
1492.78	112
1494.11	112
1495.45	112
1496.78	102
1498.12	110
1499.45	112
1500.78	116
1502.11	112
1503.45	104
1504.78	122
1506.11	108
1507.44	110
1508.77	106
1510.11	118
1511.44	112
1512.77	114
1514.1	108
1515.43	116
1516.76	106
1518.08	100
1519.41	102
1520.74	98
1522.07	110
1523.4	106
1524.72	106
1526.05	110
1527.38	102
1528.7	112
1530.03	106
1531.36	100
1532.68	104
1534.01	110
1535.33	102
1536.66	106
1537.98	102
1539.3	104
1540.63	110
1541.95	104
1543.27	108
1544.6	102
1545.92	104
1547.24	108
1548.56	106
1549.88	110
1551.2	104
1552.52	96
1553.84	102
1555.17	106
1556.48	106
1557.8	102
1559.12	108
1560.44	108
1561.76	116
1563.08	114
1564.4	104
1565.71	116
1567.03	108
1568.35	110
1569.66	122
1570.98	112
1572.29	110
1573.61	124
1574.93	128
1576.24	134
1577.55	132
1578.87	142
1580.18	144
1581.5	154
1582.81	160
1584.12	164
1585.43	190
1586.75	196
1588.06	198
1589.37	228
1590.68	240
1591.99	254
1593.3	292
1594.61	324
1595.92	344
1597.23	390
1598.54	414
1599.85	414
1601.16	418
1602.47	444
1603.78	430
1605.08	426
1606.39	418
1607.7	388
1609	372
1610.31	342
1611.62	316
1612.92	286
1614.23	260
1615.53	258
1616.84	216
1618.14	202
1619.45	184
1620.75	166
1622.06	142
1623.36	146
1624.66	120
1625.96	122
1627.27	118
1628.57	114
1629.87	108
1631.17	112
1632.47	108
1633.77	94
1635.07	96
1636.37	90
1637.67	96
1638.97	86
1640.27	92
1641.57	96
1642.87	88
1644.17	92
1645.47	86
1646.76	86
1648.06	90
1649.36	86
1650.66	82
1651.95	76
1653.25	92
1654.54	90
1655.84	90
1657.13	88
1658.43	84
1659.72	80
1661.02	80
1662.31	88
1663.6	72
1664.9	82
1666.19	86
1667.48	76
1668.78	82
1670.07	70
1671.36	80
1672.65	84
1673.94	74
1675.23	76
1676.52	72
1677.81	80
1679.1	76
1680.39	80
1681.68	80
1682.97	80
1684.26	80
1685.55	76
1686.83	82
1688.12	74
1689.41	78
1690.7	78
1691.98	70
1693.27	76
1694.55	82
1695.84	78
1697.13	82
1698.41	86
1699.69	78
1700.98	76
1702.26	78