File: Jesse_Dataset_v2/Pure Raman/Polypropylene oxide/785nm/ps-ppo-6jan25-0,0000-map2_Y00_X05.txt
204.377	374
206.045	380
207.713	350
209.38	336
211.048	328
212.715	312
214.381	330
216.047	304
217.712	302
219.377	348
221.042	352
222.706	410
224.369	462
226.032	528
227.695	678
229.357	754
231.019	892
232.68	920
234.341	970
236.001	932
237.661	912
239.321	800
240.98	742
242.639	688
244.297	626
245.955	570
247.612	504
249.268	442
250.924	408
252.58	358
254.236	308
255.891	278
257.546	262
259.2	246
260.854	220
262.507	222
264.16	198
265.812	196
267.463	178
269.115	186
270.766	178
272.417	186
274.067	176
275.717	176
277.365	174
279.014	190
280.663	192
282.311	214
283.958	232
285.605	248
287.252	264
288.898	316
290.543	352
292.188	392
293.833	420
295.477	432
297.121	430
298.765	410
300.407	370
302.05	354
303.693	328
305.334	302
306.975	284
308.615	272
310.256	260
311.896	244
313.535	250
315.175	224
316.813	224
318.451	210
320.089	228
321.726	216
323.362	218
324.999	216
326.635	230
328.271	236
329.905	236
331.54	258
333.174	252
334.807	260
336.441	266
338.074	246
339.707	238
341.338	232
342.969	200
344.601	212
346.231	200
347.861	206
349.491	192
351.12	194
352.749	208
354.378	216
356.006	216
357.633	202
359.261	198
360.887	196
362.513	196
364.139	180
365.764	190
367.39	182
369.014	194
370.638	188
372.261	198
373.884	182
375.508	186
377.13	160
378.752	170
380.373	162
381.994	156
383.615	150
385.235	144
386.854	142
388.473	124
390.092	126
391.711	128
393.328	126
394.947	134
396.564	130
398.181	114
399.797	132
401.412	126
403.027	126
404.642	138
406.257	126
407.871	156
409.484	160
411.098	174
412.711	190
414.323	198
415.935	198
417.547	202
419.158	188
420.768	164
422.378	168
423.988	130
425.597	134
427.206	120
428.814	108
430.422	108
432.03	106
433.637	88
435.243	92
436.85	90
438.456	90
440.062	92
441.666	86
443.271	84
444.876	84
446.479	78
448.082	84
449.685	80
451.287	82
452.89	72
454.492	80
456.092	74
457.693	92
459.293	84
460.893	78
462.492	90
464.092	94
465.691	94
467.288	116
468.887	122
470.483	136
472.081	150
473.677	170
475.273	184
476.869	200
478.463	210
480.059	242
481.653	238
483.247	288
484.84	282
486.433	282
488.026	240
489.618	202
491.21	174
492.801	154
494.392	142
495.983	134
497.573	106
499.162	102
500.752	88
502.341	96
503.929	94
505.517	98
507.105	110
508.692	130
510.279	164
511.865	198
513.45	204
515.037	182
516.621	174
518.206	144
519.79	146
521.374	148
522.957	156
524.54	162
526.123	168
527.705	196
529.287	218
530.868	260
532.448	308
534.029	354
535.609	404
537.188	418
538.768	430
540.346	410
541.925	390
543.502	354
545.08	300
546.657	248
548.234	224
549.81	196
551.386	190
552.961	184
554.536	204
556.11	222
557.684	248
559.258	306
560.832	390
562.405	510
563.977	710
565.55	966
567.12	1352
568.692	1836
570.263	2184
571.833	2258
573.403	1870
574.973	1404
576.542	1010
578.111	670
579.679	482
581.247	378
582.815	344
584.382	338
585.948	324
587.514	296
589.081	304
590.645	276
592.211	252
593.775	256
595.339	232
596.904	234
598.466	190
600.03	174
601.592	150
603.154	134
604.715	118
606.277	94
607.838	106
609.398	94
610.958	90
612.518	100
614.077	88
615.636	90
617.194	94
618.753	88
620.31	104
621.867	102
623.424	108
624.98	120
626.537	122
628.092	126
629.647	130
631.202	140
632.756	144
634.31	142
635.864	144
637.417	142
638.969	136
640.521	132
642.074	118
643.625	128
645.176	106
646.726	116
648.276	98
649.827	102
651.376	82
652.925	88
654.473	84
656.021	80
657.569	78
659.117	78
660.664	72
662.21	66
663.757	70
665.302	72
666.847	70
668.392	62
669.937	62
671.481	66
673.025	62
674.568	60
676.111	58
677.653	62
679.195	64
680.737	60
682.279	62
683.82	62
685.36	70
686.9	64
688.44	58
689.979	66
691.517	64
693.056	58
694.594	62
696.132	58
697.669	62
699.206	68
700.742	60
702.278	60
703.814	62
705.35	64
706.884	74
708.419	78
709.953	76
711.487	94
713.019	92
714.552	102
716.085	98
717.617	88
719.148	80
720.68	76
722.21	74
723.741	72
725.271	78
726.8	80
728.33	76
729.858	80
731.387	82
732.915	78
734.443	76
735.97	88
737.497	82
739.023	84
740.549	100
742.075	98
743.6	112
745.125	122
746.65	144
748.173	150
749.697	130
751.22	120
752.743	118
754.266	122
755.788	118
757.309	102
758.831	84
760.351	82
761.871	80
763.392	72
764.912	70
766.431	76
767.95	70
769.468	66
770.986	70
772.504	72
774.022	76
775.538	74
777.055	68
778.571	70
780.086	84
781.602	82
783.117	78
784.632	66
786.146	78
787.659	68
789.173	70
790.685	64
792.198	76
793.71	70
795.222	70
796.733	72
798.244	58
799.755	68
801.265	66
802.775	68
804.284	70
805.793	72
807.302	78
808.81	78
810.318	80
811.826	74
813.333	72
814.84	70
816.346	74
817.851	80
819.357	84
820.862	90
822.367	100
823.871	112
825.376	138
826.878	164
828.382	238
829.885	336
831.387	448
832.889	568
834.391	532
835.892	386
837.392	248
838.893	170
840.393	134
841.893	108
843.392	104
844.891	100
846.389	100
847.888	96
849.386	92
850.882	90
852.38	86
853.876	92
855.372	88
856.868	86
858.363	82
859.858	88
861.353	84
862.847	72
864.341	74
865.834	74
867.328	62
868.82	68
870.313	72
871.805	66
873.296	68
874.787	58
876.278	60
877.769	70
879.258	62
880.748	64
882.237	58
883.726	54
885.214	58
886.702	60
888.19	56
889.677	58
891.164	60
892.651	68
894.137	64
895.623	56
897.108	64
898.593	50
900.077	56
901.562	58
903.046	58
904.529	54
906.012	62
907.495	58
908.977	58
910.459	56
911.941	58
913.422	56
914.903	56
916.383	62
917.863	62
919.343	66
920.822	56
922.301	58
923.779	66
925.257	60
926.735	60
928.213	62
929.69	56
931.166	64
932.643	62
934.119	72
935.594	68
937.069	78
938.543	80
940.018	68
941.492	84
942.966	82
944.439	86
945.911	100
947.384	106
948.856	136
950.328	138
951.799	180
953.27	218
954.741	228
956.21	272
957.68	336
959.15	348
960.619	358
962.088	350
963.556	322
965.023	284
966.491	246
967.958	220
969.425	194
970.891	182
972.357	154
973.824	128
975.288	118
976.754	102
978.218	88
979.682	86
981.146	82
982.609	76
984.072	76
985.534	76
986.997	66
988.459	74
989.92	74
991.382	72
992.842	76
994.302	74
995.763	64
997.222	64
998.681	68
1000.14	62
1001.6	64
1003.06	62
1004.52	62
1005.97	64
1007.43	54
1008.89	60
1010.34	62
1011.8	60
1013.25	64
1014.71	72
1016.16	72
1017.62	72
1019.07	82
1020.53	78
1021.98	82
1023.43	84
1024.89	82
1026.34	80
1027.79	86
1029.24	90
1030.69	90
1032.14	96
1033.59	100
1035.04	104
1036.49	94
1037.94	94
1039.39	86
1040.84	94
1042.29	88
1043.73	88
1045.18	84
1046.63	74
1048.08	72
1049.52	76
1050.97	74
1052.41	72
1053.86	64
1055.3	68
1056.75	68
1058.19	64
1059.64	64
1061.08	68
1062.52	72
1063.96	72
1065.41	66
1066.85	60
1068.29	64
1069.73	60
1071.17	62
1072.61	60
1074.05	68
1075.49	62
1076.93	64
1078.37	70
1079.81	70
1081.25	60
1082.68	60
1084.12	72
1085.56	70
1087	74
1088.43	68
1089.87	72
1091.3	72
1092.74	70
1094.17	64
1095.61	68
1097.04	68
1098.48	72
1099.91	76
1101.34	82
1102.78	84
1104.21	90
1105.64	104
1107.07	148
1108.5	198
1109.93	242
1111.36	318
1112.8	340
1114.22	312
1115.65	268
1117.08	208
1118.51	156
1119.94	134
1121.37	116
1122.8	110
1124.22	110
1125.65	98
1127.08	94
1128.5	94
1129.93	84
1131.35	84
1132.78	88
1134.2	92
1135.63	86
1137.05	86
1138.48	92
1139.9	88
1141.32	86
1142.75	90
1144.17	88
1145.59	80
1147.01	74
1148.43	80
1149.85	72
1151.27	78
1152.69	72
1154.11	80
1155.53	70
1156.95	74
1158.37	80
1159.79	100
1161.21	94
1162.62	92
1164.04	92
1165.46	90
1166.87	82
1168.29	84
1169.71	84
1171.12	86
1172.54	88
1173.95	100
1175.37	92
1176.78	96
1178.19	110
1179.61	136
1181.02	128
1182.43	156
1183.84	198
1185.26	190
1186.67	232
1188.08	238
1189.49	208
1190.9	174
1192.31	172
1193.72	146
1195.13	142
1196.54	140
1197.95	152
1199.36	158
1200.76	164
1202.17	164
1203.58	164
1204.99	172
1206.39	158
1207.8	150
1209.2	132
1210.61	118
1212.01	118
1213.42	92
1214.82	102
1216.23	96
1217.63	86
1219.03	84
1220.44	74
1221.84	90
1223.24	94
1224.64	100
1226.05	106
1227.45	124
1228.85	130
1230.25	132
1231.65	124
1233.05	118
1234.45	114
1235.85	106
1237.25	100
1238.64	98
1240.04	86
1241.44	88
1242.84	86
1244.23	94
1245.63	88
1247.03	92
1248.42	82
1249.82	88
1251.21	92
1252.61	78
1254	96
1255.4	92
1256.79	86
1258.19	82
1259.58	88
1260.97	92
1262.36	90
1263.76	104
1265.15	90
1266.54	102
1267.93	96
1269.32	106
1270.71	96
1272.1	96
1273.49	110
1274.88	98
1276.27	114
1277.66	112
1279.05	106
1280.43	106
1281.82	122
1283.21	136
1284.6	146
1285.98	144
1287.37	154
1288.75	156
1290.14	158
1291.53	168
1292.91	180
1294.29	214
1295.68	220
1297.06	266
1298.45	334
1299.83	412
1301.21	498
1302.59	634
1303.98	742
1305.36	784
1306.74	738
1308.12	612
1309.5	484
1310.88	406
1312.26	328
1313.64	302
1315.02	258
1316.4	224
1317.78	214
1319.16	194
1320.53	190
1321.91	186
1323.29	188
1324.67	186
1326.04	174
1327.42	190
1328.79	182
1330.17	176
1331.54	180
1332.92	154
1334.29	150
1335.67	162
1337.04	142
1338.42	154
1339.79	148
1341.16	154
1342.53	158
1343.91	142
1345.28	152
1346.65	160
1348.02	172
1349.39	164
1350.76	178
1352.13	178
1353.5	168
1354.87	164
1356.24	154
1357.61	150
1358.98	152
1360.34	160
1361.71	142
1363.08	140
1364.45	152
1365.81	152
1367.18	160
1368.54	164
1369.91	178
1371.28	204
1372.64	240
1374.01	266
1375.37	332
1376.73	370
1378.1	408
1379.46	424
1380.82	422
1382.19	390
1383.55	344
1384.91	322
1386.27	274
1387.63	246
1388.99	202
1390.35	176
1391.71	166
1393.07	152
1394.43	152
1395.79	150
1397.15	140
1398.51	148
1399.87	142
1401.23	134
1402.58	138
1403.94	134
1405.3	136
1406.65	140
1408.01	136
1409.37	144
1410.72	146
1412.08	136
1413.43	144
1414.79	144
1416.14	146
1417.49	148
1418.85	156
1420.2	168
1421.55	168
1422.91	158
1424.26	176
1425.61	188
1426.96	174
1428.31	186
1429.66	178
1431.01	184
1432.36	198
1433.71	192
1435.06	208
1436.41	206
1437.76	216
1439.11	204
1440.46	210
1441.81	210
1443.15	206
1444.5	210
1445.85	188
1447.19	178
1448.54	180
1449.89	186
1451.23	170
1452.58	172
1453.92	170
1455.27	164
1456.61	160
1457.95	160
1459.3	170
1460.64	162
1461.98	156
1463.33	158
1464.67	160
1466.01	148
1467.35	156
1468.69	152
1470.03	150
1471.37	140
1472.71	138
1474.05	154
1475.39	152
1476.73	138
1478.07	154
1479.41	150
1480.75	148
1482.09	146
1483.42	132
1484.76	130
1486.1	128
1487.43	126
1488.77	126
1490.11	130
1491.44	112
1492.78	126
1494.11	124
1495.45	104
1496.78	116
1498.12	130
1499.45	124
1500.78	116
1502.11	116
1503.45	128
1504.78	106
1506.11	118
1507.44	110
1508.77	114
1510.11	122
1511.44	106
1512.77	118
1514.1	108
1515.43	118
1516.76	116
1518.08	116
1519.41	116
1520.74	110
1522.07	114
1523.4	112
1524.72	106
1526.05	116
1527.38	110
1528.7	114
1530.03	100
1531.36	112
1532.68	116
1534.01	108
1535.33	96
1536.66	98
1537.98	108
1539.3	112
1540.63	108
1541.95	116
1543.27	112
1544.6	110
1545.92	106
1547.24	110
1548.56	104
1549.88	120
1551.2	100
1552.52	106
1553.84	106
1555.17	114
1556.48	112
1557.8	112
1559.12	116
1560.44	128
1561.76	106
1563.08	120
1564.4	114
1565.71	110
1567.03	116
1568.35	110
1569.66	114
1570.98	114
1572.29	120
1573.61	120
1574.93	120
1576.24	148
1577.55	146
1578.87	132
1580.18	152
1581.5	158
1582.81	162
1584.12	172
1585.43	190
1586.75	186
1588.06	222
1589.37	232
1590.68	256
1591.99	282
1593.3	314
1594.61	342
1595.92	350
1597.23	402
1598.54	414
1599.85	428
1601.16	464
1602.47	468
1603.78	490
1605.08	442
1606.39	424
1607.7	396
1609	370
1610.31	344
1611.62	306
1612.92	310
1614.23	264
1615.53	252
1616.84	218
1618.14	210
1619.45	184
1620.75	174
1622.06	158
1623.36	144
1624.66	144
1625.96	142
1627.27	118
1628.57	124
1629.87	114
1631.17	100
1632.47	104
1633.77	106
1635.07	106
1636.37	94
1637.67	82
1638.97	88
1640.27	100
1641.57	92
1642.87	84
1644.17	90
1645.47	88
1646.76	94
1648.06	84
1649.36	84
1650.66	88
1651.95	80
1653.25	84
1654.54	76
1655.84	84
1657.13	86
1658.43	82
1659.72	84
1661.02	84
1662.31	84
1663.6	90
1664.9	78
1666.19	82
1667.48	72
1668.78	88
1670.07	82
1671.36	78
1672.65	80
1673.94	76
1675.23	78
1676.52	78
1677.81	76
1679.1	76
1680.39	72
1681.68	74
1682.97	76
1684.26	76
1685.55	78
1686.83	82
1688.12	82
1689.41	82
1690.7	90
1691.98	86
1693.27	88
1694.55	82
1695.84	86
1697.13	76
1698.41	76
1699.69	80
1700.98	78
1702.26	82