File: Jesse_Dataset_v2/Pure Raman/Polypropylene oxide/785nm/ps-ppo-6jan25-0,0000-map2_Y04_X06.txt
204.377	388
206.045	374
207.713	352
209.38	330
211.048	338
212.715	320
214.381	326
216.047	322
217.712	320
219.377	336
221.042	384
222.706	398
224.369	488
226.032	554
227.695	648
229.357	748
231.019	898
232.68	992
234.341	960
236.001	918
237.661	894
239.321	826
240.98	726
242.639	700
244.297	594
245.955	552
247.612	498
249.268	456
250.924	402
252.58	362
254.236	320
255.891	296
257.546	280
259.2	250
260.854	216
262.507	196
264.16	200
265.812	168
267.463	180
269.115	174
270.766	168
272.417	172
274.067	168
275.717	166
277.365	182
279.014	184
280.663	188
282.311	202
283.958	224
285.605	250
287.252	280
288.898	314
290.543	366
292.188	392
293.833	416
295.477	432
297.121	440
298.765	406
300.407	390
302.05	350
303.693	322
305.334	302
306.975	272
308.615	270
310.256	240
311.896	242
313.535	236
315.175	222
316.813	238
318.451	224
320.089	220
321.726	234
323.362	230
324.999	222
326.635	230
328.271	230
329.905	250
331.54	248
333.174	242
334.807	262
336.441	254
338.074	248
339.707	230
341.338	218
342.969	214
344.601	214
346.231	198
347.861	200
349.491	192
351.12	198
352.749	204
354.378	204
356.006	220
357.633	216
359.261	196
360.887	196
362.513	180
364.139	186
365.764	190
367.39	164
369.014	182
370.638	186
372.261	188
373.884	186
375.508	188
377.13	166
378.752	158
380.373	146
381.994	144
383.615	126
385.235	132
386.854	130
388.473	136
390.092	132
391.711	126
393.328	120
394.947	108
396.564	110
398.181	128
399.797	126
401.412	116
403.027	132
404.642	142
406.257	130
407.871	142
409.484	168
411.098	164
412.711	206
414.323	182
415.935	200
417.547	190
419.158	168
420.768	160
422.378	146
423.988	134
425.597	130
427.206	116
428.814	108
430.422	102
432.03	100
433.637	98
435.243	92
436.85	84
438.456	88
440.062	80
441.666	74
443.271	80
444.876	76
446.479	80
448.082	78
449.685	80
451.287	72
452.89	76
454.492	72
456.092	74
457.693	80
459.293	80
460.893	84
462.492	82
464.092	92
465.691	96
467.288	100
468.887	122
470.483	132
472.081	148
473.677	166
475.273	180
476.869	198
478.463	230
480.059	228
481.653	248
483.247	274
484.84	274
486.433	280
488.026	238
489.618	200
491.21	182
492.801	150
494.392	136
495.983	120
497.573	110
499.162	96
500.752	94
502.341	96
503.929	98
505.517	100
507.105	104
508.692	118
510.279	152
511.865	192
513.45	222
515.037	196
516.621	158
518.206	152
519.79	150
521.374	152
522.957	156
524.54	160
526.123	184
527.705	188
529.287	224
530.868	262
532.448	288
534.029	352
535.609	398
537.188	406
538.768	452
540.346	424
541.925	384
543.502	364
545.08	286
546.657	250
548.234	210
549.81	198
551.386	190
552.961	200
554.536	196
556.11	216
557.684	252
559.258	306
560.832	398
562.405	508
563.977	686
565.55	994
567.12	1424
568.692	1938
570.263	2296
571.833	2308
573.403	1932
574.973	1430
576.542	970
578.111	670
579.679	474
581.247	374
582.815	348
584.382	336
585.948	322
587.514	310
589.081	290
590.645	250
592.211	256
593.775	266
595.339	228
596.904	220
598.466	200
600.03	150
601.592	150
603.154	126
604.715	120
606.277	110
607.838	96
609.398	92
610.958	94
612.518	92
614.077	90
615.636	78
617.194	84
618.753	94
620.31	90
621.867	108
623.424	106
624.98	112
626.537	118
628.092	128
629.647	134
631.202	144
632.756	144
634.31	152
635.864	138
637.417	144
638.969	138
640.521	132
642.074	122
643.625	108
645.176	102
646.726	110
648.276	102
649.827	92
651.376	86
652.925	86
654.473	80
656.021	88
657.569	82
659.117	78
660.664	72
662.21	64
663.757	66
665.302	64
666.847	66
668.392	66
669.937	58
671.481	58
673.025	64
674.568	54
676.111	54
677.653	58
679.195	62
680.737	54
682.279	62
683.82	62
685.36	58
686.9	58
688.44	56
689.979	52
691.517	56
693.056	58
694.594	56
696.132	56
697.669	52
699.206	56
700.742	56
702.278	56
703.814	56
705.35	60
706.884	72
708.419	70
709.953	76
711.487	80
713.019	92
714.552	94
716.085	96
717.617	94
719.148	88
720.68	74
722.21	74
723.741	78
725.271	62
726.8	64
728.33	74
729.858	62
731.387	78
732.915	74
734.443	76
735.97	72
737.497	78
739.023	84
740.549	86
742.075	92
743.6	104
745.125	130
746.65	140
748.173	134
749.697	140
751.22	130
752.743	110
754.266	118
755.788	104
757.309	104
758.831	94
760.351	76
761.871	70
763.392	74
764.912	64
766.431	70
767.95	70
769.468	74
770.986	68
772.504	64
774.022	70
775.538	72
777.055	70
778.571	76
780.086	76
781.602	70
783.117	78
784.632	72
786.146	70
787.659	72
789.173	66
790.685	64
792.198	62
793.71	66
795.222	60
796.733	62
798.244	64
799.755	66
801.265	64
802.775	60
804.284	68
805.793	74
807.302	76
808.81	72
810.318	64
811.826	64
813.333	74
814.84	76
816.346	72
817.851	70
819.357	88
820.862	80
822.367	88
823.871	102
825.376	128
826.878	178
828.382	232
829.885	330
831.387	494
832.889	584
834.391	568
835.892	394
837.392	240
838.893	158
840.393	140
841.893	116
843.392	104
844.891	102
846.389	94
847.888	98
849.386	98
850.882	88
852.38	86
853.876	86
855.372	78
856.868	86
858.363	76
859.858	74
861.353	82
862.847	76
864.341	74
865.834	74
867.328	70
868.82	74
870.313	60
871.805	68
873.296	58
874.787	56
876.278	64
877.769	56
879.258	58
880.748	58
882.237	58
883.726	58
885.214	56
886.702	62
888.19	54
889.677	56
891.164	50
892.651	52
894.137	54
895.623	54
897.108	54
898.593	54
900.077	58
901.562	50
903.046	56
904.529	60
906.012	50
907.495	50
908.977	48
910.459	56
911.941	50
913.422	60
914.903	52
916.383	54
917.863	54
919.343	60
920.822	58
922.301	50
923.779	60
925.257	62
926.735	62
928.213	58
929.69	60
931.166	62
932.643	66
934.119	68
935.594	66
937.069	70
938.543	72
940.018	72
941.492	72
942.966	82
944.439	80
945.911	96
947.384	108
948.856	128
950.328	148
951.799	170
953.27	206
954.741	250
956.21	282
957.68	344
959.15	386
960.619	380
962.088	328
963.556	314
965.023	284
966.491	248
967.958	212
969.425	212
970.891	178
972.357	148
973.824	130
975.288	108
976.754	108
978.218	86
979.682	78
981.146	84
982.609	70
984.072	70
985.534	70
986.997	70
988.459	62
989.92	74
991.382	74
992.842	74
994.302	66
995.763	56
997.222	62
998.681	58
1000.14	62
1001.6	64
1003.06	60
1004.52	62
1005.97	64
1007.43	60
1008.89	64
1010.34	64
1011.8	62
1013.25	64
1014.71	68
1016.16	66
1017.62	66
1019.07	66
1020.53	78
1021.98	82
1023.43	78
1024.89	80
1026.34	82
1027.79	84
1029.24	90
1030.69	88
1032.14	100
1033.59	88
1035.04	92
1036.49	90
1037.94	82
1039.39	88
1040.84	84
1042.29	82
1043.73	72
1045.18	76
1046.63	70
1048.08	76
1049.52	70
1050.97	64
1052.41	70
1053.86	60
1055.3	68
1056.75	68
1058.19	60
1059.64	64
1061.08	60
1062.52	62
1063.96	64
1065.41	62
1066.85	62
1068.29	60
1069.73	60
1071.17	56
1072.61	54
1074.05	64
1075.49	60
1076.93	60
1078.37	66
1079.81	58
1081.25	58
1082.68	60
1084.12	62
1085.56	64
1087	62
1088.43	62
1089.87	68
1091.3	64
1092.74	68
1094.17	64
1095.61	64
1097.04	72
1098.48	74
1099.91	62
1101.34	80
1102.78	78
1104.21	86
1105.64	106
1107.07	138
1108.5	194
1109.93	252
1111.36	322
1112.8	352
1114.22	332
1115.65	238
1117.08	190
1118.51	150
1119.94	128
1121.37	112
1122.8	96
1124.22	106
1125.65	94
1127.08	90
1128.5	82
1129.93	76
1131.35	80
1132.78	68
1134.2	84
1135.63	82
1137.05	78
1138.48	76
1139.9	80
1141.32	86
1142.75	78
1144.17	88
1145.59	76
1147.01	72
1148.43	68
1149.85	74
1151.27	72
1152.69	70
1154.11	72
1155.53	76
1156.95	84
1158.37	78
1159.79	82
1161.21	86
1162.62	90
1164.04	86
1165.46	84
1166.87	88
1168.29	88
1169.71	74
1171.12	90
1172.54	86
1173.95	86
1175.37	92
1176.78	104
1178.19	96
1179.61	116
1181.02	136
1182.43	166
1183.84	182
1185.26	224
1186.67	230
1188.08	240
1189.49	214
1190.9	184
1192.31	158
1193.72	156
1195.13	146
1196.54	136
1197.95	136
1199.36	152
1200.76	160
1202.17	172
1203.58	156
1204.99	168
1206.39	148
1207.8	144
1209.2	124
1210.61	106
1212.01	106
1213.42	98
1214.82	92
1216.23	88
1217.63	90
1219.03	78
1220.44	90
1221.84	90
1223.24	82
1224.64	98
1226.05	106
1227.45	116
1228.85	134
1230.25	132
1231.65	128
1233.05	122
1234.45	110
1235.85	98
1237.25	100
1238.64	96
1240.04	86
1241.44	84
1242.84	78
1244.23	90
1245.63	74
1247.03	78
1248.42	82
1249.82	82
1251.21	86
1252.61	84
1254	82
1255.4	86
1256.79	86
1258.19	82
1259.58	90
1260.97	90
1262.36	90
1263.76	94
1265.15	92
1266.54	94
1267.93	82
1269.32	96
1270.71	94
1272.1	92
1273.49	104
1274.88	102
1276.27	104
1277.66	110
1279.05	116
1280.43	118
1281.82	118
1283.21	120
1284.6	144
1285.98	142
1287.37	150
1288.75	150
1290.14	158
1291.53	174
1292.91	194
1294.29	202
1295.68	236
1297.06	278
1298.45	342
1299.83	408
1301.21	528
1302.59	656
1303.98	758
1305.36	776
1306.74	746
1308.12	632
1309.5	512
1310.88	402
1312.26	338
1313.64	288
1315.02	252
1316.4	240
1317.78	224
1319.16	204
1320.53	190
1321.91	182
1323.29	182
1324.67	180
1326.04	172
1327.42	170
1328.79	182
1330.17	164
1331.54	166
1332.92	156
1334.29	146
1335.67	146
1337.04	140
1338.42	140
1339.79	146
1341.16	158
1342.53	156
1343.91	140
1345.28	146
1346.65	160
1348.02	162
1349.39	162
1350.76	168
1352.13	164
1353.5	158
1354.87	160
1356.24	142
1357.61	152
1358.98	138
1360.34	146
1361.71	140
1363.08	158
1364.45	142
1365.81	140
1367.18	138
1368.54	164
1369.91	184
1371.28	188
1372.64	240
1374.01	268
1375.37	326
1376.73	380
1378.1	420
1379.46	426
1380.82	400
1382.19	390
1383.55	358
1384.91	312
1386.27	268
1387.63	226
1388.99	188
1390.35	168
1391.71	156
1393.07	146
1394.43	140
1395.79	146
1397.15	136
1398.51	140
1399.87	136
1401.23	126
1402.58	130
1403.94	142
1405.3	128
1406.65	134
1408.01	142
1409.37	132
1410.72	126
1412.08	128
1413.43	140
1414.79	138
1416.14	142
1417.49	158
1418.85	160
1420.2	160
1421.55	156
1422.91	172
1424.26	178
1425.61	182
1426.96	174
1428.31	164
1429.66	182
1431.01	182
1432.36	196
1433.71	188
1435.06	184
1436.41	212
1437.76	200
1439.11	210
1440.46	208
1441.81	180
1443.15	204
1444.5	190
1445.85	188
1447.19	182
1448.54	176
1449.89	176
1451.23	160
1452.58	160
1453.92	166
1455.27	150
1456.61	152
1457.95	162
1459.3	168
1460.64	154
1461.98	158
1463.33	132
1464.67	146
1466.01	146
1467.35	156
1468.69	156
1470.03	148
1471.37	148
1472.71	146
1474.05	154
1475.39	150
1476.73	146
1478.07	146
1479.41	144
1480.75	142
1482.09	142
1483.42	130
1484.76	136
1486.1	114
1487.43	124
1488.77	124
1490.11	108
1491.44	120
1492.78	120
1494.11	116
1495.45	114
1496.78	124
1498.12	114
1499.45	114
1500.78	106
1502.11	98
1503.45	114
1504.78	118
1506.11	110
1507.44	114
1508.77	108
1510.11	108
1511.44	106
1512.77	120
1514.1	100
1515.43	102
1516.76	122
1518.08	118
1519.41	104
1520.74	106
1522.07	106
1523.4	116
1524.72	110
1526.05	110
1527.38	114
1528.7	104
1530.03	104
1531.36	98
1532.68	104
1534.01	96
1535.33	102
1536.66	102
1537.98	104
1539.3	114
1540.63	100
1541.95	106
1543.27	106
1544.6	96
1545.92	112
1547.24	102
1548.56	102
1549.88	110
1551.2	114
1552.52	98
1553.84	104
1555.17	104
1556.48	118
1557.8	100
1559.12	96
1560.44	124
1561.76	108
1563.08	116
1564.4	112
1565.71	110
1567.03	116
1568.35	116
1569.66	118
1570.98	116
1572.29	112
1573.61	132
1574.93	126
1576.24	128
1577.55	134
1578.87	132
1580.18	154
1581.5	160
1582.81	164
1584.12	172
1585.43	176
1586.75	208
1588.06	204
1589.37	236
1590.68	262
1591.99	286
1593.3	308
1594.61	326
1595.92	368
1597.23	402
1598.54	414
1599.85	472
1601.16	434
1602.47	486
1603.78	458
1605.08	430
1606.39	436
1607.7	402
1609	394
1610.31	328
1611.62	318
1612.92	296
1614.23	268
1615.53	248
1616.84	216
1618.14	212
1619.45	172
1620.75	160
1622.06	142
1623.36	136
1624.66	134
1625.96	120
1627.27	106
1628.57	114
1629.87	102
1631.17	110
1632.47	102
1633.77	104
1635.07	98
1636.37	92
1637.67	88
1638.97	98
1640.27	78
1641.57	98
1642.87	88
1644.17	92
1645.47	86
1646.76	88
1648.06	78
1649.36	86
1650.66	88
1651.95	90
1653.25	78
1654.54	80
1655.84	80
1657.13	82
1658.43	78
1659.72	76
1661.02	78
1662.31	80
1663.6	76
1664.9	72
1666.19	66
1667.48	82
1668.78	72
1670.07	78
1671.36	78
1672.65	74
1673.94	62
1675.23	70
1676.52	72
1677.81	72
1679.1	80
1680.39	84
1681.68	74
1682.97	80
1684.26	70
1685.55	86
1686.83	76
1688.12	88
1689.41	82
1690.7	74
1691.98	74
1693.27	82
1694.55	76
1695.84	74
1697.13	80
1698.41	88
1699.69	74
1700.98	74
1702.26	70