File: Jesse_Dataset_v2/Pure Raman/Polypropylene oxide/785nm/ps-ppo-6jan25-0,0000-map2_Y06_X03.txt
204.377	388
206.045	386
207.713	376
209.38	358
211.048	344
212.715	326
214.381	340
216.047	310
217.712	310
219.377	350
221.042	376
222.706	404
224.369	444
226.032	544
227.695	670
229.357	792
231.019	882
232.68	956
234.341	980
236.001	970
237.661	864
239.321	816
240.98	766
242.639	700
244.297	630
245.955	566
247.612	500
249.268	430
250.924	394
252.58	362
254.236	316
255.891	294
257.546	260
259.2	242
260.854	230
262.507	214
264.16	192
265.812	182
267.463	186
269.115	186
270.766	174
272.417	178
274.067	176
275.717	174
277.365	178
279.014	194
280.663	196
282.311	204
283.958	228
285.605	252
287.252	284
288.898	322
290.543	368
292.188	408
293.833	414
295.477	440
297.121	436
298.765	392
300.407	372
302.05	350
303.693	344
305.334	304
306.975	286
308.615	278
310.256	264
311.896	252
313.535	242
315.175	238
316.813	238
318.451	236
320.089	232
321.726	228
323.362	222
324.999	228
326.635	220
328.271	236
329.905	254
331.54	270
333.174	276
334.807	248
336.441	258
338.074	234
339.707	238
341.338	216
342.969	210
344.601	224
346.231	210
347.861	194
349.491	206
351.12	214
352.749	212
354.378	228
356.006	202
357.633	214
359.261	202
360.887	192
362.513	184
364.139	196
365.764	190
367.39	190
369.014	178
370.638	206
372.261	190
373.884	184
375.508	184
377.13	176
378.752	180
380.373	154
381.994	140
383.615	146
385.235	150
386.854	130
388.473	120
390.092	132
391.711	130
393.328	128
394.947	122
396.564	122
398.181	116
399.797	126
401.412	124
403.027	134
404.642	134
406.257	132
407.871	156
409.484	170
411.098	192
412.711	198
414.323	208
415.935	204
417.547	204
419.158	176
420.768	162
422.378	148
423.988	136
425.597	124
427.206	122
428.814	116
430.422	112
432.03	104
433.637	90
435.243	102
436.85	92
438.456	80
440.062	74
441.666	80
443.271	82
444.876	80
446.479	82
448.082	84
449.685	84
451.287	76
452.89	76
454.492	84
456.092	82
457.693	78
459.293	80
460.893	92
462.492	94
464.092	94
465.691	106
467.288	108
468.887	112
470.483	148
472.081	160
473.677	158
475.273	188
476.869	208
478.463	218
480.059	256
481.653	268
483.247	270
484.84	304
486.433	270
488.026	240
489.618	192
491.21	172
492.801	158
494.392	152
495.983	134
497.573	112
499.162	100
500.752	106
502.341	96
503.929	104
505.517	106
507.105	118
508.692	136
510.279	154
511.865	208
513.45	212
515.037	204
516.621	164
518.206	154
519.79	148
521.374	138
522.957	158
524.54	170
526.123	172
527.705	196
529.287	218
530.868	260
532.448	300
534.029	354
535.609	402
537.188	420
538.768	436
540.346	426
541.925	418
543.502	338
545.08	296
546.657	274
548.234	214
549.81	204
551.386	200
552.961	206
554.536	220
556.11	224
557.684	260
559.258	322
560.832	414
562.405	502
563.977	684
565.55	1010
567.12	1390
568.692	1886
570.263	2246
571.833	2280
573.403	1908
574.973	1402
576.542	942
578.111	658
579.679	490
581.247	368
582.815	348
584.382	340
585.948	328
587.514	318
589.081	298
590.645	270
592.211	266
593.775	258
595.339	234
596.904	236
598.466	196
600.03	176
601.592	150
603.154	142
604.715	112
606.277	104
607.838	94
609.398	92
610.958	94
612.518	88
614.077	86
615.636	92
617.194	88
618.753	88
620.31	102
621.867	98
623.424	104
624.98	110
626.537	116
628.092	122
629.647	132
631.202	142
632.756	132
634.31	154
635.864	148
637.417	148
638.969	148
640.521	126
642.074	124
643.625	116
645.176	120
646.726	94
648.276	104
649.827	86
651.376	96
652.925	84
654.473	74
656.021	88
657.569	82
659.117	68
660.664	78
662.21	70
663.757	66
665.302	70
666.847	62
668.392	64
669.937	68
671.481	68
673.025	66
674.568	58
676.111	62
677.653	62
679.195	60
680.737	66
682.279	60
683.82	62
685.36	60
686.9	60
688.44	60
689.979	56
691.517	60
693.056	56
694.594	56
696.132	60
697.669	56
699.206	62
700.742	54
702.278	62
703.814	64
705.35	72
706.884	70
708.419	72
709.953	88
711.487	86
713.019	92
714.552	98
716.085	98
717.617	94
719.148	86
720.68	74
722.21	76
723.741	78
725.271	66
726.8	74
728.33	70
729.858	76
731.387	68
732.915	76
734.443	86
735.97	78
737.497	80
739.023	82
740.549	100
742.075	100
743.6	104
745.125	134
746.65	146
748.173	144
749.697	136
751.22	108
752.743	112
754.266	120
755.788	108
757.309	104
758.831	98
760.351	78
761.871	78
763.392	78
764.912	64
766.431	64
767.95	62
769.468	66
770.986	64
772.504	74
774.022	68
775.538	78
777.055	76
778.571	82
780.086	78
781.602	78
783.117	76
784.632	70
786.146	78
787.659	72
789.173	70
790.685	70
792.198	64
793.71	66
795.222	66
796.733	60
798.244	58
799.755	68
801.265	70
802.775	74
804.284	80
805.793	74
807.302	74
808.81	70
810.318	78
811.826	80
813.333	70
814.84	74
816.346	82
817.851	82
819.357	84
820.862	86
822.367	102
823.871	98
825.376	128
826.878	168
828.382	238
829.885	334
831.387	474
832.889	570
834.391	538
835.892	374
837.392	250
838.893	172
840.393	128
841.893	114
843.392	104
844.891	104
846.389	98
847.888	84
849.386	100
850.882	88
852.38	90
853.876	96
855.372	88
856.868	82
858.363	80
859.858	86
861.353	82
862.847	76
864.341	74
865.834	66
867.328	66
868.82	58
870.313	70
871.805	64
873.296	66
874.787	64
876.278	56
877.769	66
879.258	62
880.748	64
882.237	62
883.726	60
885.214	60
886.702	58
888.19	62
889.677	60
891.164	56
892.651	56
894.137	54
895.623	58
897.108	58
898.593	56
900.077	60
901.562	54
903.046	54
904.529	56
906.012	64
907.495	62
908.977	62
910.459	58
911.941	52
913.422	52
914.903	54
916.383	60
917.863	54
919.343	52
920.822	62
922.301	60
923.779	56
925.257	54
926.735	56
928.213	62
929.69	58
931.166	64
932.643	62
934.119	72
935.594	72
937.069	62
938.543	74
940.018	78
941.492	88
942.966	88
944.439	84
945.911	102
947.384	114
948.856	116
950.328	154
951.799	176
953.27	208
954.741	260
956.21	280
957.68	342
959.15	388
960.619	362
962.088	362
963.556	338
965.023	288
966.491	256
967.958	224
969.425	210
970.891	164
972.357	158
973.824	134
975.288	114
976.754	100
978.218	88
979.682	92
981.146	80
982.609	66
984.072	72
985.534	64
986.997	64
988.459	78
989.92	80
991.382	68
992.842	76
994.302	72
995.763	60
997.222	62
998.681	56
1000.14	70
1001.6	66
1003.06	66
1004.52	64
1005.97	56
1007.43	62
1008.89	64
1010.34	66
1011.8	62
1013.25	64
1014.71	66
1016.16	70
1017.62	70
1019.07	74
1020.53	76
1021.98	84
1023.43	82
1024.89	84
1026.34	86
1027.79	92
1029.24	88
1030.69	86
1032.14	96
1033.59	96
1035.04	96
1036.49	82
1037.94	98
1039.39	80
1040.84	90
1042.29	86
1043.73	78
1045.18	76
1046.63	78
1048.08	64
1049.52	76
1050.97	68
1052.41	70
1053.86	66
1055.3	68
1056.75	56
1058.19	70
1059.64	62
1061.08	72
1062.52	64
1063.96	62
1065.41	60
1066.85	62
1068.29	58
1069.73	68
1071.17	66
1072.61	62
1074.05	64
1075.49	62
1076.93	74
1078.37	68
1079.81	68
1081.25	66
1082.68	62
1084.12	68
1085.56	64
1087	62
1088.43	68
1089.87	68
1091.3	68
1092.74	76
1094.17	70
1095.61	70
1097.04	68
1098.48	66
1099.91	78
1101.34	82
1102.78	86
1104.21	98
1105.64	110
1107.07	140
1108.5	202
1109.93	260
1111.36	324
1112.8	360
1114.22	314
1115.65	246
1117.08	196
1118.51	148
1119.94	124
1121.37	122
1122.8	110
1124.22	102
1125.65	98
1127.08	88
1128.5	86
1129.93	92
1131.35	88
1132.78	82
1134.2	84
1135.63	90
1137.05	84
1138.48	82
1139.9	70
1141.32	90
1142.75	88
1144.17	82
1145.59	82
1147.01	74
1148.43	74
1149.85	82
1151.27	74
1152.69	78
1154.11	70
1155.53	76
1156.95	80
1158.37	80
1159.79	96
1161.21	102
1162.62	92
1164.04	90
1165.46	84
1166.87	88
1168.29	86
1169.71	84
1171.12	86
1172.54	88
1173.95	90
1175.37	104
1176.78	104
1178.19	110
1179.61	108
1181.02	132
1182.43	162
1183.84	186
1185.26	220
1186.67	242
1188.08	230
1189.49	210
1190.9	174
1192.31	172
1193.72	150
1195.13	142
1196.54	144
1197.95	160
1199.36	158
1200.76	162
1202.17	158
1203.58	160
1204.99	168
1206.39	148
1207.8	144
1209.2	132
1210.61	112
1212.01	104
1213.42	104
1214.82	94
1216.23	90
1217.63	92
1219.03	92
1220.44	92
1221.84	92
1223.24	92
1224.64	106
1226.05	108
1227.45	128
1228.85	136
1230.25	132
1231.65	124
1233.05	120
1234.45	108
1235.85	108
1237.25	100
1238.64	90
1240.04	86
1241.44	84
1242.84	88
1244.23	76
1245.63	90
1247.03	76
1248.42	82
1249.82	90
1251.21	82
1252.61	80
1254	86
1255.4	84
1256.79	86
1258.19	86
1259.58	86
1260.97	88
1262.36	92
1263.76	90
1265.15	96
1266.54	106
1267.93	94
1269.32	98
1270.71	104
1272.1	94
1273.49	98
1274.88	98
1276.27	98
1277.66	108
1279.05	120
1280.43	114
1281.82	120
1283.21	136
1284.6	136
1285.98	140
1287.37	156
1288.75	154
1290.14	168
1291.53	174
1292.91	180
1294.29	198
1295.68	234
1297.06	298
1298.45	334
1299.83	432
1301.21	528
1302.59	648
1303.98	738
1305.36	784
1306.74	740
1308.12	620
1309.5	510
1310.88	406
1312.26	318
1313.64	276
1315.02	258
1316.4	236
1317.78	214
1319.16	192
1320.53	188
1321.91	184
1323.29	168
1324.67	174
1326.04	184
1327.42	178
1328.79	162
1330.17	168
1331.54	162
1332.92	154
1334.29	154
1335.67	144
1337.04	152
1338.42	140
1339.79	144
1341.16	148
1342.53	144
1343.91	174
1345.28	154
1346.65	150
1348.02	160
1349.39	162
1350.76	166
1352.13	170
1353.5	154
1354.87	160
1356.24	152
1357.61	148
1358.98	142
1360.34	144
1361.71	146
1363.08	142
1364.45	154
1365.81	158
1367.18	150
1368.54	166
1369.91	162
1371.28	210
1372.64	208
1374.01	290
1375.37	338
1376.73	394
1378.1	422
1379.46	420
1380.82	428
1382.19	386
1383.55	356
1384.91	300
1386.27	264
1387.63	240
1388.99	188
1390.35	170
1391.71	162
1393.07	142
1394.43	142
1395.79	132
1397.15	134
1398.51	138
1399.87	134
1401.23	126
1402.58	132
1403.94	126
1405.3	140
1406.65	140
1408.01	140
1409.37	136
1410.72	130
1412.08	130
1413.43	128
1414.79	142
1416.14	138
1417.49	152
1418.85	144
1420.2	158
1421.55	162
1422.91	174
1424.26	174
1425.61	182
1426.96	174
1428.31	170
1429.66	186
1431.01	192
1432.36	192
1433.71	192
1435.06	204
1436.41	192
1437.76	220
1439.11	208
1440.46	216
1441.81	206
1443.15	210
1444.5	202
1445.85	188
1447.19	178
1448.54	178
1449.89	182
1451.23	164
1452.58	178
1453.92	158
1455.27	160
1456.61	158
1457.95	164
1459.3	166
1460.64	160
1461.98	160
1463.33	164
1464.67	158
1466.01	152
1467.35	152
1468.69	148
1470.03	146
1471.37	152
1472.71	140
1474.05	140
1475.39	138
1476.73	144
1478.07	146
1479.41	146
1480.75	138
1482.09	130
1483.42	132
1484.76	126
1486.1	122
1487.43	118
1488.77	110
1490.11	130
1491.44	120
1492.78	114
1494.11	114
1495.45	118
1496.78	116
1498.12	112
1499.45	100
1500.78	110
1502.11	108
1503.45	112
1504.78	108
1506.11	110
1507.44	106
1508.77	116
1510.11	116
1511.44	114
1512.77	114
1514.1	116
1515.43	122
1516.76	106
1518.08	120
1519.41	100
1520.74	112
1522.07	112
1523.4	100
1524.72	114
1526.05	116
1527.38	112
1528.7	100
1530.03	106
1531.36	108
1532.68	108
1534.01	104
1535.33	106
1536.66	108
1537.98	108
1539.3	108
1540.63	104
1541.95	104
1543.27	120
1544.6	106
1545.92	108
1547.24	104
1548.56	104
1549.88	108
1551.2	98
1552.52	110
1553.84	112
1555.17	102
1556.48	102
1557.8	106
1559.12	114
1560.44	104
1561.76	106
1563.08	118
1564.4	104
1565.71	102
1567.03	116
1568.35	120
1569.66	118
1570.98	114
1572.29	124
1573.61	126
1574.93	132
1576.24	124
1577.55	136
1578.87	134
1580.18	164
1581.5	164
1582.81	156
1584.12	170
1585.43	186
1586.75	198
1588.06	218
1589.37	238
1590.68	258
1591.99	284
1593.3	306
1594.61	316
1595.92	358
1597.23	412
1598.54	440
1599.85	448
1601.16	468
1602.47	470
1603.78	472
1605.08	440
1606.39	418
1607.7	372
1609	378
1610.31	368
1611.62	334
1612.92	298
1614.23	280
1615.53	242
1616.84	226
1618.14	216
1619.45	184
1620.75	174
1622.06	160
1623.36	136
1624.66	132
1625.96	118
1627.27	124
1628.57	116
1629.87	106
1631.17	110
1632.47	96
1633.77	100
1635.07	92
1636.37	92
1637.67	100
1638.97	86
1640.27	92
1641.57	84
1642.87	88
1644.17	84
1645.47	86
1646.76	86
1648.06	84
1649.36	82
1650.66	90
1651.95	72
1653.25	78
1654.54	86
1655.84	72
1657.13	82
1658.43	86
1659.72	78
1661.02	84
1662.31	78
1663.6	80
1664.9	76
1666.19	82
1667.48	76
1668.78	80
1670.07	78
1671.36	74
1672.65	68
1673.94	80
1675.23	76
1676.52	78
1677.81	80
1679.1	78
1680.39	80
1681.68	78
1682.97	76
1684.26	74
1685.55	70
1686.83	74
1688.12	80
1689.41	84
1690.7	82
1691.98	78
1693.27	78
1694.55	80
1695.84	88
1697.13	78
1698.41	74
1699.69	84
1700.98	70
1702.26	76