File: Jesse_Dataset_v2/Pure Raman/Polypropylene oxide/785nm/ps-ppo-6jan25-0,0000-map2_Y02_X07.txt
204.377	358
206.045	352
207.713	358
209.38	340
211.048	320
212.715	322
214.381	310
216.047	326
217.712	308
219.377	330
221.042	364
222.706	412
224.369	442
226.032	516
227.695	624
229.357	750
231.019	872
232.68	932
234.341	954
236.001	922
237.661	870
239.321	794
240.98	728
242.639	680
244.297	602
245.955	536
247.612	494
249.268	420
250.924	390
252.58	354
254.236	332
255.891	282
257.546	248
259.2	236
260.854	226
262.507	206
264.16	202
265.812	188
267.463	172
269.115	180
270.766	180
272.417	164
274.067	178
275.717	166
277.365	170
279.014	184
280.663	182
282.311	212
283.958	226
285.605	246
287.252	274
288.898	318
290.543	366
292.188	368
293.833	438
295.477	414
297.121	408
298.765	382
300.407	362
302.05	358
303.693	330
305.334	294
306.975	274
308.615	270
310.256	262
311.896	232
313.535	238
315.175	226
316.813	240
318.451	226
320.089	224
321.726	216
323.362	226
324.999	222
326.635	238
328.271	242
329.905	242
331.54	250
333.174	266
334.807	250
336.441	240
338.074	230
339.707	230
341.338	220
342.969	216
344.601	214
346.231	200
347.861	204
349.491	212
351.12	204
352.749	206
354.378	206
356.006	206
357.633	200
359.261	192
360.887	188
362.513	182
364.139	182
365.764	182
367.39	188
369.014	180
370.638	186
372.261	182
373.884	176
375.508	180
377.13	184
378.752	158
380.373	140
381.994	150
383.615	144
385.235	126
386.854	130
388.473	132
390.092	130
391.711	114
393.328	128
394.947	132
396.564	122
398.181	130
399.797	126
401.412	132
403.027	128
404.642	132
406.257	150
407.871	158
409.484	164
411.098	188
412.711	204
414.323	212
415.935	220
417.547	184
419.158	170
420.768	158
422.378	154
423.988	128
425.597	118
427.206	122
428.814	100
430.422	106
432.03	102
433.637	100
435.243	90
436.85	94
438.456	82
440.062	84
441.666	86
443.271	80
444.876	74
446.479	86
448.082	78
449.685	70
451.287	76
452.89	76
454.492	80
456.092	86
457.693	82
459.293	84
460.893	80
462.492	90
464.092	86
465.691	100
467.288	106
468.887	122
470.483	126
472.081	152
473.677	164
475.273	174
476.869	202
478.463	206
480.059	226
481.653	244
483.247	258
484.84	284
486.433	270
488.026	234
489.618	192
491.21	168
492.801	158
494.392	146
495.983	122
497.573	110
499.162	106
500.752	92
502.341	96
503.929	106
505.517	94
507.105	116
508.692	126
510.279	150
511.865	186
513.45	208
515.037	202
516.621	180
518.206	128
519.79	142
521.374	150
522.957	146
524.54	156
526.123	160
527.705	202
529.287	226
530.868	258
532.448	298
534.029	336
535.609	382
537.188	418
538.768	422
540.346	432
541.925	394
543.502	362
545.08	300
546.657	252
548.234	216
549.81	196
551.386	188
552.961	188
554.536	200
556.11	216
557.684	260
559.258	308
560.832	394
562.405	510
563.977	680
565.55	982
567.12	1378
568.692	1858
570.263	2184
571.833	2282
573.403	1908
574.973	1398
576.542	976
578.111	680
579.679	466
581.247	384
582.815	336
584.382	324
585.948	322
587.514	292
589.081	278
590.645	268
592.211	264
593.775	244
595.339	244
596.904	224
598.466	196
600.03	186
601.592	154
603.154	130
604.715	112
606.277	102
607.838	102
609.398	98
610.958	96
612.518	94
614.077	78
615.636	82
617.194	84
618.753	96
620.31	100
621.867	98
623.424	106
624.98	106
626.537	120
628.092	124
629.647	126
631.202	138
632.756	148
634.31	150
635.864	140
637.417	148
638.969	144
640.521	138
642.074	122
643.625	104
645.176	106
646.726	108
648.276	100
649.827	92
651.376	88
652.925	86
654.473	86
656.021	82
657.569	76
659.117	82
660.664	72
662.21	72
663.757	68
665.302	66
666.847	72
668.392	60
669.937	64
671.481	58
673.025	58
674.568	62
676.111	64
677.653	64
679.195	58
680.737	54
682.279	60
683.82	62
685.36	62
686.9	64
688.44	60
689.979	70
691.517	62
693.056	60
694.594	60
696.132	60
697.669	62
699.206	56
700.742	58
702.278	56
703.814	54
705.35	72
706.884	72
708.419	72
709.953	78
711.487	78
713.019	94
714.552	104
716.085	102
717.617	100
719.148	82
720.68	84
722.21	82
723.741	70
725.271	82
726.8	84
728.33	76
729.858	84
731.387	76
732.915	80
734.443	72
735.97	82
737.497	80
739.023	80
740.549	80
742.075	98
743.6	106
745.125	122
746.65	138
748.173	144
749.697	120
751.22	120
752.743	114
754.266	120
755.788	116
757.309	100
758.831	80
760.351	80
761.871	66
763.392	70
764.912	70
766.431	68
767.95	66
769.468	70
770.986	70
772.504	64
774.022	70
775.538	70
777.055	76
778.571	76
780.086	80
781.602	82
783.117	72
784.632	74
786.146	74
787.659	76
789.173	72
790.685	72
792.198	64
793.71	72
795.222	64
796.733	68
798.244	68
799.755	64
801.265	70
802.775	66
804.284	74
805.793	76
807.302	76
808.81	72
810.318	72
811.826	66
813.333	78
814.84	78
816.346	82
817.851	74
819.357	82
820.862	80
822.367	102
823.871	100
825.376	130
826.878	178
828.382	230
829.885	324
831.387	474
832.889	562
834.391	526
835.892	376
837.392	242
838.893	168
840.393	122
841.893	120
843.392	100
844.891	96
846.389	88
847.888	98
849.386	96
850.882	90
852.38	88
853.876	92
855.372	86
856.868	86
858.363	78
859.858	82
861.353	74
862.847	82
864.341	78
865.834	70
867.328	66
868.82	66
870.313	70
871.805	56
873.296	64
874.787	58
876.278	64
877.769	58
879.258	62
880.748	58
882.237	66
883.726	62
885.214	58
886.702	60
888.19	56
889.677	64
891.164	56
892.651	60
894.137	52
895.623	58
897.108	56
898.593	54
900.077	58
901.562	58
903.046	60
904.529	56
906.012	54
907.495	54
908.977	58
910.459	56
911.941	60
913.422	54
914.903	60
916.383	54
917.863	54
919.343	62
920.822	54
922.301	64
923.779	58
925.257	60
926.735	66
928.213	64
929.69	56
931.166	72
932.643	62
934.119	62
935.594	64
937.069	68
938.543	66
940.018	70
941.492	84
942.966	86
944.439	92
945.911	96
947.384	112
948.856	118
950.328	146
951.799	170
953.27	198
954.741	244
956.21	284
957.68	318
959.15	346
960.619	364
962.088	360
963.556	318
965.023	270
966.491	252
967.958	224
969.425	192
970.891	180
972.357	154
973.824	146
975.288	122
976.754	94
978.218	90
979.682	86
981.146	78
982.609	76
984.072	70
985.534	68
986.997	74
988.459	68
989.92	74
991.382	70
992.842	72
994.302	66
995.763	70
997.222	62
998.681	62
1000.14	60
1001.6	62
1003.06	66
1004.52	64
1005.97	60
1007.43	56
1008.89	60
1010.34	66
1011.8	64
1013.25	64
1014.71	62
1016.16	70
1017.62	70
1019.07	78
1020.53	74
1021.98	74
1023.43	84
1024.89	88
1026.34	78
1027.79	92
1029.24	88
1030.69	96
1032.14	88
1033.59	90
1035.04	98
1036.49	92
1037.94	102
1039.39	88
1040.84	82
1042.29	88
1043.73	82
1045.18	66
1046.63	70
1048.08	74
1049.52	78
1050.97	70
1052.41	68
1053.86	58
1055.3	60
1056.75	64
1058.19	66
1059.64	60
1061.08	58
1062.52	66
1063.96	68
1065.41	62
1066.85	62
1068.29	64
1069.73	68
1071.17	64
1072.61	62
1074.05	68
1075.49	62
1076.93	62
1078.37	64
1079.81	60
1081.25	60
1082.68	64
1084.12	64
1085.56	66
1087	62
1088.43	70
1089.87	64
1091.3	72
1092.74	70
1094.17	74
1095.61	72
1097.04	70
1098.48	68
1099.91	70
1101.34	74
1102.78	84
1104.21	88
1105.64	108
1107.07	134
1108.5	198
1109.93	250
1111.36	330
1112.8	346
1114.22	318
1115.65	260
1117.08	196
1118.51	160
1119.94	124
1121.37	106
1122.8	108
1124.22	96
1125.65	84
1127.08	86
1128.5	78
1129.93	86
1131.35	78
1132.78	86
1134.2	80
1135.63	78
1137.05	74
1138.48	80
1139.9	86
1141.32	90
1142.75	88
1144.17	80
1145.59	86
1147.01	82
1148.43	72
1149.85	82
1151.27	74
1152.69	74
1154.11	74
1155.53	80
1156.95	84
1158.37	86
1159.79	84
1161.21	92
1162.62	90
1164.04	90
1165.46	90
1166.87	94
1168.29	90
1169.71	82
1171.12	90
1172.54	84
1173.95	84
1175.37	96
1176.78	94
1178.19	106
1179.61	130
1181.02	134
1182.43	158
1183.84	182
1185.26	206
1186.67	240
1188.08	226
1189.49	198
1190.9	174
1192.31	162
1193.72	152
1195.13	154
1196.54	146
1197.95	152
1199.36	144
1200.76	162
1202.17	170
1203.58	164
1204.99	172
1206.39	152
1207.8	134
1209.2	134
1210.61	120
1212.01	102
1213.42	100
1214.82	104
1216.23	88
1217.63	80
1219.03	92
1220.44	84
1221.84	92
1223.24	88
1224.64	106
1226.05	114
1227.45	114
1228.85	128
1230.25	128
1231.65	124
1233.05	120
1234.45	110
1235.85	98
1237.25	92
1238.64	94
1240.04	88
1241.44	78
1242.84	76
1244.23	84
1245.63	92
1247.03	78
1248.42	86
1249.82	90
1251.21	86
1252.61	90
1254	92
1255.4	88
1256.79	92
1258.19	90
1259.58	90
1260.97	90
1262.36	90
1263.76	92
1265.15	94
1266.54	96
1267.93	88
1269.32	92
1270.71	102
1272.1	88
1273.49	96
1274.88	104
1276.27	100
1277.66	98
1279.05	100
1280.43	116
1281.82	124
1283.21	136
1284.6	140
1285.98	148
1287.37	148
1288.75	160
1290.14	164
1291.53	176
1292.91	178
1294.29	202
1295.68	218
1297.06	272
1298.45	326
1299.83	422
1301.21	506
1302.59	644
1303.98	744
1305.36	772
1306.74	728
1308.12	634
1309.5	494
1310.88	404
1312.26	364
1313.64	282
1315.02	262
1316.4	228
1317.78	222
1319.16	192
1320.53	186
1321.91	188
1323.29	174
1324.67	184
1326.04	178
1327.42	186
1328.79	186
1330.17	170
1331.54	184
1332.92	168
1334.29	146
1335.67	144
1337.04	140
1338.42	150
1339.79	148
1341.16	138
1342.53	154
1343.91	144
1345.28	150
1346.65	166
1348.02	172
1349.39	166
1350.76	162
1352.13	172
1353.5	166
1354.87	152
1356.24	156
1357.61	136
1358.98	142
1360.34	134
1361.71	150
1363.08	138
1364.45	152
1365.81	144
1367.18	154
1368.54	162
1369.91	168
1371.28	192
1372.64	218
1374.01	272
1375.37	308
1376.73	380
1378.1	394
1379.46	406
1380.82	398
1382.19	386
1383.55	364
1384.91	312
1386.27	274
1387.63	216
1388.99	202
1390.35	168
1391.71	150
1393.07	148
1394.43	144
1395.79	130
1397.15	132
1398.51	134
1399.87	130
1401.23	142
1402.58	132
1403.94	126
1405.3	140
1406.65	130
1408.01	132
1409.37	142
1410.72	142
1412.08	142
1413.43	154
1414.79	156
1416.14	152
1417.49	156
1418.85	158
1420.2	164
1421.55	164
1422.91	178
1424.26	162
1425.61	172
1426.96	184
1428.31	192
1429.66	186
1431.01	186
1432.36	196
1433.71	196
1435.06	202
1436.41	204
1437.76	196
1439.11	204
1440.46	198
1441.81	214
1443.15	210
1444.5	198
1445.85	196
1447.19	194
1448.54	186
1449.89	170
1451.23	166
1452.58	152
1453.92	160
1455.27	162
1456.61	156
1457.95	144
1459.3	166
1460.64	156
1461.98	154
1463.33	154
1464.67	144
1466.01	152
1467.35	156
1468.69	144
1470.03	136
1471.37	140
1472.71	132
1474.05	138
1475.39	148
1476.73	138
1478.07	136
1479.41	154
1480.75	138
1482.09	144
1483.42	130
1484.76	136
1486.1	120
1487.43	124
1488.77	128
1490.11	116
1491.44	114
1492.78	114
1494.11	120
1495.45	116
1496.78	114
1498.12	108
1499.45	114
1500.78	112
1502.11	100
1503.45	118
1504.78	110
1506.11	118
1507.44	116
1508.77	106
1510.11	118
1511.44	112
1512.77	108
1514.1	114
1515.43	116
1516.76	100
1518.08	102
1519.41	116
1520.74	108
1522.07	114
1523.4	100
1524.72	112
1526.05	100
1527.38	114
1528.7	110
1530.03	106
1531.36	108
1532.68	106
1534.01	104
1535.33	110
1536.66	104
1537.98	96
1539.3	92
1540.63	106
1541.95	108
1543.27	102
1544.6	104
1545.92	118
1547.24	104
1548.56	110
1549.88	104
1551.2	114
1552.52	104
1553.84	108
1555.17	106
1556.48	112
1557.8	104
1559.12	114
1560.44	116
1561.76	114
1563.08	110
1564.4	110
1565.71	110
1567.03	110
1568.35	116
1569.66	114
1570.98	116
1572.29	116
1573.61	124
1574.93	134
1576.24	134
1577.55	134
1578.87	134
1580.18	154
1581.5	154
1582.81	164
1584.12	164
1585.43	184
1586.75	192
1588.06	232
1589.37	230
1590.68	252
1591.99	274
1593.3	306
1594.61	326
1595.92	358
1597.23	394
1598.54	404
1599.85	446
1601.16	450
1602.47	474
1603.78	436
1605.08	426
1606.39	426
1607.7	394
1609	362
1610.31	338
1611.62	300
1612.92	276
1614.23	286
1615.53	240
1616.84	214
1618.14	200
1619.45	184
1620.75	164
1622.06	148
1623.36	138
1624.66	132
1625.96	116
1627.27	118
1628.57	116
1629.87	110
1631.17	108
1632.47	106
1633.77	102
1635.07	88
1636.37	98
1637.67	100
1638.97	92
1640.27	96
1641.57	88
1642.87	80
1644.17	86
1645.47	80
1646.76	82
1648.06	96
1649.36	86
1650.66	86
1651.95	78
1653.25	86
1654.54	86
1655.84	86
1657.13	82
1658.43	82
1659.72	84
1661.02	76
1662.31	78
1663.6	80
1664.9	78
1666.19	74
1667.48	72
1668.78	86
1670.07	78
1671.36	82
1672.65	76
1673.94	74
1675.23	72
1676.52	76
1677.81	70
1679.1	84
1680.39	76
1681.68	78
1682.97	78
1684.26	80
1685.55	78
1686.83	80
1688.12	82
1689.41	72
1690.7	80
1691.98	82
1693.27	82
1694.55	86
1695.84	78
1697.13	82
1698.41	82
1699.69	76
1700.98	80
1702.26	68