File: Jesse_Dataset_v2/Pure Raman/Polypropylene oxide/785nm/ps-ppo-6jan25-0,0000-map2_Y08_X00.txt
204.377	318
206.045	340
207.713	306
209.38	320
211.048	316
212.715	312
214.381	300
216.047	294
217.712	308
219.377	330
221.042	346
222.706	394
224.369	466
226.032	498
227.695	616
229.357	692
231.019	792
232.68	894
234.341	868
236.001	840
237.661	824
239.321	776
240.98	682
242.639	620
244.297	576
245.955	542
247.612	450
249.268	420
250.924	358
252.58	330
254.236	286
255.891	280
257.546	234
259.2	222
260.854	208
262.507	204
264.16	194
265.812	178
267.463	170
269.115	168
270.766	170
272.417	178
274.067	164
275.717	164
277.365	172
279.014	190
280.663	190
282.311	198
283.958	216
285.605	248
287.252	272
288.898	304
290.543	340
292.188	376
293.833	406
295.477	398
297.121	392
298.765	360
300.407	344
302.05	336
303.693	294
305.334	276
306.975	262
308.615	248
310.256	238
311.896	236
313.535	238
315.175	212
316.813	218
318.451	216
320.089	200
321.726	200
323.362	212
324.999	216
326.635	214
328.271	220
329.905	212
331.54	226
333.174	228
334.807	248
336.441	218
338.074	238
339.707	212
341.338	208
342.969	204
344.601	198
346.231	196
347.861	188
349.491	208
351.12	202
352.749	192
354.378	194
356.006	184
357.633	194
359.261	196
360.887	184
362.513	176
364.139	170
365.764	174
367.39	174
369.014	180
370.638	180
372.261	178
373.884	180
375.508	170
377.13	164
378.752	168
380.373	146
381.994	136
383.615	134
385.235	134
386.854	126
388.473	128
390.092	116
391.711	120
393.328	114
394.947	120
396.564	108
398.181	110
399.797	108
401.412	130
403.027	118
404.642	128
406.257	124
407.871	150
409.484	164
411.098	176
412.711	194
414.323	196
415.935	198
417.547	184
419.158	158
420.768	148
422.378	140
423.988	142
425.597	114
427.206	112
428.814	98
430.422	102
432.03	82
433.637	86
435.243	90
436.85	82
438.456	84
440.062	84
441.666	78
443.271	70
444.876	80
446.479	74
448.082	76
449.685	78
451.287	72
452.89	66
454.492	80
456.092	72
457.693	74
459.293	80
460.893	82
462.492	84
464.092	106
465.691	98
467.288	110
468.887	120
470.483	130
472.081	144
473.677	170
475.273	166
476.869	182
478.463	214
480.059	220
481.653	240
483.247	262
484.84	266
486.433	260
488.026	242
489.618	188
491.21	166
492.801	136
494.392	136
495.983	110
497.573	112
499.162	100
500.752	102
502.341	94
503.929	98
505.517	94
507.105	106
508.692	124
510.279	144
511.865	196
513.45	196
515.037	182
516.621	162
518.206	146
519.79	128
521.374	140
522.957	140
524.54	162
526.123	162
527.705	182
529.287	216
530.868	252
532.448	282
534.029	318
535.609	368
537.188	392
538.768	410
540.346	390
541.925	386
543.502	334
545.08	276
546.657	232
548.234	206
549.81	188
551.386	188
552.961	196
554.536	190
556.11	202
557.684	242
559.258	300
560.832	378
562.405	482
563.977	652
565.55	892
567.12	1288
568.692	1778
570.263	2088
571.833	2104
573.403	1794
574.973	1324
576.542	838
578.111	624
579.679	458
581.247	362
582.815	314
584.382	294
585.948	298
587.514	290
589.081	254
590.645	244
592.211	244
593.775	244
595.339	232
596.904	210
598.466	196
600.03	164
601.592	146
603.154	130
604.715	128
606.277	106
607.838	102
609.398	88
610.958	86
612.518	80
614.077	84
615.636	78
617.194	82
618.753	96
620.31	96
621.867	108
623.424	102
624.98	108
626.537	110
628.092	118
629.647	116
631.202	136
632.756	128
634.31	144
635.864	134
637.417	134
638.969	128
640.521	132
642.074	130
643.625	120
645.176	110
646.726	98
648.276	84
649.827	88
651.376	84
652.925	88
654.473	82
656.021	78
657.569	76
659.117	76
660.664	68
662.21	68
663.757	66
665.302	64
666.847	68
668.392	62
669.937	64
671.481	64
673.025	54
674.568	62
676.111	58
677.653	64
679.195	66
680.737	60
682.279	56
683.82	56
685.36	66
686.9	58
688.44	62
689.979	62
691.517	62
693.056	54
694.594	64
696.132	54
697.669	46
699.206	60
700.742	54
702.278	60
703.814	66
705.35	66
706.884	72
708.419	74
709.953	76
711.487	84
713.019	88
714.552	92
716.085	90
717.617	96
719.148	84
720.68	76
722.21	76
723.741	78
725.271	66
726.8	76
728.33	74
729.858	74
731.387	74
732.915	80
734.443	68
735.97	80
737.497	86
739.023	78
740.549	80
742.075	102
743.6	98
745.125	112
746.65	144
748.173	142
749.697	122
751.22	106
752.743	106
754.266	122
755.788	102
757.309	100
758.831	86
760.351	78
761.871	70
763.392	70
764.912	68
766.431	64
767.95	72
769.468	70
770.986	60
772.504	70
774.022	74
775.538	74
777.055	74
778.571	76
780.086	76
781.602	86
783.117	74
784.632	76
786.146	76
787.659	70
789.173	70
790.685	64
792.198	66
793.71	64
795.222	58
796.733	66
798.244	62
799.755	62
801.265	60
802.775	62
804.284	70
805.793	80
807.302	74
808.81	68
810.318	74
811.826	76
813.333	72
814.84	76
816.346	72
817.851	78
819.357	74
820.862	84
822.367	96
823.871	108
825.376	126
826.878	162
828.382	224
829.885	302
831.387	430
832.889	514
834.391	502
835.892	350
837.392	202
838.893	152
840.393	124
841.893	108
843.392	92
844.891	96
846.389	96
847.888	86
849.386	94
850.882	88
852.38	86
853.876	84
855.372	84
856.868	86
858.363	90
859.858	82
861.353	80
862.847	74
864.341	76
865.834	72
867.328	68
868.82	68
870.313	58
871.805	68
873.296	62
874.787	58
876.278	68
877.769	56
879.258	60
880.748	54
882.237	64
883.726	58
885.214	60
886.702	58
888.19	54
889.677	62
891.164	60
892.651	60
894.137	56
895.623	58
897.108	54
898.593	60
900.077	62
901.562	56
903.046	58
904.529	56
906.012	62
907.495	52
908.977	52
910.459	66
911.941	56
913.422	58
914.903	56
916.383	60
917.863	60
919.343	60
920.822	56
922.301	60
923.779	54
925.257	58
926.735	66
928.213	52
929.69	62
931.166	62
932.643	58
934.119	66
935.594	68
937.069	66
938.543	68
940.018	72
941.492	76
942.966	78
944.439	84
945.911	102
947.384	110
948.856	106
950.328	140
951.799	152
953.27	196
954.741	236
956.21	278
957.68	306
959.15	334
960.619	350
962.088	302
963.556	290
965.023	264
966.491	242
967.958	192
969.425	176
970.891	166
972.357	138
973.824	118
975.288	110
976.754	98
978.218	82
979.682	74
981.146	72
982.609	76
984.072	70
985.534	68
986.997	68
988.459	74
989.92	62
991.382	72
992.842	72
994.302	76
995.763	66
997.222	64
998.681	60
1000.14	60
1001.6	68
1003.06	60
1004.52	66
1005.97	64
1007.43	62
1008.89	60
1010.34	68
1011.8	66
1013.25	62
1014.71	60
1016.16	76
1017.62	66
1019.07	72
1020.53	66
1021.98	82
1023.43	74
1024.89	82
1026.34	80
1027.79	92
1029.24	90
1030.69	86
1032.14	90
1033.59	94
1035.04	90
1036.49	90
1037.94	90
1039.39	84
1040.84	84
1042.29	74
1043.73	82
1045.18	86
1046.63	76
1048.08	64
1049.52	68
1050.97	70
1052.41	66
1053.86	64
1055.3	66
1056.75	64
1058.19	62
1059.64	66
1061.08	62
1062.52	58
1063.96	64
1065.41	66
1066.85	64
1068.29	62
1069.73	64
1071.17	56
1072.61	60
1074.05	62
1075.49	62
1076.93	64
1078.37	60
1079.81	64
1081.25	58
1082.68	62
1084.12	56
1085.56	66
1087	66
1088.43	62
1089.87	60
1091.3	70
1092.74	62
1094.17	66
1095.61	66
1097.04	64
1098.48	72
1099.91	72
1101.34	80
1102.78	86
1104.21	96
1105.64	100
1107.07	128
1108.5	190
1109.93	232
1111.36	316
1112.8	342
1114.22	286
1115.65	216
1117.08	176
1118.51	152
1119.94	116
1121.37	112
1122.8	104
1124.22	96
1125.65	90
1127.08	90
1128.5	98
1129.93	94
1131.35	76
1132.78	88
1134.2	74
1135.63	74
1137.05	82
1138.48	82
1139.9	82
1141.32	92
1142.75	80
1144.17	76
1145.59	76
1147.01	66
1148.43	78
1149.85	74
1151.27	66
1152.69	82
1154.11	72
1155.53	78
1156.95	74
1158.37	72
1159.79	90
1161.21	86
1162.62	92
1164.04	96
1165.46	88
1166.87	84
1168.29	86
1169.71	80
1171.12	84
1172.54	82
1173.95	82
1175.37	92
1176.78	98
1178.19	102
1179.61	118
1181.02	142
1182.43	156
1183.84	170
1185.26	200
1186.67	208
1188.08	220
1189.49	180
1190.9	158
1192.31	158
1193.72	144
1195.13	146
1196.54	146
1197.95	136
1199.36	150
1200.76	144
1202.17	164
1203.58	162
1204.99	156
1206.39	152
1207.8	130
1209.2	118
1210.61	104
1212.01	102
1213.42	94
1214.82	96
1216.23	86
1217.63	92
1219.03	86
1220.44	80
1221.84	82
1223.24	92
1224.64	94
1226.05	108
1227.45	106
1228.85	118
1230.25	126
1231.65	124
1233.05	122
1234.45	100
1235.85	102
1237.25	90
1238.64	92
1240.04	80
1241.44	88
1242.84	84
1244.23	82
1245.63	86
1247.03	90
1248.42	88
1249.82	78
1251.21	82
1252.61	90
1254	82
1255.4	84
1256.79	80
1258.19	84
1259.58	80
1260.97	88
1262.36	96
1263.76	88
1265.15	96
1266.54	94
1267.93	94
1269.32	88
1270.71	100
1272.1	96
1273.49	98
1274.88	96
1276.27	108
1277.66	114
1279.05	114
1280.43	120
1281.82	106
1283.21	128
1284.6	132
1285.98	142
1287.37	132
1288.75	150
1290.14	162
1291.53	160
1292.91	178
1294.29	182
1295.68	232
1297.06	266
1298.45	316
1299.83	374
1301.21	502
1302.59	606
1303.98	692
1305.36	712
1306.74	662
1308.12	584
1309.5	462
1310.88	370
1312.26	298
1313.64	252
1315.02	238
1316.4	230
1317.78	204
1319.16	186
1320.53	178
1321.91	170
1323.29	166
1324.67	168
1326.04	178
1327.42	168
1328.79	164
1330.17	160
1331.54	150
1332.92	154
1334.29	154
1335.67	140
1337.04	130
1338.42	130
1339.79	140
1341.16	134
1342.53	144
1343.91	146
1345.28	148
1346.65	142
1348.02	154
1349.39	158
1350.76	156
1352.13	158
1353.5	146
1354.87	158
1356.24	154
1357.61	148
1358.98	140
1360.34	140
1361.71	144
1363.08	136
1364.45	148
1365.81	152
1367.18	146
1368.54	154
1369.91	164
1371.28	186
1372.64	224
1374.01	254
1375.37	302
1376.73	352
1378.1	378
1379.46	384
1380.82	394
1382.19	356
1383.55	340
1384.91	296
1386.27	258
1387.63	216
1388.99	168
1390.35	168
1391.71	152
1393.07	124
1394.43	134
1395.79	144
1397.15	130
1398.51	124
1399.87	116
1401.23	126
1402.58	136
1403.94	122
1405.3	128
1406.65	134
1408.01	130
1409.37	132
1410.72	132
1412.08	134
1413.43	136
1414.79	154
1416.14	138
1417.49	150
1418.85	150
1420.2	156
1421.55	154
1422.91	164
1424.26	166
1425.61	174
1426.96	172
1428.31	168
1429.66	184
1431.01	186
1432.36	178
1433.71	182
1435.06	176
1436.41	200
1437.76	210
1439.11	206
1440.46	204
1441.81	186
1443.15	188
1444.5	184
1445.85	174
1447.19	178
1448.54	180
1449.89	168
1451.23	166
1452.58	162
1453.92	154
1455.27	152
1456.61	160
1457.95	142
1459.3	138
1460.64	156
1461.98	152
1463.33	138
1464.67	146
1466.01	148
1467.35	140
1468.69	138
1470.03	144
1471.37	140
1472.71	140
1474.05	138
1475.39	140
1476.73	146
1478.07	146
1479.41	138
1480.75	140
1482.09	130
1483.42	126
1484.76	132
1486.1	132
1487.43	120
1488.77	120
1490.11	118
1491.44	122
1492.78	114
1494.11	108
1495.45	112
1496.78	116
1498.12	122
1499.45	96
1500.78	104
1502.11	112
1503.45	112
1504.78	122
1506.11	110
1507.44	110
1508.77	114
1510.11	102
1511.44	108
1512.77	104
1514.1	108
1515.43	100
1516.76	104
1518.08	102
1519.41	104
1520.74	104
1522.07	104
1523.4	102
1524.72	106
1526.05	104
1527.38	106
1528.7	102
1530.03	110
1531.36	106
1532.68	106
1534.01	96
1535.33	104
1536.66	102
1537.98	112
1539.3	88
1540.63	98
1541.95	106
1543.27	106
1544.6	98
1545.92	104
1547.24	108
1548.56	100
1549.88	102
1551.2	100
1552.52	106
1553.84	112
1555.17	106
1556.48	98
1557.8	102
1559.12	104
1560.44	104
1561.76	108
1563.08	104
1564.4	104
1565.71	114
1567.03	106
1568.35	110
1569.66	102
1570.98	118
1572.29	116
1573.61	112
1574.93	118
1576.24	130
1577.55	148
1578.87	128
1580.18	140
1581.5	146
1582.81	152
1584.12	162
1585.43	174
1586.75	188
1588.06	206
1589.37	208
1590.68	226
1591.99	260
1593.3	296
1594.61	314
1595.92	332
1597.23	352
1598.54	392
1599.85	424
1601.16	438
1602.47	436
1603.78	442
1605.08	414
1606.39	390
1607.7	352
1609	332
1610.31	334
1611.62	292
1612.92	284
1614.23	242
1615.53	222
1616.84	212
1618.14	190
1619.45	164
1620.75	146
1622.06	154
1623.36	124
1624.66	130
1625.96	124
1627.27	122
1628.57	104
1629.87	104
1631.17	100
1632.47	112
1633.77	92
1635.07	90
1636.37	98
1637.67	88
1638.97	94
1640.27	86
1641.57	84
1642.87	90
1644.17	76
1645.47	84
1646.76	88
1648.06	92
1649.36	80
1650.66	86
1651.95	80
1653.25	84
1654.54	74
1655.84	78
1657.13	78
1658.43	86
1659.72	84
1661.02	80
1662.31	82
1663.6	78
1664.9	84
1666.19	76
1667.48	74
1668.78	74
1670.07	78
1671.36	70
1672.65	72
1673.94	74
1675.23	72
1676.52	80
1677.81	76
1679.1	74
1680.39	72
1681.68	76
1682.97	74
1684.26	76
1685.55	74
1686.83	72
1688.12	78
1689.41	78
1690.7	82
1691.98	80
1693.27	78
1694.55	70
1695.84	90
1697.13	74
1698.41	70
1699.69	76
1700.98	66
1702.26	74