File: Jesse_Dataset_v2/Pure Raman/Polypropylene oxide/785nm/ps-ppo-6jan25-0,0000-map2_Y10_X05.txt
204.377	366
206.045	366
207.713	344
209.38	346
211.048	316
212.715	330
214.381	318
216.047	292
217.712	336
219.377	344
221.042	372
222.706	402
224.369	460
226.032	534
227.695	636
229.357	736
231.019	846
232.68	924
234.341	952
236.001	876
237.661	846
239.321	806
240.98	744
242.639	646
244.297	592
245.955	546
247.612	478
249.268	416
250.924	390
252.58	326
254.236	268
255.891	282
257.546	254
259.2	234
260.854	224
262.507	196
264.16	184
265.812	180
267.463	186
269.115	172
270.766	178
272.417	164
274.067	168
275.717	164
277.365	176
279.014	186
280.663	192
282.311	208
283.958	212
285.605	252
287.252	272
288.898	302
290.543	354
292.188	378
293.833	410
295.477	400
297.121	414
298.765	366
300.407	362
302.05	344
303.693	308
305.334	290
306.975	268
308.615	256
310.256	242
311.896	252
313.535	226
315.175	204
316.813	224
318.451	220
320.089	210
321.726	210
323.362	224
324.999	230
326.635	226
328.271	238
329.905	240
331.54	258
333.174	248
334.807	226
336.441	252
338.074	226
339.707	224
341.338	212
342.969	212
344.601	198
346.231	200
347.861	192
349.491	188
351.12	196
352.749	188
354.378	204
356.006	184
357.633	206
359.261	196
360.887	200
362.513	188
364.139	172
365.764	176
367.39	174
369.014	196
370.638	186
372.261	194
373.884	200
375.508	182
377.13	178
378.752	162
380.373	150
381.994	138
383.615	134
385.235	132
386.854	132
388.473	126
390.092	124
391.711	128
393.328	118
394.947	122
396.564	126
398.181	118
399.797	124
401.412	124
403.027	124
404.642	126
406.257	136
407.871	158
409.484	168
411.098	188
412.711	190
414.323	200
415.935	194
417.547	184
419.158	168
420.768	158
422.378	136
423.988	136
425.597	126
427.206	126
428.814	106
430.422	108
432.03	88
433.637	90
435.243	100
436.85	84
438.456	84
440.062	90
441.666	84
443.271	78
444.876	66
446.479	82
448.082	80
449.685	80
451.287	74
452.89	82
454.492	68
456.092	72
457.693	72
459.293	76
460.893	76
462.492	90
464.092	90
465.691	92
467.288	112
468.887	122
470.483	126
472.081	142
473.677	158
475.273	166
476.869	192
478.463	214
480.059	226
481.653	234
483.247	254
484.84	264
486.433	256
488.026	238
489.618	196
491.21	164
492.801	144
494.392	134
495.983	116
497.573	110
499.162	98
500.752	108
502.341	94
503.929	102
505.517	92
507.105	108
508.692	116
510.279	166
511.865	188
513.45	198
515.037	182
516.621	170
518.206	150
519.79	142
521.374	138
522.957	142
524.54	168
526.123	174
527.705	196
529.287	212
530.868	276
532.448	304
534.029	346
535.609	382
537.188	386
538.768	412
540.346	398
541.925	386
543.502	336
545.08	288
546.657	248
548.234	192
549.81	188
551.386	180
552.961	194
554.536	208
556.11	228
557.684	246
559.258	304
560.832	372
562.405	482
563.977	662
565.55	956
567.12	1376
568.692	1830
570.263	2206
571.833	2192
573.403	1852
574.973	1372
576.542	940
578.111	658
579.679	460
581.247	358
582.815	328
584.382	314
585.948	292
587.514	308
589.081	266
590.645	270
592.211	254
593.775	242
595.339	232
596.904	206
598.466	176
600.03	168
601.592	124
603.154	132
604.715	112
606.277	106
607.838	90
609.398	94
610.958	98
612.518	78
614.077	90
615.636	80
617.194	84
618.753	98
620.31	100
621.867	88
623.424	92
624.98	112
626.537	120
628.092	122
629.647	124
631.202	144
632.756	136
634.31	138
635.864	148
637.417	134
638.969	136
640.521	134
642.074	124
643.625	112
645.176	100
646.726	96
648.276	98
649.827	86
651.376	84
652.925	90
654.473	80
656.021	76
657.569	80
659.117	76
660.664	74
662.21	64
663.757	70
665.302	64
666.847	64
668.392	70
669.937	62
671.481	62
673.025	56
674.568	62
676.111	58
677.653	54
679.195	54
680.737	54
682.279	62
683.82	60
685.36	58
686.9	60
688.44	58
689.979	58
691.517	60
693.056	60
694.594	62
696.132	62
697.669	52
699.206	52
700.742	54
702.278	60
703.814	58
705.35	62
706.884	68
708.419	72
709.953	80
711.487	84
713.019	84
714.552	92
716.085	90
717.617	92
719.148	76
720.68	78
722.21	74
723.741	68
725.271	70
726.8	68
728.33	74
729.858	66
731.387	82
732.915	78
734.443	74
735.97	78
737.497	78
739.023	76
740.549	86
742.075	100
743.6	96
745.125	114
746.65	144
748.173	124
749.697	128
751.22	114
752.743	128
754.266	112
755.788	106
757.309	102
758.831	86
760.351	80
761.871	78
763.392	70
764.912	62
766.431	68
767.95	68
769.468	66
770.986	70
772.504	64
774.022	76
775.538	64
777.055	68
778.571	80
780.086	76
781.602	74
783.117	78
784.632	74
786.146	70
787.659	68
789.173	68
790.685	64
792.198	64
793.71	64
795.222	60
796.733	54
798.244	72
799.755	62
801.265	66
802.775	66
804.284	64
805.793	72
807.302	64
808.81	72
810.318	80
811.826	70
813.333	72
814.84	72
816.346	74
817.851	80
819.357	84
820.862	84
822.367	96
823.871	106
825.376	132
826.878	174
828.382	228
829.885	306
831.387	474
832.889	528
834.391	512
835.892	354
837.392	234
838.893	158
840.393	122
841.893	106
843.392	94
844.891	88
846.389	92
847.888	86
849.386	92
850.882	90
852.38	78
853.876	88
855.372	84
856.868	86
858.363	76
859.858	82
861.353	70
862.847	72
864.341	76
865.834	76
867.328	64
868.82	64
870.313	66
871.805	60
873.296	60
874.787	62
876.278	56
877.769	62
879.258	64
880.748	66
882.237	58
883.726	58
885.214	60
886.702	60
888.19	58
889.677	58
891.164	50
892.651	54
894.137	50
895.623	58
897.108	52
898.593	54
900.077	50
901.562	58
903.046	56
904.529	62
906.012	56
907.495	52
908.977	56
910.459	56
911.941	54
913.422	50
914.903	62
916.383	56
917.863	56
919.343	64
920.822	52
922.301	62
923.779	64
925.257	58
926.735	56
928.213	60
929.69	62
931.166	64
932.643	66
934.119	68
935.594	66
937.069	66
938.543	66
940.018	72
941.492	76
942.966	78
944.439	94
945.911	106
947.384	112
948.856	120
950.328	146
951.799	170
953.27	204
954.741	224
956.21	288
957.68	324
959.15	344
960.619	338
962.088	338
963.556	296
965.023	274
966.491	250
967.958	204
969.425	182
970.891	168
972.357	148
973.824	128
975.288	106
976.754	96
978.218	82
979.682	80
981.146	82
982.609	78
984.072	74
985.534	74
986.997	62
988.459	52
989.92	72
991.382	66
992.842	70
994.302	64
995.763	60
997.222	60
998.681	60
1000.14	60
1001.6	62
1003.06	52
1004.52	52
1005.97	58
1007.43	56
1008.89	64
1010.34	60
1011.8	60
1013.25	64
1014.71	62
1016.16	66
1017.62	72
1019.07	74
1020.53	66
1021.98	80
1023.43	78
1024.89	78
1026.34	84
1027.79	84
1029.24	90
1030.69	94
1032.14	90
1033.59	100
1035.04	100
1036.49	96
1037.94	94
1039.39	90
1040.84	76
1042.29	86
1043.73	72
1045.18	78
1046.63	72
1048.08	72
1049.52	62
1050.97	70
1052.41	62
1053.86	68
1055.3	60
1056.75	64
1058.19	62
1059.64	62
1061.08	64
1062.52	62
1063.96	62
1065.41	62
1066.85	58
1068.29	56
1069.73	64
1071.17	62
1072.61	62
1074.05	60
1075.49	54
1076.93	62
1078.37	66
1079.81	60
1081.25	62
1082.68	62
1084.12	64
1085.56	60
1087	54
1088.43	64
1089.87	64
1091.3	66
1092.74	62
1094.17	68
1095.61	62
1097.04	66
1098.48	68
1099.91	78
1101.34	74
1102.78	86
1104.21	88
1105.64	102
1107.07	136
1108.5	172
1109.93	240
1111.36	308
1112.8	324
1114.22	298
1115.65	240
1117.08	192
1118.51	152
1119.94	130
1121.37	102
1122.8	96
1124.22	92
1125.65	88
1127.08	98
1128.5	86
1129.93	80
1131.35	80
1132.78	70
1134.2	76
1135.63	86
1137.05	86
1138.48	86
1139.9	82
1141.32	82
1142.75	90
1144.17	74
1145.59	68
1147.01	80
1148.43	74
1149.85	72
1151.27	70
1152.69	72
1154.11	66
1155.53	74
1156.95	82
1158.37	84
1159.79	84
1161.21	86
1162.62	90
1164.04	92
1165.46	88
1166.87	74
1168.29	80
1169.71	86
1171.12	78
1172.54	80
1173.95	92
1175.37	92
1176.78	100
1178.19	112
1179.61	104
1181.02	124
1182.43	156
1183.84	194
1185.26	212
1186.67	224
1188.08	212
1189.49	200
1190.9	178
1192.31	158
1193.72	148
1195.13	148
1196.54	140
1197.95	140
1199.36	150
1200.76	154
1202.17	158
1203.58	156
1204.99	166
1206.39	146
1207.8	136
1209.2	120
1210.61	114
1212.01	100
1213.42	90
1214.82	84
1216.23	94
1217.63	92
1219.03	88
1220.44	86
1221.84	92
1223.24	100
1224.64	96
1226.05	94
1227.45	120
1228.85	136
1230.25	128
1231.65	132
1233.05	122
1234.45	100
1235.85	104
1237.25	96
1238.64	90
1240.04	84
1241.44	86
1242.84	82
1244.23	76
1245.63	88
1247.03	78
1248.42	82
1249.82	72
1251.21	82
1252.61	86
1254	86
1255.4	82
1256.79	88
1258.19	86
1259.58	90
1260.97	86
1262.36	88
1263.76	90
1265.15	94
1266.54	96
1267.93	92
1269.32	98
1270.71	96
1272.1	100
1273.49	94
1274.88	102
1276.27	96
1277.66	100
1279.05	118
1280.43	122
1281.82	128
1283.21	130
1284.6	136
1285.98	140
1287.37	150
1288.75	154
1290.14	154
1291.53	176
1292.91	176
1294.29	190
1295.68	242
1297.06	262
1298.45	322
1299.83	408
1301.21	504
1302.59	614
1303.98	716
1305.36	712
1306.74	710
1308.12	606
1309.5	480
1310.88	406
1312.26	334
1313.64	268
1315.02	248
1316.4	234
1317.78	206
1319.16	196
1320.53	190
1321.91	182
1323.29	184
1324.67	166
1326.04	172
1327.42	182
1328.79	170
1330.17	162
1331.54	160
1332.92	148
1334.29	154
1335.67	142
1337.04	136
1338.42	134
1339.79	144
1341.16	140
1342.53	146
1343.91	152
1345.28	148
1346.65	146
1348.02	148
1349.39	154
1350.76	158
1352.13	170
1353.5	162
1354.87	166
1356.24	142
1357.61	134
1358.98	144
1360.34	140
1361.71	140
1363.08	134
1364.45	146
1365.81	156
1367.18	148
1368.54	160
1369.91	168
1371.28	180
1372.64	230
1374.01	268
1375.37	316
1376.73	346
1378.1	376
1379.46	414
1380.82	390
1382.19	380
1383.55	338
1384.91	294
1386.27	276
1387.63	216
1388.99	188
1390.35	162
1391.71	150
1393.07	154
1394.43	136
1395.79	134
1397.15	126
1398.51	134
1399.87	124
1401.23	118
1402.58	130
1403.94	128
1405.3	134
1406.65	128
1408.01	128
1409.37	130
1410.72	126
1412.08	134
1413.43	126
1414.79	142
1416.14	144
1417.49	140
1418.85	146
1420.2	154
1421.55	166
1422.91	164
1424.26	168
1425.61	168
1426.96	172
1428.31	170
1429.66	174
1431.01	190
1432.36	176
1433.71	194
1435.06	182
1436.41	182
1437.76	192
1439.11	210
1440.46	202
1441.81	196
1443.15	202
1444.5	188
1445.85	182
1447.19	172
1448.54	176
1449.89	168
1451.23	158
1452.58	162
1453.92	166
1455.27	156
1456.61	142
1457.95	150
1459.3	154
1460.64	140
1461.98	148
1463.33	148
1464.67	140
1466.01	154
1467.35	162
1468.69	142
1470.03	132
1471.37	142
1472.71	134
1474.05	144
1475.39	138
1476.73	138
1478.07	120
1479.41	142
1480.75	132
1482.09	136
1483.42	132
1484.76	122
1486.1	138
1487.43	110
1488.77	122
1490.11	116
1491.44	120
1492.78	120
1494.11	106
1495.45	116
1496.78	108
1498.12	110
1499.45	112
1500.78	104
1502.11	114
1503.45	108
1504.78	116
1506.11	104
1507.44	110
1508.77	110
1510.11	106
1511.44	108
1512.77	114
1514.1	96
1515.43	110
1516.76	102
1518.08	106
1519.41	110
1520.74	102
1522.07	106
1523.4	110
1524.72	102
1526.05	108
1527.38	108
1528.7	102
1530.03	104
1531.36	106
1532.68	92
1534.01	104
1535.33	104
1536.66	108
1537.98	100
1539.3	102
1540.63	96
1541.95	92
1543.27	104
1544.6	112
1545.92	98
1547.24	104
1548.56	100
1549.88	102
1551.2	116
1552.52	98
1553.84	106
1555.17	114
1556.48	96
1557.8	102
1559.12	104
1560.44	98
1561.76	102
1563.08	106
1564.4	110
1565.71	112
1567.03	112
1568.35	110
1569.66	112
1570.98	108
1572.29	120
1573.61	126
1574.93	124
1576.24	120
1577.55	124
1578.87	126
1580.18	150
1581.5	152
1582.81	166
1584.12	176
1585.43	180
1586.75	188
1588.06	214
1589.37	216
1590.68	238
1591.99	262
1593.3	284
1594.61	312
1595.92	342
1597.23	392
1598.54	396
1599.85	430
1601.16	460
1602.47	450
1603.78	426
1605.08	414
1606.39	384
1607.7	380
1609	346
1610.31	310
1611.62	298
1612.92	276
1614.23	266
1615.53	230
1616.84	210
1618.14	194
1619.45	184
1620.75	146
1622.06	140
1623.36	146
1624.66	128
1625.96	122
1627.27	114
1628.57	108
1629.87	114
1631.17	96
1632.47	94
1633.77	100
1635.07	92
1636.37	96
1637.67	92
1638.97	86
1640.27	96
1641.57	82
1642.87	90
1644.17	82
1645.47	88
1646.76	80
1648.06	76
1649.36	86
1650.66	84
1651.95	84
1653.25	82
1654.54	80
1655.84	66
1657.13	76
1658.43	78
1659.72	78
1661.02	68
1662.31	86
1663.6	82
1664.9	72
1666.19	70
1667.48	70
1668.78	86
1670.07	78
1671.36	78
1672.65	70
1673.94	70
1675.23	78
1676.52	76
1677.81	74
1679.1	78
1680.39	62
1681.68	76
1682.97	72
1684.26	76
1685.55	78
1686.83	70
1688.12	76
1689.41	82
1690.7	78
1691.98	80
1693.27	76
1694.55	80
1695.84	72
1697.13	78
1698.41	72
1699.69	70
1700.98	76
1702.26	76