File: Jesse_Dataset_v2/Pure Raman/Polypropylene oxide/785nm/ps-ppo-6jan25-0,0000-map2_Y08_X10.txt
204.377	374
206.045	356
207.713	372
209.38	364
211.048	340
212.715	326
214.381	326
216.047	326
217.712	340
219.377	354
221.042	394
222.706	444
224.369	474
226.032	564
227.695	678
229.357	808
231.019	910
232.68	1000
234.341	964
236.001	958
237.661	914
239.321	820
240.98	788
242.639	712
244.297	636
245.955	566
247.612	520
249.268	440
250.924	398
252.58	344
254.236	330
255.891	300
257.546	280
259.2	248
260.854	236
262.507	206
264.16	208
265.812	192
267.463	190
269.115	190
270.766	184
272.417	188
274.067	176
275.717	168
277.365	190
279.014	196
280.663	190
282.311	210
283.958	228
285.605	274
287.252	306
288.898	314
290.543	374
292.188	416
293.833	432
295.477	436
297.121	424
298.765	394
300.407	380
302.05	360
303.693	336
305.334	300
306.975	298
308.615	292
310.256	282
311.896	272
313.535	246
315.175	238
316.813	244
318.451	242
320.089	224
321.726	226
323.362	246
324.999	240
326.635	236
328.271	236
329.905	260
331.54	246
333.174	258
334.807	254
336.441	250
338.074	250
339.707	230
341.338	238
342.969	228
344.601	210
346.231	214
347.861	202
349.491	196
351.12	216
352.749	222
354.378	218
356.006	216
357.633	210
359.261	204
360.887	196
362.513	202
364.139	202
365.764	190
367.39	190
369.014	180
370.638	196
372.261	182
373.884	192
375.508	194
377.13	166
378.752	164
380.373	152
381.994	156
383.615	150
385.235	148
386.854	132
388.473	140
390.092	122
391.711	130
393.328	134
394.947	126
396.564	124
398.181	126
399.797	134
401.412	132
403.027	132
404.642	130
406.257	142
407.871	154
409.484	170
411.098	196
412.711	208
414.323	208
415.935	210
417.547	192
419.158	186
420.768	164
422.378	154
423.988	132
425.597	118
427.206	128
428.814	116
430.422	116
432.03	96
433.637	104
435.243	98
436.85	98
438.456	84
440.062	88
441.666	84
443.271	82
444.876	80
446.479	80
448.082	88
449.685	70
451.287	76
452.89	86
454.492	78
456.092	80
457.693	82
459.293	92
460.893	94
462.492	94
464.092	98
465.691	106
467.288	112
468.887	130
470.483	142
472.081	170
473.677	168
475.273	188
476.869	192
478.463	212
480.059	228
481.653	254
483.247	260
484.84	296
486.433	286
488.026	246
489.618	200
491.21	172
492.801	158
494.392	142
495.983	126
497.573	116
499.162	104
500.752	96
502.341	100
503.929	96
505.517	108
507.105	112
508.692	134
510.279	180
511.865	198
513.45	220
515.037	206
516.621	164
518.206	154
519.79	136
521.374	156
522.957	166
524.54	172
526.123	176
527.705	192
529.287	246
530.868	268
532.448	326
534.029	384
535.609	402
537.188	456
538.768	472
540.346	446
541.925	404
543.502	354
545.08	304
546.657	258
548.234	222
549.81	204
551.386	206
552.961	202
554.536	218
556.11	232
557.684	272
559.258	328
560.832	408
562.405	548
563.977	740
565.55	1026
567.12	1502
568.692	2028
570.263	2356
571.833	2380
573.403	1980
574.973	1482
576.542	1014
578.111	694
579.679	504
581.247	394
582.815	368
584.382	336
585.948	330
587.514	330
589.081	270
590.645	278
592.211	268
593.775	268
595.339	240
596.904	220
598.466	212
600.03	184
601.592	148
603.154	134
604.715	116
606.277	114
607.838	98
609.398	100
610.958	90
612.518	92
614.077	88
615.636	84
617.194	96
618.753	98
620.31	100
621.867	100
623.424	108
624.98	116
626.537	120
628.092	130
629.647	134
631.202	136
632.756	148
634.31	154
635.864	148
637.417	146
638.969	144
640.521	146
642.074	122
643.625	112
645.176	112
646.726	104
648.276	108
649.827	110
651.376	86
652.925	96
654.473	80
656.021	88
657.569	74
659.117	70
660.664	82
662.21	70
663.757	74
665.302	68
666.847	64
668.392	68
669.937	66
671.481	60
673.025	60
674.568	60
676.111	58
677.653	60
679.195	60
680.737	64
682.279	58
683.82	68
685.36	58
686.9	58
688.44	64
689.979	56
691.517	56
693.056	64
694.594	60
696.132	68
697.669	66
699.206	62
700.742	58
702.278	64
703.814	66
705.35	62
706.884	74
708.419	76
709.953	80
711.487	94
713.019	88
714.552	100
716.085	106
717.617	98
719.148	84
720.68	76
722.21	80
723.741	78
725.271	86
726.8	78
728.33	74
729.858	76
731.387	74
732.915	76
734.443	90
735.97	86
737.497	82
739.023	84
740.549	90
742.075	104
743.6	104
745.125	132
746.65	146
748.173	144
749.697	140
751.22	118
752.743	118
754.266	108
755.788	110
757.309	102
758.831	92
760.351	80
761.871	78
763.392	78
764.912	76
766.431	70
767.95	68
769.468	68
770.986	72
772.504	78
774.022	70
775.538	78
777.055	80
778.571	86
780.086	72
781.602	76
783.117	78
784.632	74
786.146	68
787.659	74
789.173	72
790.685	66
792.198	66
793.71	60
795.222	68
796.733	68
798.244	66
799.755	64
801.265	60
802.775	62
804.284	78
805.793	70
807.302	78
808.81	74
810.318	82
811.826	66
813.333	80
814.84	78
816.346	72
817.851	78
819.357	88
820.862	86
822.367	86
823.871	116
825.376	124
826.878	180
828.382	252
829.885	356
831.387	498
832.889	586
834.391	550
835.892	390
837.392	250
838.893	170
840.393	138
841.893	122
843.392	98
844.891	104
846.389	104
847.888	100
849.386	94
850.882	90
852.38	94
853.876	90
855.372	88
856.868	90
858.363	88
859.858	78
861.353	78
862.847	74
864.341	82
865.834	72
867.328	68
868.82	68
870.313	70
871.805	62
873.296	64
874.787	64
876.278	62
877.769	64
879.258	66
880.748	60
882.237	68
883.726	62
885.214	60
886.702	58
888.19	56
889.677	58
891.164	62
892.651	58
894.137	58
895.623	56
897.108	60
898.593	60
900.077	52
901.562	50
903.046	60
904.529	56
906.012	58
907.495	60
908.977	54
910.459	54
911.941	56
913.422	52
914.903	54
916.383	56
917.863	52
919.343	56
920.822	62
922.301	64
923.779	58
925.257	60
926.735	60
928.213	68
929.69	62
931.166	58
932.643	62
934.119	68
935.594	68
937.069	68
938.543	80
940.018	76
941.492	82
942.966	84
944.439	88
945.911	106
947.384	120
948.856	126
950.328	134
951.799	174
953.27	218
954.741	264
956.21	304
957.68	336
959.15	378
960.619	380
962.088	356
963.556	332
965.023	290
966.491	260
967.958	224
969.425	198
970.891	170
972.357	160
973.824	134
975.288	114
976.754	96
978.218	92
979.682	92
981.146	88
982.609	78
984.072	74
985.534	72
986.997	60
988.459	72
989.92	68
991.382	74
992.842	72
994.302	66
995.763	68
997.222	54
998.681	62
1000.14	62
1001.6	68
1003.06	62
1004.52	64
1005.97	66
1007.43	64
1008.89	64
1010.34	74
1011.8	70
1013.25	62
1014.71	72
1016.16	66
1017.62	76
1019.07	74
1020.53	74
1021.98	86
1023.43	72
1024.89	80
1026.34	88
1027.79	88
1029.24	92
1030.69	84
1032.14	100
1033.59	98
1035.04	102
1036.49	92
1037.94	86
1039.39	96
1040.84	96
1042.29	70
1043.73	82
1045.18	78
1046.63	76
1048.08	76
1049.52	68
1050.97	72
1052.41	70
1053.86	64
1055.3	66
1056.75	72
1058.19	68
1059.64	72
1061.08	64
1062.52	62
1063.96	64
1065.41	62
1066.85	64
1068.29	62
1069.73	60
1071.17	66
1072.61	70
1074.05	76
1075.49	60
1076.93	68
1078.37	62
1079.81	64
1081.25	68
1082.68	62
1084.12	64
1085.56	62
1087	64
1088.43	68
1089.87	70
1091.3	74
1092.74	66
1094.17	58
1095.61	68
1097.04	68
1098.48	68
1099.91	72
1101.34	86
1102.78	92
1104.21	100
1105.64	102
1107.07	144
1108.5	190
1109.93	266
1111.36	350
1112.8	370
1114.22	312
1115.65	250
1117.08	200
1118.51	152
1119.94	134
1121.37	120
1122.8	112
1124.22	108
1125.65	102
1127.08	98
1128.5	92
1129.93	86
1131.35	92
1132.78	84
1134.2	78
1135.63	86
1137.05	76
1138.48	82
1139.9	84
1141.32	82
1142.75	92
1144.17	78
1145.59	74
1147.01	74
1148.43	80
1149.85	82
1151.27	68
1152.69	72
1154.11	72
1155.53	76
1156.95	80
1158.37	86
1159.79	98
1161.21	96
1162.62	100
1164.04	94
1165.46	96
1166.87	92
1168.29	90
1169.71	82
1171.12	76
1172.54	94
1173.95	88
1175.37	96
1176.78	102
1178.19	120
1179.61	132
1181.02	154
1182.43	176
1183.84	196
1185.26	244
1186.67	236
1188.08	246
1189.49	204
1190.9	180
1192.31	166
1193.72	158
1195.13	164
1196.54	154
1197.95	154
1199.36	164
1200.76	180
1202.17	168
1203.58	176
1204.99	156
1206.39	160
1207.8	150
1209.2	118
1210.61	112
1212.01	108
1213.42	96
1214.82	100
1216.23	90
1217.63	82
1219.03	76
1220.44	92
1221.84	86
1223.24	102
1224.64	94
1226.05	116
1227.45	124
1228.85	132
1230.25	128
1231.65	136
1233.05	118
1234.45	112
1235.85	100
1237.25	84
1238.64	92
1240.04	80
1241.44	98
1242.84	92
1244.23	84
1245.63	82
1247.03	90
1248.42	86
1249.82	88
1251.21	82
1252.61	94
1254	86
1255.4	90
1256.79	90
1258.19	90
1259.58	90
1260.97	104
1262.36	98
1263.76	94
1265.15	100
1266.54	92
1267.93	100
1269.32	96
1270.71	102
1272.1	92
1273.49	100
1274.88	106
1276.27	104
1277.66	122
1279.05	110
1280.43	126
1281.82	122
1283.21	124
1284.6	136
1285.98	154
1287.37	152
1288.75	164
1290.14	166
1291.53	178
1292.91	186
1294.29	214
1295.68	238
1297.06	292
1298.45	350
1299.83	438
1301.21	556
1302.59	702
1303.98	748
1305.36	822
1306.74	752
1308.12	628
1309.5	514
1310.88	406
1312.26	352
1313.64	304
1315.02	266
1316.4	246
1317.78	218
1319.16	212
1320.53	196
1321.91	184
1323.29	194
1324.67	184
1326.04	170
1327.42	188
1328.79	180
1330.17	184
1331.54	158
1332.92	166
1334.29	166
1335.67	148
1337.04	152
1338.42	150
1339.79	154
1341.16	152
1342.53	156
1343.91	160
1345.28	150
1346.65	154
1348.02	166
1349.39	170
1350.76	178
1352.13	168
1353.5	168
1354.87	162
1356.24	158
1357.61	154
1358.98	156
1360.34	154
1361.71	148
1363.08	148
1364.45	140
1365.81	158
1367.18	172
1368.54	168
1369.91	170
1371.28	192
1372.64	240
1374.01	268
1375.37	334
1376.73	394
1378.1	414
1379.46	422
1380.82	422
1382.19	398
1383.55	358
1384.91	308
1386.27	260
1387.63	220
1388.99	192
1390.35	168
1391.71	156
1393.07	146
1394.43	142
1395.79	134
1397.15	140
1398.51	138
1399.87	134
1401.23	128
1402.58	132
1403.94	138
1405.3	132
1406.65	142
1408.01	146
1409.37	142
1410.72	126
1412.08	140
1413.43	132
1414.79	148
1416.14	156
1417.49	150
1418.85	150
1420.2	158
1421.55	164
1422.91	178
1424.26	192
1425.61	186
1426.96	166
1428.31	188
1429.66	186
1431.01	186
1432.36	196
1433.71	204
1435.06	212
1436.41	196
1437.76	220
1439.11	194
1440.46	212
1441.81	208
1443.15	210
1444.5	202
1445.85	188
1447.19	186
1448.54	176
1449.89	176
1451.23	166
1452.58	176
1453.92	168
1455.27	156
1456.61	156
1457.95	156
1459.3	144
1460.64	164
1461.98	160
1463.33	156
1464.67	142
1466.01	152
1467.35	154
1468.69	152
1470.03	142
1471.37	152
1472.71	160
1474.05	148
1475.39	130
1476.73	156
1478.07	140
1479.41	136
1480.75	146
1482.09	144
1483.42	134
1484.76	126
1486.1	116
1487.43	126
1488.77	124
1490.11	112
1491.44	110
1492.78	120
1494.11	112
1495.45	118
1496.78	114
1498.12	118
1499.45	112
1500.78	120
1502.11	112
1503.45	114
1504.78	114
1506.11	108
1507.44	110
1508.77	112
1510.11	116
1511.44	118
1512.77	116
1514.1	106
1515.43	98
1516.76	108
1518.08	118
1519.41	106
1520.74	110
1522.07	110
1523.4	106
1524.72	112
1526.05	100
1527.38	96
1528.7	104
1530.03	108
1531.36	108
1532.68	100
1534.01	104
1535.33	104
1536.66	112
1537.98	116
1539.3	102
1540.63	118
1541.95	110
1543.27	120
1544.6	104
1545.92	100
1547.24	114
1548.56	104
1549.88	112
1551.2	126
1552.52	102
1553.84	106
1555.17	110
1556.48	106
1557.8	114
1559.12	110
1560.44	110
1561.76	92
1563.08	108
1564.4	114
1565.71	116
1567.03	124
1568.35	122
1569.66	114
1570.98	120
1572.29	120
1573.61	124
1574.93	124
1576.24	138
1577.55	146
1578.87	150
1580.18	148
1581.5	156
1582.81	178
1584.12	172
1585.43	194
1586.75	210
1588.06	222
1589.37	242
1590.68	250
1591.99	278
1593.3	318
1594.61	336
1595.92	350
1597.23	392
1598.54	428
1599.85	452
1601.16	464
1602.47	460
1603.78	474
1605.08	458
1606.39	426
1607.7	388
1609	374
1610.31	360
1611.62	308
1612.92	316
1614.23	270
1615.53	242
1616.84	238
1618.14	208
1619.45	188
1620.75	172
1622.06	154
1623.36	142
1624.66	134
1625.96	128
1627.27	114
1628.57	116
1629.87	116
1631.17	114
1632.47	108
1633.77	108
1635.07	100
1636.37	100
1637.67	100
1638.97	92
1640.27	90
1641.57	98
1642.87	88
1644.17	82
1645.47	84
1646.76	82
1648.06	90
1649.36	84
1650.66	78
1651.95	86
1653.25	84
1654.54	74
1655.84	72
1657.13	86
1658.43	84
1659.72	84
1661.02	86
1662.31	80
1663.6	80
1664.9	72
1666.19	80
1667.48	76
1668.78	84
1670.07	72
1671.36	74
1672.65	80
1673.94	80
1675.23	78
1676.52	78
1677.81	78
1679.1	66
1680.39	74
1681.68	76
1682.97	74
1684.26	78
1685.55	88
1686.83	76
1688.12	82
1689.41	84
1690.7	80
1691.98	80
1693.27	80
1694.55	80
1695.84	78
1697.13	82
1698.41	82
1699.69	72
1700.98	78
1702.26	82