File: Jesse_Dataset_v2/Pure Raman/Polypropylene oxide/785nm/ps-ppo-6jan25-0,0000-map2_Y10_X04.txt
204.377	354
206.045	330
207.713	346
209.38	316
211.048	304
212.715	282
214.381	288
216.047	298
217.712	318
219.377	318
221.042	344
222.706	392
224.369	410
226.032	518
227.695	562
229.357	698
231.019	820
232.68	874
234.341	910
236.001	868
237.661	836
239.321	748
240.98	684
242.639	612
244.297	556
245.955	486
247.612	446
249.268	414
250.924	346
252.58	334
254.236	302
255.891	266
257.546	234
259.2	216
260.854	204
262.507	192
264.16	194
265.812	172
267.463	168
269.115	168
270.766	166
272.417	168
274.067	154
275.717	164
277.365	170
279.014	170
280.663	180
282.311	188
283.958	194
285.605	230
287.252	266
288.898	284
290.543	344
292.188	374
293.833	394
295.477	398
297.121	378
298.765	366
300.407	346
302.05	316
303.693	296
305.334	280
306.975	264
308.615	250
310.256	242
311.896	228
313.535	232
315.175	208
316.813	200
318.451	204
320.089	202
321.726	202
323.362	212
324.999	224
326.635	210
328.271	226
329.905	226
331.54	222
333.174	232
334.807	234
336.441	228
338.074	212
339.707	210
341.338	202
342.969	196
344.601	184
346.231	190
347.861	178
349.491	184
351.12	198
352.749	192
354.378	198
356.006	196
357.633	196
359.261	184
360.887	190
362.513	180
364.139	182
365.764	160
367.39	170
369.014	180
370.638	174
372.261	172
373.884	176
375.508	176
377.13	164
378.752	150
380.373	146
381.994	144
383.615	118
385.235	124
386.854	116
388.473	124
390.092	104
391.711	128
393.328	112
394.947	112
396.564	106
398.181	120
399.797	122
401.412	122
403.027	118
404.642	120
406.257	128
407.871	138
409.484	168
411.098	176
412.711	194
414.323	200
415.935	196
417.547	172
419.158	166
420.768	150
422.378	140
423.988	132
425.597	118
427.206	112
428.814	106
430.422	106
432.03	96
433.637	84
435.243	88
436.85	88
438.456	74
440.062	84
441.666	86
443.271	84
444.876	76
446.479	78
448.082	66
449.685	78
451.287	74
452.89	74
454.492	74
456.092	70
457.693	72
459.293	84
460.893	82
462.492	78
464.092	90
465.691	102
467.288	102
468.887	122
470.483	138
472.081	132
473.677	164
475.273	166
476.869	182
478.463	210
480.059	214
481.653	232
483.247	260
484.84	250
486.433	258
488.026	214
489.618	162
491.21	162
492.801	144
494.392	130
495.983	112
497.573	98
499.162	108
500.752	88
502.341	92
503.929	100
505.517	102
507.105	110
508.692	114
510.279	146
511.865	196
513.45	194
515.037	194
516.621	154
518.206	136
519.79	134
521.374	138
522.957	150
524.54	150
526.123	162
527.705	184
529.287	198
530.868	248
532.448	280
534.029	314
535.609	360
537.188	392
538.768	416
540.346	382
541.925	354
543.502	322
545.08	272
546.657	230
548.234	200
549.81	182
551.386	184
552.961	178
554.536	184
556.11	216
557.684	246
559.258	298
560.832	370
562.405	452
563.977	662
565.55	908
567.12	1272
568.692	1742
570.263	2078
571.833	2058
573.403	1740
574.973	1292
576.542	886
578.111	592
579.679	436
581.247	342
582.815	318
584.382	300
585.948	308
587.514	284
589.081	262
590.645	250
592.211	240
593.775	230
595.339	230
596.904	202
598.466	184
600.03	172
601.592	138
603.154	110
604.715	106
606.277	98
607.838	96
609.398	92
610.958	92
612.518	78
614.077	86
615.636	82
617.194	82
618.753	94
620.31	78
621.867	98
623.424	100
624.98	116
626.537	116
628.092	122
629.647	116
631.202	122
632.756	136
634.31	144
635.864	130
637.417	136
638.969	126
640.521	136
642.074	118
643.625	106
645.176	108
646.726	92
648.276	84
649.827	90
651.376	88
652.925	78
654.473	84
656.021	76
657.569	78
659.117	74
660.664	74
662.21	66
663.757	62
665.302	66
666.847	66
668.392	66
669.937	64
671.481	56
673.025	60
674.568	58
676.111	62
677.653	52
679.195	56
680.737	62
682.279	62
683.82	56
685.36	54
686.9	56
688.44	58
689.979	54
691.517	56
693.056	56
694.594	54
696.132	60
697.669	56
699.206	56
700.742	60
702.278	58
703.814	66
705.35	68
706.884	64
708.419	78
709.953	72
711.487	82
713.019	86
714.552	94
716.085	94
717.617	84
719.148	76
720.68	68
722.21	60
723.741	72
725.271	72
726.8	66
728.33	78
729.858	68
731.387	68
732.915	76
734.443	72
735.97	68
737.497	76
739.023	82
740.549	90
742.075	92
743.6	96
745.125	116
746.65	124
748.173	138
749.697	118
751.22	112
752.743	112
754.266	104
755.788	106
757.309	92
758.831	84
760.351	78
761.871	82
763.392	68
764.912	70
766.431	60
767.95	64
769.468	70
770.986	72
772.504	64
774.022	70
775.538	78
777.055	80
778.571	74
780.086	72
781.602	72
783.117	70
784.632	70
786.146	64
787.659	66
789.173	68
790.685	64
792.198	72
793.71	58
795.222	58
796.733	60
798.244	52
799.755	68
801.265	66
802.775	66
804.284	66
805.793	64
807.302	72
808.81	74
810.318	72
811.826	68
813.333	62
814.84	72
816.346	72
817.851	74
819.357	82
820.862	84
822.367	94
823.871	110
825.376	128
826.878	154
828.382	214
829.885	304
831.387	450
832.889	520
834.391	474
835.892	340
837.392	210
838.893	146
840.393	116
841.893	106
843.392	102
844.891	98
846.389	84
847.888	96
849.386	90
850.882	88
852.38	88
853.876	84
855.372	82
856.868	78
858.363	76
859.858	78
861.353	66
862.847	80
864.341	68
865.834	64
867.328	70
868.82	70
870.313	64
871.805	58
873.296	68
874.787	56
876.278	62
877.769	60
879.258	62
880.748	62
882.237	58
883.726	66
885.214	62
886.702	56
888.19	52
889.677	52
891.164	54
892.651	58
894.137	52
895.623	56
897.108	52
898.593	56
900.077	58
901.562	44
903.046	54
904.529	58
906.012	58
907.495	60
908.977	56
910.459	62
911.941	54
913.422	52
914.903	44
916.383	58
917.863	58
919.343	56
920.822	56
922.301	54
923.779	64
925.257	54
926.735	52
928.213	56
929.69	64
931.166	66
932.643	58
934.119	60
935.594	64
937.069	70
938.543	70
940.018	72
941.492	82
942.966	76
944.439	88
945.911	92
947.384	96
948.856	114
950.328	134
951.799	170
953.27	188
954.741	250
956.21	278
957.68	320
959.15	338
960.619	342
962.088	318
963.556	310
965.023	252
966.491	228
967.958	194
969.425	178
970.891	158
972.357	148
973.824	128
975.288	106
976.754	86
978.218	88
979.682	84
981.146	70
982.609	78
984.072	76
985.534	66
986.997	70
988.459	64
989.92	72
991.382	68
992.842	70
994.302	66
995.763	62
997.222	66
998.681	62
1000.14	68
1001.6	66
1003.06	64
1004.52	60
1005.97	64
1007.43	58
1008.89	68
1010.34	60
1011.8	64
1013.25	66
1014.71	60
1016.16	64
1017.62	64
1019.07	70
1020.53	76
1021.98	74
1023.43	82
1024.89	76
1026.34	78
1027.79	82
1029.24	88
1030.69	92
1032.14	96
1033.59	80
1035.04	96
1036.49	86
1037.94	86
1039.39	82
1040.84	96
1042.29	80
1043.73	72
1045.18	78
1046.63	72
1048.08	68
1049.52	72
1050.97	60
1052.41	70
1053.86	56
1055.3	64
1056.75	66
1058.19	70
1059.64	58
1061.08	58
1062.52	64
1063.96	56
1065.41	58
1066.85	60
1068.29	58
1069.73	60
1071.17	54
1072.61	64
1074.05	58
1075.49	60
1076.93	60
1078.37	60
1079.81	64
1081.25	60
1082.68	64
1084.12	66
1085.56	64
1087	58
1088.43	58
1089.87	64
1091.3	64
1092.74	66
1094.17	66
1095.61	64
1097.04	74
1098.48	68
1099.91	76
1101.34	76
1102.78	84
1104.21	86
1105.64	104
1107.07	140
1108.5	174
1109.93	242
1111.36	300
1112.8	326
1114.22	296
1115.65	234
1117.08	178
1118.51	152
1119.94	118
1121.37	114
1122.8	100
1124.22	94
1125.65	84
1127.08	90
1128.5	84
1129.93	82
1131.35	74
1132.78	82
1134.2	84
1135.63	80
1137.05	80
1138.48	80
1139.9	84
1141.32	82
1142.75	86
1144.17	80
1145.59	74
1147.01	72
1148.43	74
1149.85	70
1151.27	68
1152.69	72
1154.11	84
1155.53	78
1156.95	76
1158.37	76
1159.79	84
1161.21	90
1162.62	86
1164.04	90
1165.46	86
1166.87	82
1168.29	80
1169.71	86
1171.12	84
1172.54	80
1173.95	80
1175.37	92
1176.78	98
1178.19	106
1179.61	116
1181.02	126
1182.43	160
1183.84	192
1185.26	208
1186.67	210
1188.08	216
1189.49	182
1190.9	160
1192.31	150
1193.72	150
1195.13	146
1196.54	142
1197.95	148
1199.36	146
1200.76	144
1202.17	150
1203.58	160
1204.99	158
1206.39	142
1207.8	130
1209.2	122
1210.61	116
1212.01	100
1213.42	98
1214.82	86
1216.23	90
1217.63	96
1219.03	96
1220.44	84
1221.84	90
1223.24	90
1224.64	92
1226.05	106
1227.45	120
1228.85	116
1230.25	116
1231.65	122
1233.05	106
1234.45	116
1235.85	98
1237.25	92
1238.64	90
1240.04	88
1241.44	88
1242.84	92
1244.23	86
1245.63	88
1247.03	80
1248.42	88
1249.82	80
1251.21	82
1252.61	82
1254	88
1255.4	78
1256.79	92
1258.19	100
1259.58	88
1260.97	78
1262.36	92
1263.76	92
1265.15	96
1266.54	88
1267.93	94
1269.32	90
1270.71	88
1272.1	92
1273.49	102
1274.88	96
1276.27	102
1277.66	110
1279.05	118
1280.43	110
1281.82	122
1283.21	132
1284.6	130
1285.98	142
1287.37	134
1288.75	156
1290.14	158
1291.53	160
1292.91	160
1294.29	206
1295.68	222
1297.06	246
1298.45	320
1299.83	392
1301.21	486
1302.59	592
1303.98	674
1305.36	678
1306.74	686
1308.12	556
1309.5	468
1310.88	366
1312.26	314
1313.64	268
1315.02	218
1316.4	222
1317.78	198
1319.16	188
1320.53	176
1321.91	174
1323.29	182
1324.67	180
1326.04	156
1327.42	154
1328.79	164
1330.17	170
1331.54	150
1332.92	152
1334.29	146
1335.67	132
1337.04	136
1338.42	142
1339.79	136
1341.16	140
1342.53	138
1343.91	150
1345.28	158
1346.65	148
1348.02	154
1349.39	158
1350.76	160
1352.13	160
1353.5	162
1354.87	150
1356.24	150
1357.61	144
1358.98	142
1360.34	134
1361.71	130
1363.08	140
1364.45	132
1365.81	146
1367.18	150
1368.54	162
1369.91	154
1371.28	172
1372.64	212
1374.01	254
1375.37	328
1376.73	358
1378.1	374
1379.46	384
1380.82	382
1382.19	352
1383.55	314
1384.91	282
1386.27	250
1387.63	208
1388.99	186
1390.35	162
1391.71	150
1393.07	142
1394.43	140
1395.79	134
1397.15	142
1398.51	120
1399.87	138
1401.23	138
1402.58	136
1403.94	130
1405.3	130
1406.65	128
1408.01	126
1409.37	126
1410.72	128
1412.08	132
1413.43	134
1414.79	140
1416.14	132
1417.49	142
1418.85	144
1420.2	148
1421.55	162
1422.91	152
1424.26	160
1425.61	160
1426.96	172
1428.31	178
1429.66	176
1431.01	172
1432.36	186
1433.71	182
1435.06	194
1436.41	184
1437.76	200
1439.11	204
1440.46	194
1441.81	210
1443.15	190
1444.5	180
1445.85	170
1447.19	168
1448.54	170
1449.89	158
1451.23	160
1452.58	164
1453.92	160
1455.27	150
1456.61	150
1457.95	152
1459.3	148
1460.64	150
1461.98	146
1463.33	138
1464.67	146
1466.01	134
1467.35	140
1468.69	138
1470.03	136
1471.37	144
1472.71	144
1474.05	150
1475.39	142
1476.73	134
1478.07	136
1479.41	148
1480.75	130
1482.09	126
1483.42	124
1484.76	132
1486.1	128
1487.43	110
1488.77	118
1490.11	120
1491.44	110
1492.78	110
1494.11	106
1495.45	112
1496.78	112
1498.12	104
1499.45	108
1500.78	108
1502.11	106
1503.45	110
1504.78	114
1506.11	104
1507.44	108
1508.77	106
1510.11	108
1511.44	106
1512.77	110
1514.1	108
1515.43	106
1516.76	110
1518.08	104
1519.41	110
1520.74	106
1522.07	108
1523.4	98
1524.72	106
1526.05	98
1527.38	94
1528.7	98
1530.03	98
1531.36	94
1532.68	94
1534.01	104
1535.33	100
1536.66	98
1537.98	106
1539.3	102
1540.63	100
1541.95	104
1543.27	102
1544.6	100
1545.92	92
1547.24	102
1548.56	104
1549.88	112
1551.2	112
1552.52	96
1553.84	98
1555.17	106
1556.48	104
1557.8	98
1559.12	96
1560.44	108
1561.76	102
1563.08	106
1564.4	110
1565.71	112
1567.03	102
1568.35	102
1569.66	98
1570.98	118
1572.29	114
1573.61	118
1574.93	134
1576.24	128
1577.55	130
1578.87	122
1580.18	136
1581.5	146
1582.81	152
1584.12	164
1585.43	172
1586.75	190
1588.06	186
1589.37	218
1590.68	246
1591.99	264
1593.3	278
1594.61	304
1595.92	338
1597.23	364
1598.54	378
1599.85	400
1601.16	404
1602.47	426
1603.78	414
1605.08	410
1606.39	396
1607.7	370
1609	340
1610.31	312
1611.62	282
1612.92	262
1614.23	250
1615.53	210
1616.84	200
1618.14	194
1619.45	168
1620.75	154
1622.06	142
1623.36	128
1624.66	130
1625.96	116
1627.27	112
1628.57	114
1629.87	104
1631.17	100
1632.47	104
1633.77	96
1635.07	86
1636.37	92
1637.67	88
1638.97	90
1640.27	82
1641.57	78
1642.87	82
1644.17	88
1645.47	90
1646.76	92
1648.06	92
1649.36	86
1650.66	86
1651.95	84
1653.25	80
1654.54	74
1655.84	82
1657.13	74
1658.43	82
1659.72	78
1661.02	74
1662.31	70
1663.6	80
1664.9	78
1666.19	80
1667.48	80
1668.78	84
1670.07	76
1671.36	72
1672.65	72
1673.94	68
1675.23	76
1676.52	72
1677.81	68
1679.1	72
1680.39	80
1681.68	76
1682.97	78
1684.26	74
1685.55	76
1686.83	70
1688.12	74
1689.41	76
1690.7	72
1691.98	76
1693.27	72
1694.55	86
1695.84	74
1697.13	80
1698.41	76
1699.69	72
1700.98	80
1702.26	74