File: Jesse_Dataset_v2/Pure Raman/Polypropylene oxide/785nm/ps-ppo-6jan25-0,0000-map2_Y08_X08.txt
204.377	330
206.045	330
207.713	316
209.38	324
211.048	304
212.715	302
214.381	300
216.047	292
217.712	290
219.377	312
221.042	326
222.706	372
224.369	412
226.032	490
227.695	582
229.357	674
231.019	802
232.68	860
234.341	854
236.001	830
237.661	780
239.321	716
240.98	660
242.639	600
244.297	540
245.955	498
247.612	410
249.268	392
250.924	340
252.58	304
254.236	290
255.891	258
257.546	254
259.2	228
260.854	202
262.507	188
264.16	178
265.812	178
267.463	174
269.115	158
270.766	170
272.417	164
274.067	156
275.717	176
277.365	162
279.014	166
280.663	174
282.311	178
283.958	204
285.605	228
287.252	254
288.898	286
290.543	324
292.188	362
293.833	388
295.477	398
297.121	388
298.765	374
300.407	354
302.05	316
303.693	270
305.334	256
306.975	258
308.615	246
310.256	228
311.896	226
313.535	224
315.175	214
316.813	210
318.451	204
320.089	186
321.726	198
323.362	210
324.999	214
326.635	210
328.271	208
329.905	222
331.54	224
333.174	230
334.807	230
336.441	224
338.074	222
339.707	208
341.338	214
342.969	184
344.601	200
346.231	176
347.861	202
349.491	192
351.12	178
352.749	190
354.378	200
356.006	196
357.633	186
359.261	180
360.887	192
362.513	160
364.139	156
365.764	162
367.39	164
369.014	170
370.638	166
372.261	180
373.884	180
375.508	176
377.13	156
378.752	146
380.373	140
381.994	122
383.615	128
385.235	128
386.854	116
388.473	116
390.092	124
391.711	114
393.328	110
394.947	110
396.564	116
398.181	110
399.797	118
401.412	120
403.027	114
404.642	118
406.257	140
407.871	144
409.484	156
411.098	162
412.711	196
414.323	182
415.935	186
417.547	190
419.158	164
420.768	154
422.378	136
423.988	126
425.597	116
427.206	104
428.814	102
430.422	98
432.03	102
433.637	94
435.243	72
436.85	80
438.456	76
440.062	86
441.666	78
443.271	70
444.876	74
446.479	86
448.082	72
449.685	72
451.287	74
452.89	74
454.492	72
456.092	68
457.693	82
459.293	80
460.893	86
462.492	78
464.092	92
465.691	96
467.288	112
468.887	118
470.483	120
472.081	130
473.677	152
475.273	166
476.869	178
478.463	198
480.059	220
481.653	218
483.247	250
484.84	258
486.433	228
488.026	210
489.618	182
491.21	152
492.801	140
494.392	124
495.983	110
497.573	96
499.162	102
500.752	84
502.341	98
503.929	92
505.517	98
507.105	104
508.692	104
510.279	142
511.865	184
513.45	192
515.037	186
516.621	146
518.206	132
519.79	126
521.374	136
522.957	146
524.54	152
526.123	156
527.705	182
529.287	194
530.868	238
532.448	286
534.029	332
535.609	354
537.188	386
538.768	396
540.346	380
541.925	372
543.502	326
545.08	274
546.657	230
548.234	200
549.81	174
551.386	178
552.961	178
554.536	192
556.11	206
557.684	238
559.258	302
560.832	358
562.405	456
563.977	632
565.55	888
567.12	1270
568.692	1724
570.263	2028
571.833	2004
573.403	1750
574.973	1296
576.542	824
578.111	594
579.679	414
581.247	352
582.815	298
584.382	288
585.948	280
587.514	270
589.081	250
590.645	220
592.211	238
593.775	232
595.339	208
596.904	204
598.466	186
600.03	156
601.592	148
603.154	118
604.715	104
606.277	100
607.838	88
609.398	92
610.958	86
612.518	78
614.077	78
615.636	78
617.194	88
618.753	86
620.31	94
621.867	98
623.424	104
624.98	98
626.537	114
628.092	118
629.647	122
631.202	122
632.756	130
634.31	138
635.864	142
637.417	130
638.969	116
640.521	122
642.074	120
643.625	98
645.176	102
646.726	92
648.276	86
649.827	88
651.376	78
652.925	90
654.473	80
656.021	78
657.569	70
659.117	66
660.664	68
662.21	62
663.757	62
665.302	52
666.847	62
668.392	62
669.937	58
671.481	56
673.025	60
674.568	52
676.111	56
677.653	52
679.195	54
680.737	52
682.279	64
683.82	58
685.36	56
686.9	58
688.44	58
689.979	54
691.517	56
693.056	58
694.594	54
696.132	58
697.669	54
699.206	50
700.742	56
702.278	60
703.814	66
705.35	60
706.884	68
708.419	72
709.953	72
711.487	78
713.019	82
714.552	92
716.085	88
717.617	84
719.148	78
720.68	74
722.21	68
723.741	66
725.271	70
726.8	64
728.33	72
729.858	68
731.387	80
732.915	74
734.443	70
735.97	72
737.497	76
739.023	78
740.549	88
742.075	86
743.6	108
745.125	118
746.65	120
748.173	126
749.697	114
751.22	116
752.743	116
754.266	116
755.788	106
757.309	98
758.831	80
760.351	70
761.871	66
763.392	72
764.912	64
766.431	66
767.95	68
769.468	62
770.986	62
772.504	68
774.022	66
775.538	68
777.055	74
778.571	74
780.086	76
781.602	72
783.117	70
784.632	74
786.146	74
787.659	64
789.173	62
790.685	60
792.198	60
793.71	62
795.222	60
796.733	56
798.244	62
799.755	66
801.265	58
802.775	68
804.284	64
805.793	66
807.302	70
808.81	72
810.318	76
811.826	66
813.333	68
814.84	76
816.346	72
817.851	74
819.357	80
820.862	82
822.367	92
823.871	102
825.376	110
826.878	144
828.382	216
829.885	296
831.387	428
832.889	512
834.391	472
835.892	352
837.392	222
838.893	156
840.393	122
841.893	104
843.392	80
844.891	92
846.389	92
847.888	94
849.386	86
850.882	92
852.38	88
853.876	78
855.372	76
856.868	80
858.363	82
859.858	68
861.353	72
862.847	76
864.341	72
865.834	58
867.328	74
868.82	64
870.313	66
871.805	60
873.296	58
874.787	54
876.278	54
877.769	58
879.258	56
880.748	56
882.237	52
883.726	56
885.214	50
886.702	60
888.19	56
889.677	56
891.164	50
892.651	54
894.137	50
895.623	48
897.108	58
898.593	52
900.077	56
901.562	52
903.046	52
904.529	60
906.012	56
907.495	54
908.977	56
910.459	52
911.941	50
913.422	52
914.903	50
916.383	50
917.863	54
919.343	52
920.822	56
922.301	48
923.779	52
925.257	58
926.735	56
928.213	60
929.69	56
931.166	64
932.643	62
934.119	66
935.594	68
937.069	70
938.543	70
940.018	72
941.492	60
942.966	78
944.439	82
945.911	94
947.384	106
948.856	116
950.328	128
951.799	158
953.27	184
954.741	222
956.21	264
957.68	302
959.15	324
960.619	326
962.088	312
963.556	306
965.023	246
966.491	226
967.958	194
969.425	174
970.891	156
972.357	144
973.824	122
975.288	106
976.754	94
978.218	82
979.682	78
981.146	78
982.609	74
984.072	68
985.534	66
986.997	68
988.459	62
989.92	72
991.382	76
992.842	70
994.302	58
995.763	60
997.222	60
998.681	62
1000.14	52
1001.6	58
1003.06	60
1004.52	62
1005.97	54
1007.43	58
1008.89	58
1010.34	52
1011.8	64
1013.25	56
1014.71	64
1016.16	68
1017.62	56
1019.07	70
1020.53	70
1021.98	74
1023.43	70
1024.89	78
1026.34	76
1027.79	78
1029.24	86
1030.69	90
1032.14	84
1033.59	88
1035.04	88
1036.49	90
1037.94	84
1039.39	82
1040.84	84
1042.29	84
1043.73	78
1045.18	72
1046.63	72
1048.08	66
1049.52	62
1050.97	58
1052.41	62
1053.86	66
1055.3	58
1056.75	64
1058.19	60
1059.64	58
1061.08	64
1062.52	64
1063.96	60
1065.41	62
1066.85	60
1068.29	68
1069.73	62
1071.17	64
1072.61	56
1074.05	58
1075.49	60
1076.93	58
1078.37	58
1079.81	54
1081.25	60
1082.68	60
1084.12	56
1085.56	60
1087	54
1088.43	62
1089.87	62
1091.3	66
1092.74	60
1094.17	62
1095.61	66
1097.04	68
1098.48	66
1099.91	72
1101.34	72
1102.78	90
1104.21	86
1105.64	102
1107.07	134
1108.5	170
1109.93	244
1111.36	300
1112.8	314
1114.22	280
1115.65	232
1117.08	170
1118.51	140
1119.94	124
1121.37	92
1122.8	92
1124.22	94
1125.65	80
1127.08	82
1128.5	76
1129.93	76
1131.35	80
1132.78	74
1134.2	72
1135.63	70
1137.05	76
1138.48	74
1139.9	90
1141.32	82
1142.75	76
1144.17	72
1145.59	72
1147.01	68
1148.43	72
1149.85	66
1151.27	68
1152.69	74
1154.11	72
1155.53	72
1156.95	78
1158.37	82
1159.79	80
1161.21	82
1162.62	94
1164.04	88
1165.46	86
1166.87	76
1168.29	86
1169.71	82
1171.12	76
1172.54	78
1173.95	86
1175.37	92
1176.78	100
1178.19	110
1179.61	110
1181.02	122
1182.43	152
1183.84	176
1185.26	196
1186.67	220
1188.08	198
1189.49	184
1190.9	168
1192.31	146
1193.72	140
1195.13	148
1196.54	124
1197.95	142
1199.36	156
1200.76	146
1202.17	148
1203.58	144
1204.99	152
1206.39	146
1207.8	132
1209.2	108
1210.61	102
1212.01	98
1213.42	84
1214.82	98
1216.23	90
1217.63	82
1219.03	86
1220.44	90
1221.84	88
1223.24	86
1224.64	96
1226.05	94
1227.45	108
1228.85	112
1230.25	132
1231.65	116
1233.05	106
1234.45	94
1235.85	86
1237.25	96
1238.64	78
1240.04	78
1241.44	82
1242.84	82
1244.23	84
1245.63	84
1247.03	80
1248.42	80
1249.82	72
1251.21	84
1252.61	76
1254	80
1255.4	82
1256.79	86
1258.19	78
1259.58	80
1260.97	80
1262.36	84
1263.76	84
1265.15	96
1266.54	92
1267.93	92
1269.32	90
1270.71	86
1272.1	92
1273.49	88
1274.88	94
1276.27	98
1277.66	94
1279.05	114
1280.43	116
1281.82	118
1283.21	122
1284.6	114
1285.98	132
1287.37	138
1288.75	146
1290.14	162
1291.53	158
1292.91	170
1294.29	186
1295.68	216
1297.06	260
1298.45	314
1299.83	364
1301.21	470
1302.59	574
1303.98	670
1305.36	662
1306.74	642
1308.12	574
1309.5	452
1310.88	356
1312.26	292
1313.64	272
1315.02	236
1316.4	212
1317.78	208
1319.16	180
1320.53	164
1321.91	174
1323.29	162
1324.67	164
1326.04	150
1327.42	168
1328.79	158
1330.17	160
1331.54	146
1332.92	138
1334.29	138
1335.67	130
1337.04	140
1338.42	118
1339.79	126
1341.16	134
1342.53	132
1343.91	146
1345.28	136
1346.65	154
1348.02	142
1349.39	146
1350.76	164
1352.13	164
1353.5	148
1354.87	150
1356.24	136
1357.61	144
1358.98	134
1360.34	144
1361.71	136
1363.08	138
1364.45	134
1365.81	140
1367.18	140
1368.54	136
1369.91	164
1371.28	166
1372.64	212
1374.01	254
1375.37	288
1376.73	338
1378.1	384
1379.46	368
1380.82	382
1382.19	320
1383.55	322
1384.91	288
1386.27	232
1387.63	210
1388.99	182
1390.35	156
1391.71	152
1393.07	140
1394.43	144
1395.79	122
1397.15	132
1398.51	110
1399.87	120
1401.23	128
1402.58	120
1403.94	126
1405.3	132
1406.65	122
1408.01	122
1409.37	124
1410.72	120
1412.08	126
1413.43	130
1414.79	134
1416.14	138
1417.49	140
1418.85	136
1420.2	148
1421.55	156
1422.91	154
1424.26	154
1425.61	170
1426.96	168
1428.31	164
1429.66	166
1431.01	164
1432.36	186
1433.71	170
1435.06	190
1436.41	180
1437.76	186
1439.11	192
1440.46	186
1441.81	188
1443.15	192
1444.5	178
1445.85	178
1447.19	154
1448.54	170
1449.89	158
1451.23	158
1452.58	140
1453.92	156
1455.27	148
1456.61	144
1457.95	142
1459.3	154
1460.64	152
1461.98	138
1463.33	138
1464.67	136
1466.01	136
1467.35	136
1468.69	132
1470.03	118
1471.37	138
1472.71	128
1474.05	132
1475.39	126
1476.73	134
1478.07	128
1479.41	138
1480.75	130
1482.09	130
1483.42	124
1484.76	122
1486.1	118
1487.43	112
1488.77	104
1490.11	108
1491.44	104
1492.78	114
1494.11	108
1495.45	108
1496.78	104
1498.12	108
1499.45	106
1500.78	104
1502.11	114
1503.45	110
1504.78	106
1506.11	100
1507.44	108
1508.77	98
1510.11	100
1511.44	100
1512.77	104
1514.1	100
1515.43	100
1516.76	100
1518.08	102
1519.41	118
1520.74	98
1522.07	102
1523.4	106
1524.72	96
1526.05	90
1527.38	90
1528.7	84
1530.03	110
1531.36	102
1532.68	102
1534.01	96
1535.33	104
1536.66	100
1537.98	92
1539.3	96
1540.63	102
1541.95	90
1543.27	102
1544.6	88
1545.92	118
1547.24	86
1548.56	100
1549.88	112
1551.2	96
1552.52	98
1553.84	100
1555.17	98
1556.48	90
1557.8	102
1559.12	92
1560.44	108
1561.76	100
1563.08	104
1564.4	96
1565.71	108
1567.03	104
1568.35	100
1569.66	106
1570.98	112
1572.29	112
1573.61	120
1574.93	118
1576.24	114
1577.55	124
1578.87	126
1580.18	134
1581.5	146
1582.81	156
1584.12	164
1585.43	166
1586.75	192
1588.06	194
1589.37	214
1590.68	226
1591.99	246
1593.3	262
1594.61	300
1595.92	310
1597.23	370
1598.54	384
1599.85	388
1601.16	408
1602.47	406
1603.78	416
1605.08	392
1606.39	378
1607.7	342
1609	308
1610.31	300
1611.62	284
1612.92	258
1614.23	252
1615.53	218
1616.84	200
1618.14	174
1619.45	170
1620.75	150
1622.06	138
1623.36	132
1624.66	118
1625.96	118
1627.27	112
1628.57	106
1629.87	100
1631.17	106
1632.47	100
1633.77	94
1635.07	92
1636.37	84
1637.67	80
1638.97	90
1640.27	84
1641.57	78
1642.87	82
1644.17	82
1645.47	82
1646.76	78
1648.06	76
1649.36	78
1650.66	80
1651.95	78
1653.25	78
1654.54	74
1655.84	80
1657.13	76
1658.43	76
1659.72	80
1661.02	68
1662.31	84
1663.6	76
1664.9	80
1666.19	74
1667.48	76
1668.78	72
1670.07	70
1671.36	68
1672.65	76
1673.94	78
1675.23	68
1676.52	76
1677.81	68
1679.1	70
1680.39	62
1681.68	68
1682.97	66
1684.26	74
1685.55	74
1686.83	76
1688.12	62
1689.41	72
1690.7	78
1691.98	76
1693.27	74
1694.55	74
1695.84	72
1697.13	76
1698.41	76
1699.69	66
1700.98	84
1702.26	74