File: Jesse_Dataset_v2/Pure Raman/Polypropylene oxide/785nm/ps-ppo-6jan25-0,0000-map2_Y02_X00.txt
204.377	392
206.045	390
207.713	380
209.38	360
211.048	360
212.715	348
214.381	338
216.047	352
217.712	346
219.377	364
221.042	396
222.706	430
224.369	488
226.032	570
227.695	698
229.357	824
231.019	930
232.68	1022
234.341	1052
236.001	996
237.661	956
239.321	868
240.98	828
242.639	740
244.297	672
245.955	574
247.612	518
249.268	472
250.924	418
252.58	392
254.236	338
255.891	324
257.546	278
259.2	248
260.854	230
262.507	232
264.16	216
265.812	210
267.463	206
269.115	194
270.766	190
272.417	188
274.067	172
275.717	196
277.365	182
279.014	192
280.663	200
282.311	220
283.958	240
285.605	262
287.252	288
288.898	350
290.543	386
292.188	408
293.833	454
295.477	448
297.121	442
298.765	404
300.407	386
302.05	378
303.693	346
305.334	328
306.975	290
308.615	290
310.256	286
311.896	272
313.535	260
315.175	232
316.813	246
318.451	242
320.089	224
321.726	230
323.362	234
324.999	240
326.635	252
328.271	258
329.905	274
331.54	270
333.174	268
334.807	276
336.441	262
338.074	258
339.707	248
341.338	228
342.969	218
344.601	224
346.231	210
347.861	230
349.491	222
351.12	226
352.749	212
354.378	232
356.006	226
357.633	226
359.261	214
360.887	208
362.513	202
364.139	192
365.764	194
367.39	210
369.014	208
370.638	206
372.261	206
373.884	212
375.508	192
377.13	192
378.752	164
380.373	172
381.994	166
383.615	158
385.235	140
386.854	146
388.473	146
390.092	148
391.711	146
393.328	132
394.947	142
396.564	134
398.181	132
399.797	128
401.412	136
403.027	136
404.642	144
406.257	144
407.871	160
409.484	178
411.098	188
412.711	210
414.323	226
415.935	210
417.547	210
419.158	184
420.768	168
422.378	174
423.988	148
425.597	132
427.206	130
428.814	114
430.422	114
432.03	106
433.637	110
435.243	100
436.85	96
438.456	92
440.062	86
441.666	96
443.271	84
444.876	84
446.479	86
448.082	80
449.685	86
451.287	84
452.89	90
454.492	84
456.092	78
457.693	82
459.293	82
460.893	88
462.492	90
464.092	102
465.691	112
467.288	114
468.887	146
470.483	148
472.081	156
473.677	180
475.273	202
476.869	220
478.463	228
480.059	248
481.653	268
483.247	278
484.84	310
486.433	300
488.026	264
489.618	210
491.21	184
492.801	168
494.392	140
495.983	134
497.573	110
499.162	114
500.752	104
502.341	114
503.929	104
505.517	96
507.105	124
508.692	124
510.279	174
511.865	194
513.45	238
515.037	214
516.621	186
518.206	162
519.79	150
521.374	142
522.957	160
524.54	174
526.123	198
527.705	208
529.287	234
530.868	288
532.448	296
534.029	378
535.609	428
537.188	448
538.768	466
540.346	468
541.925	418
543.502	386
545.08	332
546.657	282
548.234	232
549.81	208
551.386	202
552.961	218
554.536	228
556.11	244
557.684	282
559.258	338
560.832	410
562.405	548
563.977	748
565.55	1080
567.12	1456
568.692	2040
570.263	2428
571.833	2438
573.403	2024
574.973	1500
576.542	1034
578.111	730
579.679	516
581.247	420
582.815	370
584.382	364
585.948	350
587.514	318
589.081	304
590.645	286
592.211	286
593.775	280
595.339	250
596.904	238
598.466	222
600.03	192
601.592	158
603.154	144
604.715	120
606.277	96
607.838	106
609.398	96
610.958	92
612.518	90
614.077	94
615.636	88
617.194	102
618.753	104
620.31	108
621.867	108
623.424	116
624.98	114
626.537	114
628.092	136
629.647	148
631.202	140
632.756	144
634.31	156
635.864	166
637.417	158
638.969	158
640.521	144
642.074	144
643.625	124
645.176	116
646.726	114
648.276	98
649.827	104
651.376	90
652.925	94
654.473	90
656.021	82
657.569	80
659.117	76
660.664	76
662.21	76
663.757	80
665.302	66
666.847	64
668.392	70
669.937	66
671.481	68
673.025	68
674.568	66
676.111	64
677.653	62
679.195	64
680.737	62
682.279	66
683.82	66
685.36	66
686.9	64
688.44	66
689.979	66
691.517	66
693.056	58
694.594	62
696.132	58
697.669	64
699.206	58
700.742	62
702.278	60
703.814	66
705.35	74
706.884	76
708.419	70
709.953	86
711.487	86
713.019	100
714.552	106
716.085	108
717.617	98
719.148	88
720.68	88
722.21	80
723.741	78
725.271	74
726.8	78
728.33	74
729.858	68
731.387	88
732.915	82
734.443	80
735.97	88
737.497	92
739.023	90
740.549	96
742.075	96
743.6	116
745.125	116
746.65	154
748.173	142
749.697	130
751.22	118
752.743	122
754.266	120
755.788	120
757.309	106
758.831	106
760.351	94
761.871	70
763.392	82
764.912	74
766.431	72
767.95	76
769.468	72
770.986	72
772.504	72
774.022	70
775.538	78
777.055	88
778.571	78
780.086	72
781.602	86
783.117	86
784.632	76
786.146	74
787.659	74
789.173	76
790.685	76
792.198	68
793.71	68
795.222	66
796.733	70
798.244	70
799.755	58
801.265	70
802.775	66
804.284	76
805.793	84
807.302	78
808.81	82
810.318	66
811.826	82
813.333	72
814.84	78
816.346	80
817.851	84
819.357	84
820.862	92
822.367	104
823.871	110
825.376	138
826.878	180
828.382	246
829.885	358
831.387	484
832.889	594
834.391	562
835.892	418
837.392	268
838.893	184
840.393	132
841.893	116
843.392	110
844.891	94
846.389	104
847.888	102
849.386	94
850.882	96
852.38	82
853.876	86
855.372	92
856.868	88
858.363	90
859.858	88
861.353	80
862.847	84
864.341	72
865.834	70
867.328	72
868.82	68
870.313	62
871.805	74
873.296	72
874.787	70
876.278	62
877.769	58
879.258	66
880.748	66
882.237	64
883.726	56
885.214	66
886.702	62
888.19	62
889.677	62
891.164	56
892.651	60
894.137	54
895.623	60
897.108	60
898.593	48
900.077	58
901.562	60
903.046	62
904.529	52
906.012	56
907.495	50
908.977	66
910.459	64
911.941	58
913.422	52
914.903	62
916.383	58
917.863	58
919.343	66
920.822	54
922.301	64
923.779	60
925.257	60
926.735	66
928.213	62
929.69	64
931.166	64
932.643	66
934.119	78
935.594	66
937.069	70
938.543	76
940.018	80
941.492	84
942.966	84
944.439	92
945.911	96
947.384	112
948.856	124
950.328	152
951.799	184
953.27	216
954.741	258
956.21	312
957.68	362
959.15	390
960.619	412
962.088	364
963.556	336
965.023	308
966.491	276
967.958	240
969.425	228
970.891	188
972.357	156
973.824	144
975.288	112
976.754	102
978.218	92
979.682	88
981.146	80
982.609	88
984.072	70
985.534	76
986.997	68
988.459	68
989.92	74
991.382	80
992.842	74
994.302	66
995.763	64
997.222	62
998.681	66
1000.14	62
1001.6	66
1003.06	70
1004.52	66
1005.97	62
1007.43	70
1008.89	60
1010.34	68
1011.8	66
1013.25	68
1014.71	70
1016.16	74
1017.62	74
1019.07	76
1020.53	90
1021.98	72
1023.43	96
1024.89	84
1026.34	88
1027.79	90
1029.24	106
1030.69	92
1032.14	108
1033.59	98
1035.04	98
1036.49	98
1037.94	96
1039.39	94
1040.84	84
1042.29	86
1043.73	84
1045.18	80
1046.63	70
1048.08	76
1049.52	74
1050.97	76
1052.41	72
1053.86	62
1055.3	62
1056.75	68
1058.19	60
1059.64	72
1061.08	64
1062.52	70
1063.96	64
1065.41	66
1066.85	66
1068.29	62
1069.73	62
1071.17	64
1072.61	62
1074.05	64
1075.49	66
1076.93	62
1078.37	66
1079.81	68
1081.25	60
1082.68	62
1084.12	64
1085.56	62
1087	62
1088.43	64
1089.87	66
1091.3	70
1092.74	70
1094.17	74
1095.61	74
1097.04	72
1098.48	76
1099.91	74
1101.34	82
1102.78	80
1104.21	100
1105.64	106
1107.07	150
1108.5	196
1109.93	262
1111.36	330
1112.8	356
1114.22	340
1115.65	278
1117.08	218
1118.51	168
1119.94	138
1121.37	118
1122.8	120
1124.22	104
1125.65	106
1127.08	100
1128.5	102
1129.93	88
1131.35	76
1132.78	80
1134.2	94
1135.63	80
1137.05	80
1138.48	86
1139.9	84
1141.32	84
1142.75	92
1144.17	86
1145.59	80
1147.01	80
1148.43	74
1149.85	74
1151.27	76
1152.69	84
1154.11	82
1155.53	72
1156.95	88
1158.37	80
1159.79	86
1161.21	88
1162.62	92
1164.04	92
1165.46	92
1166.87	84
1168.29	92
1169.71	90
1171.12	92
1172.54	90
1173.95	96
1175.37	102
1176.78	106
1178.19	118
1179.61	126
1181.02	156
1182.43	172
1183.84	202
1185.26	236
1186.67	242
1188.08	234
1189.49	212
1190.9	188
1192.31	170
1193.72	162
1195.13	158
1196.54	154
1197.95	164
1199.36	172
1200.76	162
1202.17	180
1203.58	176
1204.99	156
1206.39	150
1207.8	150
1209.2	136
1210.61	124
1212.01	106
1213.42	104
1214.82	102
1216.23	86
1217.63	88
1219.03	90
1220.44	86
1221.84	98
1223.24	104
1224.64	104
1226.05	112
1227.45	120
1228.85	132
1230.25	130
1231.65	130
1233.05	120
1234.45	122
1235.85	96
1237.25	104
1238.64	102
1240.04	98
1241.44	90
1242.84	90
1244.23	88
1245.63	88
1247.03	94
1248.42	88
1249.82	86
1251.21	88
1252.61	80
1254	92
1255.4	90
1256.79	88
1258.19	94
1259.58	94
1260.97	94
1262.36	104
1263.76	88
1265.15	90
1266.54	94
1267.93	100
1269.32	92
1270.71	92
1272.1	102
1273.49	106
1274.88	102
1276.27	108
1277.66	124
1279.05	124
1280.43	128
1281.82	142
1283.21	146
1284.6	144
1285.98	158
1287.37	150
1288.75	158
1290.14	168
1291.53	180
1292.91	188
1294.29	216
1295.68	238
1297.06	280
1298.45	352
1299.83	444
1301.21	542
1302.59	674
1303.98	774
1305.36	820
1306.74	800
1308.12	684
1309.5	548
1310.88	436
1312.26	354
1313.64	296
1315.02	274
1316.4	240
1317.78	222
1319.16	216
1320.53	198
1321.91	192
1323.29	202
1324.67	202
1326.04	198
1327.42	190
1328.79	182
1330.17	192
1331.54	168
1332.92	170
1334.29	166
1335.67	160
1337.04	148
1338.42	156
1339.79	150
1341.16	160
1342.53	170
1343.91	154
1345.28	168
1346.65	164
1348.02	160
1349.39	180
1350.76	182
1352.13	172
1353.5	160
1354.87	160
1356.24	156
1357.61	158
1358.98	152
1360.34	152
1361.71	158
1363.08	158
1364.45	138
1365.81	164
1367.18	156
1368.54	146
1369.91	180
1371.28	200
1372.64	230
1374.01	292
1375.37	346
1376.73	396
1378.1	448
1379.46	436
1380.82	444
1382.19	404
1383.55	364
1384.91	336
1386.27	280
1387.63	228
1388.99	218
1390.35	168
1391.71	164
1393.07	152
1394.43	142
1395.79	136
1397.15	146
1398.51	142
1399.87	136
1401.23	146
1402.58	126
1403.94	144
1405.3	142
1406.65	136
1408.01	142
1409.37	142
1410.72	140
1412.08	130
1413.43	144
1414.79	140
1416.14	148
1417.49	154
1418.85	170
1420.2	174
1421.55	166
1422.91	180
1424.26	184
1425.61	186
1426.96	190
1428.31	192
1429.66	186
1431.01	202
1432.36	192
1433.71	214
1435.06	222
1436.41	206
1437.76	228
1439.11	210
1440.46	220
1441.81	224
1443.15	222
1444.5	194
1445.85	190
1447.19	206
1448.54	180
1449.89	176
1451.23	184
1452.58	164
1453.92	164
1455.27	156
1456.61	160
1457.95	156
1459.3	166
1460.64	156
1461.98	160
1463.33	168
1464.67	162
1466.01	150
1467.35	150
1468.69	156
1470.03	142
1471.37	144
1472.71	148
1474.05	136
1475.39	146
1476.73	162
1478.07	144
1479.41	144
1480.75	150
1482.09	148
1483.42	138
1484.76	140
1486.1	132
1487.43	136
1488.77	130
1490.11	126
1491.44	114
1492.78	132
1494.11	126
1495.45	116
1496.78	104
1498.12	116
1499.45	128
1500.78	114
1502.11	110
1503.45	122
1504.78	112
1506.11	124
1507.44	116
1508.77	114
1510.11	112
1511.44	118
1512.77	122
1514.1	118
1515.43	106
1516.76	108
1518.08	110
1519.41	108
1520.74	110
1522.07	106
1523.4	104
1524.72	106
1526.05	106
1527.38	106
1528.7	108
1530.03	108
1531.36	110
1532.68	104
1534.01	106
1535.33	110
1536.66	106
1537.98	104
1539.3	102
1540.63	106
1541.95	102
1543.27	110
1544.6	118
1545.92	108
1547.24	104
1548.56	112
1549.88	108
1551.2	116
1552.52	114
1553.84	118
1555.17	106
1556.48	116
1557.8	114
1559.12	112
1560.44	118
1561.76	112
1563.08	116
1564.4	110
1565.71	120
1567.03	114
1568.35	122
1569.66	120
1570.98	126
1572.29	120
1573.61	132
1574.93	138
1576.24	136
1577.55	142
1578.87	136
1580.18	136
1581.5	158
1582.81	176
1584.12	172
1585.43	200
1586.75	208
1588.06	230
1589.37	240
1590.68	250
1591.99	296
1593.3	330
1594.61	346
1595.92	372
1597.23	414
1598.54	448
1599.85	440
1601.16	488
1602.47	492
1603.78	508
1605.08	470
1606.39	432
1607.7	408
1609	390
1610.31	370
1611.62	336
1612.92	302
1614.23	266
1615.53	254
1616.84	238
1618.14	204
1619.45	188
1620.75	182
1622.06	160
1623.36	150
1624.66	144
1625.96	134
1627.27	118
1628.57	114
1629.87	110
1631.17	98
1632.47	104
1633.77	100
1635.07	102
1636.37	96
1637.67	96
1638.97	92
1640.27	92
1641.57	98
1642.87	90
1644.17	100
1645.47	88
1646.76	86
1648.06	84
1649.36	88
1650.66	80
1651.95	90
1653.25	80
1654.54	84
1655.84	80
1657.13	80
1658.43	80
1659.72	82
1661.02	88
1662.31	84
1663.6	80
1664.9	78
1666.19	82
1667.48	82
1668.78	78
1670.07	76
1671.36	72
1672.65	76
1673.94	76
1675.23	80
1676.52	74
1677.81	82
1679.1	80
1680.39	76
1681.68	80
1682.97	80
1684.26	70
1685.55	82
1686.83	78
1688.12	86
1689.41	80
1690.7	88
1691.98	84
1693.27	84
1694.55	82
1695.84	74
1697.13	84
1698.41	68
1699.69	80
1700.98	76
1702.26	80