File: Jesse_Dataset_v2/Pure Raman/Polypropylene oxide/785nm/ps-ppo-6jan25-0,0000-map2_Y05_X02.txt
204.377	398
206.045	382
207.713	372
209.38	362
211.048	356
212.715	334
214.381	324
216.047	316
217.712	334
219.377	368
221.042	376
222.706	418
224.369	470
226.032	582
227.695	676
229.357	810
231.019	926
232.68	968
234.341	984
236.001	1006
237.661	932
239.321	840
240.98	774
242.639	698
244.297	642
245.955	564
247.612	520
249.268	450
250.924	394
252.58	354
254.236	328
255.891	294
257.546	266
259.2	260
260.854	228
262.507	226
264.16	198
265.812	200
267.463	180
269.115	180
270.766	180
272.417	174
274.067	182
275.717	186
277.365	186
279.014	182
280.663	202
282.311	200
283.958	240
285.605	268
287.252	296
288.898	334
290.543	362
292.188	422
293.833	428
295.477	432
297.121	434
298.765	418
300.407	376
302.05	364
303.693	338
305.334	308
306.975	296
308.615	276
310.256	260
311.896	250
313.535	236
315.175	228
316.813	252
318.451	226
320.089	226
321.726	232
323.362	236
324.999	236
326.635	244
328.271	238
329.905	252
331.54	260
333.174	256
334.807	254
336.441	252
338.074	240
339.707	240
341.338	240
342.969	216
344.601	214
346.231	206
347.861	212
349.491	196
351.12	206
352.749	226
354.378	230
356.006	224
357.633	204
359.261	204
360.887	212
362.513	180
364.139	188
365.764	202
367.39	182
369.014	204
370.638	200
372.261	192
373.884	196
375.508	198
377.13	178
378.752	172
380.373	156
381.994	146
383.615	150
385.235	146
386.854	142
388.473	128
390.092	142
391.711	132
393.328	126
394.947	130
396.564	124
398.181	118
399.797	128
401.412	132
403.027	144
404.642	136
406.257	138
407.871	148
409.484	158
411.098	190
412.711	210
414.323	220
415.935	222
417.547	198
419.158	192
420.768	178
422.378	152
423.988	130
425.597	124
427.206	120
428.814	108
430.422	100
432.03	106
433.637	104
435.243	98
436.85	86
438.456	84
440.062	78
441.666	86
443.271	74
444.876	80
446.479	74
448.082	74
449.685	76
451.287	80
452.89	82
454.492	84
456.092	80
457.693	86
459.293	84
460.893	82
462.492	84
464.092	104
465.691	106
467.288	120
468.887	126
470.483	132
472.081	160
473.677	170
475.273	188
476.869	212
478.463	238
480.059	228
481.653	252
483.247	274
484.84	296
486.433	304
488.026	250
489.618	198
491.21	180
492.801	158
494.392	144
495.983	118
497.573	108
499.162	106
500.752	108
502.341	104
503.929	110
505.517	112
507.105	114
508.692	124
510.279	162
511.865	214
513.45	224
515.037	206
516.621	158
518.206	160
519.79	152
521.374	154
522.957	168
524.54	168
526.123	176
527.705	200
529.287	216
530.868	272
532.448	306
534.029	356
535.609	418
537.188	442
538.768	442
540.346	456
541.925	422
543.502	378
545.08	314
546.657	260
548.234	198
549.81	210
551.386	182
552.961	202
554.536	210
556.11	226
557.684	268
559.258	316
560.832	398
562.405	532
563.977	736
565.55	1048
567.12	1468
568.692	1944
570.263	2368
571.833	2360
573.403	2000
574.973	1478
576.542	1012
578.111	680
579.679	476
581.247	400
582.815	370
584.382	338
585.948	334
587.514	316
589.081	298
590.645	282
592.211	288
593.775	258
595.339	248
596.904	238
598.466	208
600.03	172
601.592	164
603.154	132
604.715	118
606.277	108
607.838	100
609.398	104
610.958	96
612.518	86
614.077	86
615.636	88
617.194	88
618.753	90
620.31	98
621.867	108
623.424	112
624.98	110
626.537	126
628.092	120
629.647	142
631.202	140
632.756	150
634.31	150
635.864	162
637.417	142
638.969	142
640.521	138
642.074	124
643.625	122
645.176	116
646.726	106
648.276	98
649.827	94
651.376	90
652.925	84
654.473	84
656.021	84
657.569	78
659.117	76
660.664	70
662.21	68
663.757	72
665.302	66
666.847	66
668.392	72
669.937	60
671.481	60
673.025	60
674.568	62
676.111	62
677.653	62
679.195	58
680.737	60
682.279	64
683.82	60
685.36	68
686.9	64
688.44	60
689.979	58
691.517	60
693.056	66
694.594	62
696.132	60
697.669	58
699.206	58
700.742	66
702.278	62
703.814	72
705.35	66
706.884	68
708.419	70
709.953	74
711.487	78
713.019	90
714.552	104
716.085	98
717.617	96
719.148	88
720.68	86
722.21	78
723.741	74
725.271	74
726.8	64
728.33	66
729.858	80
731.387	82
732.915	78
734.443	76
735.97	82
737.497	76
739.023	84
740.549	90
742.075	98
743.6	114
745.125	122
746.65	140
748.173	140
749.697	140
751.22	120
752.743	124
754.266	124
755.788	112
757.309	110
758.831	94
760.351	86
761.871	80
763.392	62
764.912	68
766.431	62
767.95	70
769.468	62
770.986	72
772.504	74
774.022	82
775.538	76
777.055	78
778.571	84
780.086	88
781.602	82
783.117	76
784.632	82
786.146	82
787.659	76
789.173	70
790.685	66
792.198	72
793.71	66
795.222	70
796.733	64
798.244	62
799.755	58
801.265	68
802.775	70
804.284	74
805.793	68
807.302	74
808.81	74
810.318	76
811.826	76
813.333	74
814.84	84
816.346	82
817.851	76
819.357	78
820.862	84
822.367	96
823.871	108
825.376	130
826.878	158
828.382	234
829.885	358
831.387	498
832.889	612
834.391	528
835.892	402
837.392	252
838.893	174
840.393	118
841.893	114
843.392	104
844.891	102
846.389	100
847.888	92
849.386	94
850.882	88
852.38	96
853.876	92
855.372	86
856.868	90
858.363	86
859.858	86
861.353	78
862.847	80
864.341	76
865.834	74
867.328	74
868.82	68
870.313	60
871.805	64
873.296	60
874.787	70
876.278	62
877.769	62
879.258	64
880.748	62
882.237	56
883.726	66
885.214	66
886.702	58
888.19	60
889.677	62
891.164	58
892.651	56
894.137	58
895.623	54
897.108	58
898.593	58
900.077	54
901.562	60
903.046	60
904.529	54
906.012	54
907.495	58
908.977	52
910.459	56
911.941	60
913.422	62
914.903	60
916.383	58
917.863	52
919.343	58
920.822	54
922.301	66
923.779	64
925.257	58
926.735	58
928.213	52
929.69	58
931.166	64
932.643	70
934.119	66
935.594	64
937.069	68
938.543	72
940.018	76
941.492	78
942.966	94
944.439	94
945.911	106
947.384	110
948.856	130
950.328	148
951.799	194
953.27	212
954.741	246
956.21	308
957.68	338
959.15	388
960.619	380
962.088	358
963.556	344
965.023	300
966.491	252
967.958	224
969.425	208
970.891	170
972.357	158
973.824	126
975.288	116
976.754	102
978.218	88
979.682	84
981.146	82
982.609	76
984.072	76
985.534	76
986.997	68
988.459	52
989.92	74
991.382	78
992.842	78
994.302	72
995.763	68
997.222	64
998.681	64
1000.14	66
1001.6	60
1003.06	64
1004.52	66
1005.97	62
1007.43	62
1008.89	64
1010.34	70
1011.8	62
1013.25	68
1014.71	62
1016.16	78
1017.62	74
1019.07	74
1020.53	76
1021.98	84
1023.43	82
1024.89	88
1026.34	90
1027.79	78
1029.24	96
1030.69	86
1032.14	104
1033.59	104
1035.04	104
1036.49	96
1037.94	96
1039.39	88
1040.84	80
1042.29	84
1043.73	84
1045.18	78
1046.63	80
1048.08	70
1049.52	72
1050.97	72
1052.41	68
1053.86	66
1055.3	66
1056.75	64
1058.19	64
1059.64	64
1061.08	62
1062.52	70
1063.96	56
1065.41	64
1066.85	66
1068.29	60
1069.73	60
1071.17	58
1072.61	66
1074.05	68
1075.49	64
1076.93	68
1078.37	60
1079.81	60
1081.25	78
1082.68	58
1084.12	62
1085.56	64
1087	62
1088.43	62
1089.87	62
1091.3	62
1092.74	62
1094.17	70
1095.61	68
1097.04	66
1098.48	72
1099.91	72
1101.34	72
1102.78	94
1104.21	100
1105.64	108
1107.07	150
1108.5	198
1109.93	270
1111.36	314
1112.8	352
1114.22	324
1115.65	250
1117.08	198
1118.51	150
1119.94	134
1121.37	114
1122.8	108
1124.22	104
1125.65	94
1127.08	90
1128.5	82
1129.93	84
1131.35	84
1132.78	84
1134.2	82
1135.63	86
1137.05	88
1138.48	90
1139.9	86
1141.32	94
1142.75	84
1144.17	80
1145.59	82
1147.01	72
1148.43	78
1149.85	76
1151.27	72
1152.69	84
1154.11	76
1155.53	74
1156.95	68
1158.37	84
1159.79	94
1161.21	96
1162.62	104
1164.04	86
1165.46	92
1166.87	88
1168.29	84
1169.71	90
1171.12	94
1172.54	90
1173.95	90
1175.37	106
1176.78	120
1178.19	112
1179.61	120
1181.02	140
1182.43	154
1183.84	198
1185.26	222
1186.67	256
1188.08	216
1189.49	204
1190.9	196
1192.31	188
1193.72	162
1195.13	142
1196.54	146
1197.95	162
1199.36	168
1200.76	182
1202.17	170
1203.58	174
1204.99	174
1206.39	154
1207.8	152
1209.2	134
1210.61	110
1212.01	104
1213.42	86
1214.82	102
1216.23	88
1217.63	94
1219.03	88
1220.44	88
1221.84	104
1223.24	100
1224.64	104
1226.05	122
1227.45	120
1228.85	140
1230.25	124
1231.65	114
1233.05	114
1234.45	96
1235.85	104
1237.25	90
1238.64	88
1240.04	96
1241.44	86
1242.84	92
1244.23	82
1245.63	88
1247.03	90
1248.42	82
1249.82	84
1251.21	88
1252.61	76
1254	96
1255.4	84
1256.79	90
1258.19	84
1259.58	98
1260.97	88
1262.36	92
1263.76	98
1265.15	84
1266.54	94
1267.93	102
1269.32	94
1270.71	104
1272.1	102
1273.49	98
1274.88	102
1276.27	98
1277.66	112
1279.05	120
1280.43	116
1281.82	124
1283.21	138
1284.6	134
1285.98	160
1287.37	148
1288.75	168
1290.14	168
1291.53	180
1292.91	206
1294.29	216
1295.68	260
1297.06	298
1298.45	352
1299.83	428
1301.21	544
1302.59	678
1303.98	770
1305.36	796
1306.74	772
1308.12	654
1309.5	512
1310.88	416
1312.26	336
1313.64	308
1315.02	274
1316.4	260
1317.78	216
1319.16	206
1320.53	198
1321.91	190
1323.29	190
1324.67	176
1326.04	194
1327.42	182
1328.79	180
1330.17	192
1331.54	168
1332.92	170
1334.29	156
1335.67	162
1337.04	156
1338.42	138
1339.79	148
1341.16	146
1342.53	140
1343.91	160
1345.28	168
1346.65	158
1348.02	162
1349.39	174
1350.76	168
1352.13	176
1353.5	168
1354.87	162
1356.24	168
1357.61	146
1358.98	150
1360.34	158
1361.71	142
1363.08	156
1364.45	158
1365.81	152
1367.18	164
1368.54	164
1369.91	178
1371.28	182
1372.64	228
1374.01	304
1375.37	352
1376.73	412
1378.1	434
1379.46	416
1380.82	432
1382.19	388
1383.55	366
1384.91	328
1386.27	266
1387.63	254
1388.99	204
1390.35	192
1391.71	158
1393.07	154
1394.43	142
1395.79	140
1397.15	160
1398.51	142
1399.87	150
1401.23	146
1402.58	138
1403.94	136
1405.3	136
1406.65	138
1408.01	134
1409.37	152
1410.72	144
1412.08	152
1413.43	152
1414.79	146
1416.14	152
1417.49	140
1418.85	170
1420.2	162
1421.55	178
1422.91	174
1424.26	196
1425.61	182
1426.96	178
1428.31	194
1429.66	192
1431.01	184
1432.36	202
1433.71	210
1435.06	210
1436.41	198
1437.76	226
1439.11	210
1440.46	214
1441.81	196
1443.15	198
1444.5	200
1445.85	194
1447.19	190
1448.54	172
1449.89	184
1451.23	174
1452.58	164
1453.92	168
1455.27	162
1456.61	150
1457.95	170
1459.3	154
1460.64	168
1461.98	160
1463.33	162
1464.67	164
1466.01	150
1467.35	154
1468.69	152
1470.03	164
1471.37	148
1472.71	148
1474.05	150
1475.39	154
1476.73	148
1478.07	150
1479.41	154
1480.75	140
1482.09	128
1483.42	146
1484.76	128
1486.1	128
1487.43	120
1488.77	122
1490.11	120
1491.44	114
1492.78	116
1494.11	124
1495.45	118
1496.78	126
1498.12	116
1499.45	120
1500.78	114
1502.11	110
1503.45	110
1504.78	118
1506.11	118
1507.44	118
1508.77	116
1510.11	116
1511.44	118
1512.77	124
1514.1	126
1515.43	104
1516.76	110
1518.08	110
1519.41	116
1520.74	108
1522.07	112
1523.4	102
1524.72	118
1526.05	102
1527.38	110
1528.7	112
1530.03	102
1531.36	110
1532.68	112
1534.01	106
1535.33	104
1536.66	116
1537.98	100
1539.3	106
1540.63	108
1541.95	100
1543.27	120
1544.6	114
1545.92	122
1547.24	112
1548.56	104
1549.88	110
1551.2	110
1552.52	106
1553.84	120
1555.17	104
1556.48	112
1557.8	110
1559.12	108
1560.44	112
1561.76	112
1563.08	116
1564.4	112
1565.71	114
1567.03	110
1568.35	118
1569.66	122
1570.98	116
1572.29	124
1573.61	126
1574.93	130
1576.24	136
1577.55	142
1578.87	148
1580.18	156
1581.5	158
1582.81	172
1584.12	178
1585.43	184
1586.75	214
1588.06	234
1589.37	224
1590.68	260
1591.99	278
1593.3	320
1594.61	348
1595.92	396
1597.23	394
1598.54	438
1599.85	450
1601.16	478
1602.47	482
1603.78	468
1605.08	448
1606.39	430
1607.7	412
1609	410
1610.31	360
1611.62	358
1612.92	316
1614.23	276
1615.53	254
1616.84	228
1618.14	210
1619.45	204
1620.75	174
1622.06	162
1623.36	150
1624.66	130
1625.96	138
1627.27	126
1628.57	122
1629.87	118
1631.17	108
1632.47	104
1633.77	106
1635.07	104
1636.37	102
1637.67	96
1638.97	92
1640.27	96
1641.57	96
1642.87	96
1644.17	86
1645.47	82
1646.76	86
1648.06	94
1649.36	86
1650.66	84
1651.95	88
1653.25	96
1654.54	82
1655.84	84
1657.13	88
1658.43	72
1659.72	84
1661.02	84
1662.31	86
1663.6	80
1664.9	80
1666.19	90
1667.48	74
1668.78	82
1670.07	84
1671.36	84
1672.65	78
1673.94	78
1675.23	80
1676.52	78
1677.81	80
1679.1	84
1680.39	72
1681.68	76
1682.97	84
1684.26	84
1685.55	78
1686.83	74
1688.12	82
1689.41	88
1690.7	84
1691.98	84
1693.27	90
1694.55	80
1695.84	80
1697.13	84
1698.41	84
1699.69	68
1700.98	82
1702.26	76