File: Jesse_Dataset_v2/Pure Raman/Polypropylene oxide/785nm/ps-ppo-6jan25-0,0000-map2_Y07_X07.txt
204.377	380
206.045	368
207.713	360
209.38	348
211.048	334
212.715	322
214.381	318
216.047	338
217.712	336
219.377	366
221.042	380
222.706	414
224.369	474
226.032	548
227.695	658
229.357	804
231.019	866
232.68	956
234.341	990
236.001	948
237.661	906
239.321	822
240.98	768
242.639	686
244.297	622
245.955	564
247.612	516
249.268	464
250.924	400
252.58	356
254.236	304
255.891	302
257.546	270
259.2	238
260.854	218
262.507	212
264.16	206
265.812	200
267.463	184
269.115	174
270.766	180
272.417	172
274.067	178
275.717	182
277.365	174
279.014	188
280.663	182
282.311	218
283.958	234
285.605	262
287.252	274
288.898	310
290.543	370
292.188	402
293.833	418
295.477	436
297.121	414
298.765	412
300.407	380
302.05	352
303.693	322
305.334	312
306.975	270
308.615	294
310.256	266
311.896	266
313.535	254
315.175	232
316.813	214
318.451	228
320.089	218
321.726	218
323.362	234
324.999	238
326.635	242
328.271	260
329.905	244
331.54	246
333.174	250
334.807	274
336.441	256
338.074	232
339.707	234
341.338	236
342.969	206
344.601	198
346.231	190
347.861	184
349.491	200
351.12	206
352.749	210
354.378	210
356.006	216
357.633	190
359.261	210
360.887	192
362.513	184
364.139	180
365.764	188
367.39	180
369.014	190
370.638	194
372.261	192
373.884	192
375.508	180
377.13	190
378.752	158
380.373	158
381.994	148
383.615	140
385.235	146
386.854	132
388.473	138
390.092	132
391.711	130
393.328	134
394.947	118
396.564	124
398.181	118
399.797	128
401.412	126
403.027	130
404.642	130
406.257	144
407.871	144
409.484	156
411.098	200
412.711	210
414.323	208
415.935	212
417.547	200
419.158	164
420.768	168
422.378	156
423.988	128
425.597	126
427.206	124
428.814	112
430.422	104
432.03	110
433.637	96
435.243	94
436.85	80
438.456	86
440.062	88
441.666	84
443.271	80
444.876	78
446.479	74
448.082	88
449.685	72
451.287	70
452.89	82
454.492	74
456.092	82
457.693	72
459.293	76
460.893	92
462.492	90
464.092	88
465.691	102
467.288	116
468.887	114
470.483	128
472.081	150
473.677	174
475.273	196
476.869	194
478.463	234
480.059	236
481.653	238
483.247	292
484.84	294
486.433	278
488.026	228
489.618	204
491.21	172
492.801	152
494.392	124
495.983	118
497.573	116
499.162	100
500.752	84
502.341	96
503.929	102
505.517	124
507.105	108
508.692	128
510.279	156
511.865	198
513.45	218
515.037	194
516.621	178
518.206	146
519.79	132
521.374	146
522.957	158
524.54	156
526.123	178
527.705	194
529.287	224
530.868	266
532.448	330
534.029	358
535.609	386
537.188	456
538.768	456
540.346	436
541.925	420
543.502	354
545.08	292
546.657	252
548.234	196
549.81	196
551.386	196
552.961	202
554.536	216
556.11	244
557.684	274
559.258	334
560.832	414
562.405	548
563.977	724
565.55	1014
567.12	1426
568.692	1956
570.263	2306
571.833	2324
573.403	1970
574.973	1416
576.542	970
578.111	676
579.679	480
581.247	402
582.815	374
584.382	330
585.948	330
587.514	304
589.081	282
590.645	278
592.211	276
593.775	270
595.339	262
596.904	222
598.466	186
600.03	170
601.592	142
603.154	138
604.715	118
606.277	106
607.838	96
609.398	96
610.958	88
612.518	90
614.077	84
615.636	94
617.194	94
618.753	94
620.31	98
621.867	108
623.424	98
624.98	110
626.537	110
628.092	108
629.647	128
631.202	146
632.756	160
634.31	152
635.864	152
637.417	146
638.969	148
640.521	126
642.074	118
643.625	110
645.176	110
646.726	98
648.276	98
649.827	90
651.376	76
652.925	82
654.473	84
656.021	82
657.569	76
659.117	76
660.664	72
662.21	62
663.757	62
665.302	70
666.847	66
668.392	66
669.937	56
671.481	58
673.025	60
674.568	62
676.111	52
677.653	62
679.195	60
680.737	58
682.279	58
683.82	64
685.36	64
686.9	64
688.44	56
689.979	54
691.517	64
693.056	60
694.594	52
696.132	52
697.669	56
699.206	58
700.742	58
702.278	60
703.814	62
705.35	66
706.884	76
708.419	74
709.953	74
711.487	82
713.019	96
714.552	104
716.085	96
717.617	94
719.148	84
720.68	78
722.21	86
723.741	76
725.271	80
726.8	72
728.33	76
729.858	72
731.387	78
732.915	72
734.443	76
735.97	84
737.497	80
739.023	90
740.549	92
742.075	98
743.6	100
745.125	120
746.65	148
748.173	144
749.697	138
751.22	120
752.743	124
754.266	118
755.788	106
757.309	100
758.831	84
760.351	72
761.871	80
763.392	68
764.912	72
766.431	70
767.95	72
769.468	70
770.986	70
772.504	70
774.022	68
775.538	78
777.055	80
778.571	74
780.086	82
781.602	80
783.117	82
784.632	76
786.146	66
787.659	70
789.173	72
790.685	64
792.198	70
793.71	72
795.222	56
796.733	68
798.244	66
799.755	66
801.265	62
802.775	72
804.284	70
805.793	68
807.302	72
808.81	74
810.318	72
811.826	68
813.333	70
814.84	68
816.346	78
817.851	74
819.357	84
820.862	94
822.367	100
823.871	112
825.376	132
826.878	172
828.382	232
829.885	348
831.387	484
832.889	598
834.391	544
835.892	400
837.392	238
838.893	174
840.393	136
841.893	114
843.392	90
844.891	96
846.389	92
847.888	98
849.386	92
850.882	94
852.38	92
853.876	86
855.372	88
856.868	92
858.363	70
859.858	82
861.353	78
862.847	72
864.341	68
865.834	76
867.328	66
868.82	64
870.313	70
871.805	62
873.296	70
874.787	60
876.278	56
877.769	58
879.258	68
880.748	62
882.237	62
883.726	60
885.214	52
886.702	64
888.19	62
889.677	62
891.164	58
892.651	60
894.137	54
895.623	54
897.108	52
898.593	56
900.077	54
901.562	54
903.046	56
904.529	56
906.012	52
907.495	56
908.977	62
910.459	56
911.941	56
913.422	58
914.903	60
916.383	56
917.863	52
919.343	56
920.822	54
922.301	58
923.779	58
925.257	56
926.735	60
928.213	62
929.69	68
931.166	56
932.643	60
934.119	68
935.594	60
937.069	68
938.543	64
940.018	76
941.492	78
942.966	78
944.439	94
945.911	98
947.384	100
948.856	124
950.328	150
951.799	188
953.27	204
954.741	236
956.21	298
957.68	358
959.15	372
960.619	386
962.088	334
963.556	330
965.023	298
966.491	244
967.958	206
969.425	204
970.891	182
972.357	162
973.824	136
975.288	112
976.754	98
978.218	90
979.682	80
981.146	76
982.609	76
984.072	84
985.534	68
986.997	70
988.459	66
989.92	76
991.382	70
992.842	68
994.302	66
995.763	64
997.222	62
998.681	68
1000.14	64
1001.6	64
1003.06	62
1004.52	62
1005.97	64
1007.43	58
1008.89	60
1010.34	64
1011.8	62
1013.25	66
1014.71	66
1016.16	74
1017.62	70
1019.07	76
1020.53	76
1021.98	74
1023.43	82
1024.89	82
1026.34	90
1027.79	86
1029.24	86
1030.69	94
1032.14	98
1033.59	90
1035.04	98
1036.49	92
1037.94	94
1039.39	88
1040.84	98
1042.29	90
1043.73	80
1045.18	68
1046.63	74
1048.08	78
1049.52	66
1050.97	66
1052.41	60
1053.86	74
1055.3	64
1056.75	66
1058.19	62
1059.64	64
1061.08	66
1062.52	58
1063.96	56
1065.41	64
1066.85	64
1068.29	62
1069.73	64
1071.17	62
1072.61	60
1074.05	60
1075.49	64
1076.93	66
1078.37	60
1079.81	62
1081.25	64
1082.68	56
1084.12	66
1085.56	58
1087	62
1088.43	64
1089.87	66
1091.3	62
1092.74	68
1094.17	68
1095.61	64
1097.04	66
1098.48	68
1099.91	74
1101.34	76
1102.78	86
1104.21	100
1105.64	104
1107.07	144
1108.5	196
1109.93	258
1111.36	320
1112.8	332
1114.22	316
1115.65	232
1117.08	190
1118.51	152
1119.94	132
1121.37	108
1122.8	98
1124.22	102
1125.65	96
1127.08	86
1128.5	80
1129.93	84
1131.35	78
1132.78	76
1134.2	84
1135.63	78
1137.05	86
1138.48	84
1139.9	82
1141.32	90
1142.75	86
1144.17	86
1145.59	76
1147.01	72
1148.43	70
1149.85	70
1151.27	66
1152.69	72
1154.11	70
1155.53	74
1156.95	80
1158.37	88
1159.79	82
1161.21	88
1162.62	88
1164.04	82
1165.46	80
1166.87	76
1168.29	80
1169.71	82
1171.12	76
1172.54	84
1173.95	86
1175.37	96
1176.78	100
1178.19	116
1179.61	128
1181.02	134
1182.43	184
1183.84	200
1185.26	232
1186.67	236
1188.08	218
1189.49	208
1190.9	184
1192.31	172
1193.72	162
1195.13	156
1196.54	156
1197.95	148
1199.36	158
1200.76	168
1202.17	172
1203.58	180
1204.99	170
1206.39	154
1207.8	142
1209.2	132
1210.61	102
1212.01	104
1213.42	98
1214.82	84
1216.23	88
1217.63	84
1219.03	80
1220.44	86
1221.84	88
1223.24	98
1224.64	106
1226.05	116
1227.45	124
1228.85	128
1230.25	136
1231.65	134
1233.05	112
1234.45	118
1235.85	104
1237.25	94
1238.64	86
1240.04	86
1241.44	84
1242.84	82
1244.23	82
1245.63	86
1247.03	84
1248.42	78
1249.82	80
1251.21	84
1252.61	86
1254	82
1255.4	82
1256.79	76
1258.19	82
1259.58	94
1260.97	96
1262.36	90
1263.76	84
1265.15	100
1266.54	102
1267.93	98
1269.32	94
1270.71	102
1272.1	104
1273.49	96
1274.88	94
1276.27	110
1277.66	106
1279.05	120
1280.43	120
1281.82	124
1283.21	132
1284.6	140
1285.98	144
1287.37	156
1288.75	146
1290.14	164
1291.53	172
1292.91	180
1294.29	210
1295.68	236
1297.06	282
1298.45	356
1299.83	452
1301.21	548
1302.59	668
1303.98	768
1305.36	792
1306.74	734
1308.12	618
1309.5	508
1310.88	406
1312.26	340
1313.64	292
1315.02	256
1316.4	240
1317.78	212
1319.16	184
1320.53	188
1321.91	188
1323.29	184
1324.67	164
1326.04	178
1327.42	182
1328.79	180
1330.17	180
1331.54	166
1332.92	156
1334.29	146
1335.67	156
1337.04	148
1338.42	136
1339.79	150
1341.16	140
1342.53	150
1343.91	156
1345.28	156
1346.65	164
1348.02	158
1349.39	164
1350.76	160
1352.13	152
1353.5	162
1354.87	144
1356.24	156
1357.61	156
1358.98	130
1360.34	146
1361.71	140
1363.08	144
1364.45	156
1365.81	154
1367.18	138
1368.54	154
1369.91	172
1371.28	202
1372.64	242
1374.01	286
1375.37	342
1376.73	372
1378.1	396
1379.46	432
1380.82	434
1382.19	392
1383.55	372
1384.91	304
1386.27	268
1387.63	230
1388.99	194
1390.35	166
1391.71	148
1393.07	150
1394.43	134
1395.79	146
1397.15	148
1398.51	132
1399.87	128
1401.23	130
1402.58	134
1403.94	136
1405.3	134
1406.65	146
1408.01	142
1409.37	140
1410.72	138
1412.08	140
1413.43	134
1414.79	154
1416.14	146
1417.49	148
1418.85	148
1420.2	166
1421.55	170
1422.91	168
1424.26	186
1425.61	190
1426.96	192
1428.31	174
1429.66	174
1431.01	184
1432.36	210
1433.71	194
1435.06	200
1436.41	214
1437.76	216
1439.11	226
1440.46	192
1441.81	210
1443.15	208
1444.5	194
1445.85	194
1447.19	198
1448.54	166
1449.89	178
1451.23	168
1452.58	156
1453.92	170
1455.27	158
1456.61	160
1457.95	144
1459.3	154
1460.64	158
1461.98	142
1463.33	158
1464.67	162
1466.01	138
1467.35	136
1468.69	142
1470.03	154
1471.37	144
1472.71	142
1474.05	146
1475.39	150
1476.73	154
1478.07	140
1479.41	142
1480.75	138
1482.09	138
1483.42	134
1484.76	122
1486.1	126
1487.43	124
1488.77	118
1490.11	124
1491.44	116
1492.78	118
1494.11	114
1495.45	112
1496.78	124
1498.12	112
1499.45	118
1500.78	124
1502.11	110
1503.45	112
1504.78	118
1506.11	112
1507.44	110
1508.77	112
1510.11	106
1511.44	108
1512.77	116
1514.1	110
1515.43	104
1516.76	102
1518.08	114
1519.41	116
1520.74	102
1522.07	116
1523.4	108
1524.72	114
1526.05	102
1527.38	100
1528.7	110
1530.03	98
1531.36	112
1532.68	112
1534.01	114
1535.33	100
1536.66	98
1537.98	108
1539.3	100
1540.63	112
1541.95	100
1543.27	106
1544.6	104
1545.92	102
1547.24	108
1548.56	106
1549.88	106
1551.2	96
1552.52	104
1553.84	104
1555.17	110
1556.48	100
1557.8	110
1559.12	112
1560.44	106
1561.76	114
1563.08	116
1564.4	112
1565.71	108
1567.03	112
1568.35	110
1569.66	118
1570.98	126
1572.29	116
1573.61	130
1574.93	126
1576.24	134
1577.55	138
1578.87	138
1580.18	144
1581.5	160
1582.81	168
1584.12	162
1585.43	188
1586.75	190
1588.06	222
1589.37	246
1590.68	260
1591.99	282
1593.3	302
1594.61	326
1595.92	376
1597.23	418
1598.54	438
1599.85	450
1601.16	474
1602.47	472
1603.78	472
1605.08	430
1606.39	442
1607.7	396
1609	360
1610.31	346
1611.62	312
1612.92	306
1614.23	284
1615.53	244
1616.84	224
1618.14	210
1619.45	172
1620.75	170
1622.06	156
1623.36	146
1624.66	138
1625.96	118
1627.27	120
1628.57	114
1629.87	104
1631.17	108
1632.47	108
1633.77	100
1635.07	94
1636.37	90
1637.67	94
1638.97	96
1640.27	94
1641.57	90
1642.87	94
1644.17	88
1645.47	92
1646.76	86
1648.06	82
1649.36	78
1650.66	82
1651.95	90
1653.25	88
1654.54	82
1655.84	86
1657.13	76
1658.43	88
1659.72	78
1661.02	82
1662.31	80
1663.6	80
1664.9	78
1666.19	80
1667.48	78
1668.78	76
1670.07	68
1671.36	80
1672.65	76
1673.94	78
1675.23	74
1676.52	74
1677.81	76
1679.1	74
1680.39	86
1681.68	78
1682.97	74
1684.26	66
1685.55	78
1686.83	72
1688.12	74
1689.41	84
1690.7	80
1691.98	76
1693.27	70
1694.55	78
1695.84	74
1697.13	70
1698.41	76
1699.69	74
1700.98	76
1702.26	78