File: Jesse_Dataset_v2/Pure Raman/Polypropylene oxide/785nm/ps-ppo-6jan25-0,0000-map2_Y05_X09.txt
204.377	414
206.045	394
207.713	376
209.38	344
211.048	348
212.715	324
214.381	330
216.047	322
217.712	374
219.377	350
221.042	374
222.706	418
224.369	492
226.032	564
227.695	690
229.357	812
231.019	942
232.68	986
234.341	1010
236.001	986
237.661	958
239.321	862
240.98	794
242.639	710
244.297	666
245.955	578
247.612	524
249.268	496
250.924	434
252.58	370
254.236	360
255.891	300
257.546	278
259.2	240
260.854	216
262.507	212
264.16	220
265.812	218
267.463	202
269.115	188
270.766	186
272.417	174
274.067	186
275.717	172
277.365	174
279.014	198
280.663	200
282.311	216
283.958	248
285.605	270
287.252	314
288.898	340
290.543	400
292.188	414
293.833	448
295.477	466
297.121	450
298.765	430
300.407	392
302.05	368
303.693	320
305.334	326
306.975	286
308.615	278
310.256	264
311.896	264
313.535	264
315.175	242
316.813	248
318.451	238
320.089	238
321.726	252
323.362	230
324.999	236
326.635	254
328.271	250
329.905	264
331.54	268
333.174	264
334.807	282
336.441	278
338.074	252
339.707	244
341.338	230
342.969	210
344.601	226
346.231	204
347.861	222
349.491	220
351.12	222
352.749	232
354.378	228
356.006	226
357.633	218
359.261	208
360.887	206
362.513	188
364.139	196
365.764	198
367.39	192
369.014	206
370.638	200
372.261	196
373.884	206
375.508	196
377.13	196
378.752	166
380.373	154
381.994	158
383.615	154
385.235	148
386.854	146
388.473	136
390.092	128
391.711	136
393.328	128
394.947	132
396.564	134
398.181	130
399.797	132
401.412	122
403.027	142
404.642	140
406.257	156
407.871	154
409.484	174
411.098	204
412.711	218
414.323	218
415.935	206
417.547	206
419.158	182
420.768	172
422.378	154
423.988	142
425.597	124
427.206	116
428.814	124
430.422	108
432.03	98
433.637	100
435.243	96
436.85	90
438.456	86
440.062	92
441.666	84
443.271	78
444.876	80
446.479	78
448.082	76
449.685	82
451.287	76
452.89	74
454.492	78
456.092	82
457.693	88
459.293	76
460.893	96
462.492	100
464.092	102
465.691	104
467.288	118
468.887	132
470.483	134
472.081	150
473.677	178
475.273	184
476.869	204
478.463	238
480.059	256
481.653	276
483.247	280
484.84	294
486.433	302
488.026	242
489.618	186
491.21	178
492.801	170
494.392	140
495.983	126
497.573	112
499.162	114
500.752	96
502.341	110
503.929	86
505.517	106
507.105	124
508.692	136
510.279	162
511.865	202
513.45	240
515.037	198
516.621	188
518.206	158
519.79	148
521.374	148
522.957	162
524.54	180
526.123	182
527.705	204
529.287	242
530.868	272
532.448	320
534.029	394
535.609	426
537.188	462
538.768	474
540.346	450
541.925	414
543.502	384
545.08	320
546.657	262
548.234	220
549.81	198
551.386	198
552.961	206
554.536	222
556.11	232
557.684	276
559.258	336
560.832	420
562.405	546
563.977	784
565.55	1104
567.12	1494
568.692	2030
570.263	2440
571.833	2416
573.403	2074
574.973	1506
576.542	1034
578.111	746
579.679	526
581.247	422
582.815	364
584.382	348
585.948	350
587.514	324
589.081	300
590.645	270
592.211	280
593.775	276
595.339	260
596.904	234
598.466	202
600.03	184
601.592	158
603.154	134
604.715	118
606.277	112
607.838	106
609.398	92
610.958	96
612.518	94
614.077	88
615.636	96
617.194	100
618.753	92
620.31	96
621.867	100
623.424	120
624.98	120
626.537	120
628.092	126
629.647	134
631.202	154
632.756	152
634.31	154
635.864	156
637.417	154
638.969	150
640.521	144
642.074	138
643.625	138
645.176	122
646.726	110
648.276	104
649.827	96
651.376	92
652.925	80
654.473	88
656.021	88
657.569	80
659.117	80
660.664	78
662.21	70
663.757	74
665.302	62
666.847	66
668.392	64
669.937	64
671.481	54
673.025	62
674.568	68
676.111	56
677.653	56
679.195	60
680.737	66
682.279	62
683.82	56
685.36	62
686.9	60
688.44	62
689.979	64
691.517	56
693.056	56
694.594	66
696.132	62
697.669	58
699.206	64
700.742	64
702.278	64
703.814	58
705.35	68
706.884	72
708.419	80
709.953	88
711.487	88
713.019	84
714.552	102
716.085	94
717.617	90
719.148	90
720.68	76
722.21	78
723.741	74
725.271	84
726.8	80
728.33	70
729.858	80
731.387	80
732.915	82
734.443	80
735.97	78
737.497	88
739.023	88
740.549	84
742.075	100
743.6	104
745.125	126
746.65	136
748.173	148
749.697	136
751.22	134
752.743	120
754.266	116
755.788	106
757.309	112
758.831	102
760.351	86
761.871	74
763.392	68
764.912	74
766.431	74
767.95	74
769.468	68
770.986	68
772.504	78
774.022	74
775.538	72
777.055	82
778.571	74
780.086	74
781.602	84
783.117	86
784.632	82
786.146	70
787.659	70
789.173	66
790.685	68
792.198	64
793.71	68
795.222	64
796.733	66
798.244	70
799.755	72
801.265	72
802.775	66
804.284	70
805.793	70
807.302	82
808.81	74
810.318	72
811.826	74
813.333	72
814.84	82
816.346	76
817.851	86
819.357	86
820.862	92
822.367	104
823.871	116
825.376	140
826.878	172
828.382	244
829.885	376
831.387	494
832.889	628
834.391	558
835.892	422
837.392	248
838.893	182
840.393	136
841.893	104
843.392	102
844.891	110
846.389	94
847.888	92
849.386	92
850.882	96
852.38	78
853.876	88
855.372	86
856.868	94
858.363	88
859.858	90
861.353	80
862.847	76
864.341	78
865.834	78
867.328	74
868.82	76
870.313	72
871.805	62
873.296	64
874.787	54
876.278	66
877.769	60
879.258	62
880.748	60
882.237	66
883.726	66
885.214	58
886.702	58
888.19	62
889.677	62
891.164	54
892.651	60
894.137	60
895.623	54
897.108	56
898.593	60
900.077	60
901.562	54
903.046	58
904.529	54
906.012	54
907.495	56
908.977	56
910.459	54
911.941	58
913.422	62
914.903	52
916.383	58
917.863	54
919.343	62
920.822	60
922.301	62
923.779	54
925.257	62
926.735	62
928.213	64
929.69	60
931.166	64
932.643	66
934.119	68
935.594	74
937.069	58
938.543	70
940.018	80
941.492	80
942.966	88
944.439	98
945.911	102
947.384	116
948.856	128
950.328	150
951.799	170
953.27	224
954.741	264
956.21	340
957.68	364
959.15	410
960.619	396
962.088	394
963.556	352
965.023	312
966.491	276
967.958	236
969.425	224
970.891	178
972.357	164
973.824	144
975.288	116
976.754	108
978.218	94
979.682	86
981.146	86
982.609	76
984.072	72
985.534	70
986.997	80
988.459	68
989.92	74
991.382	66
992.842	72
994.302	68
995.763	68
997.222	62
998.681	64
1000.14	66
1001.6	66
1003.06	62
1004.52	68
1005.97	66
1007.43	68
1008.89	58
1010.34	66
1011.8	66
1013.25	70
1014.71	68
1016.16	60
1017.62	74
1019.07	76
1020.53	74
1021.98	82
1023.43	76
1024.89	84
1026.34	88
1027.79	90
1029.24	98
1030.69	100
1032.14	98
1033.59	98
1035.04	96
1036.49	96
1037.94	96
1039.39	94
1040.84	94
1042.29	90
1043.73	82
1045.18	74
1046.63	88
1048.08	76
1049.52	74
1050.97	66
1052.41	66
1053.86	76
1055.3	66
1056.75	66
1058.19	72
1059.64	70
1061.08	70
1062.52	70
1063.96	62
1065.41	66
1066.85	68
1068.29	64
1069.73	66
1071.17	60
1072.61	68
1074.05	66
1075.49	62
1076.93	66
1078.37	60
1079.81	64
1081.25	62
1082.68	70
1084.12	64
1085.56	58
1087	70
1088.43	72
1089.87	70
1091.3	70
1092.74	62
1094.17	74
1095.61	70
1097.04	76
1098.48	68
1099.91	72
1101.34	84
1102.78	88
1104.21	94
1105.64	116
1107.07	142
1108.5	208
1109.93	270
1111.36	330
1112.8	366
1114.22	344
1115.65	266
1117.08	212
1118.51	172
1119.94	134
1121.37	116
1122.8	110
1124.22	106
1125.65	100
1127.08	96
1128.5	102
1129.93	90
1131.35	86
1132.78	86
1134.2	82
1135.63	80
1137.05	80
1138.48	84
1139.9	84
1141.32	90
1142.75	80
1144.17	82
1145.59	88
1147.01	74
1148.43	80
1149.85	76
1151.27	86
1152.69	74
1154.11	68
1155.53	82
1156.95	84
1158.37	92
1159.79	96
1161.21	86
1162.62	94
1164.04	84
1165.46	98
1166.87	86
1168.29	92
1169.71	88
1171.12	88
1172.54	76
1173.95	96
1175.37	102
1176.78	106
1178.19	100
1179.61	128
1181.02	156
1182.43	164
1183.84	204
1185.26	236
1186.67	254
1188.08	244
1189.49	202
1190.9	190
1192.31	178
1193.72	164
1195.13	156
1196.54	164
1197.95	148
1199.36	174
1200.76	172
1202.17	186
1203.58	174
1204.99	182
1206.39	164
1207.8	144
1209.2	136
1210.61	118
1212.01	116
1213.42	98
1214.82	92
1216.23	90
1217.63	92
1219.03	92
1220.44	100
1221.84	88
1223.24	108
1224.64	106
1226.05	114
1227.45	140
1228.85	128
1230.25	138
1231.65	130
1233.05	126
1234.45	106
1235.85	100
1237.25	102
1238.64	90
1240.04	90
1241.44	90
1242.84	90
1244.23	88
1245.63	72
1247.03	94
1248.42	90
1249.82	84
1251.21	78
1252.61	78
1254	88
1255.4	88
1256.79	84
1258.19	96
1259.58	94
1260.97	100
1262.36	92
1263.76	100
1265.15	94
1266.54	98
1267.93	102
1269.32	100
1270.71	98
1272.1	94
1273.49	94
1274.88	108
1276.27	110
1277.66	122
1279.05	114
1280.43	126
1281.82	124
1283.21	146
1284.6	144
1285.98	150
1287.37	150
1288.75	156
1290.14	180
1291.53	188
1292.91	192
1294.29	212
1295.68	240
1297.06	308
1298.45	372
1299.83	450
1301.21	576
1302.59	718
1303.98	798
1305.36	838
1306.74	780
1308.12	650
1309.5	554
1310.88	434
1312.26	364
1313.64	300
1315.02	260
1316.4	236
1317.78	230
1319.16	202
1320.53	196
1321.91	204
1323.29	192
1324.67	190
1326.04	196
1327.42	188
1328.79	192
1330.17	188
1331.54	168
1332.92	174
1334.29	160
1335.67	164
1337.04	150
1338.42	130
1339.79	146
1341.16	148
1342.53	160
1343.91	152
1345.28	166
1346.65	168
1348.02	166
1349.39	170
1350.76	176
1352.13	174
1353.5	170
1354.87	172
1356.24	154
1357.61	168
1358.98	146
1360.34	142
1361.71	148
1363.08	158
1364.45	150
1365.81	166
1367.18	168
1368.54	180
1369.91	176
1371.28	194
1372.64	232
1374.01	296
1375.37	344
1376.73	416
1378.1	442
1379.46	446
1380.82	418
1382.19	408
1383.55	380
1384.91	328
1386.27	292
1387.63	238
1388.99	202
1390.35	188
1391.71	166
1393.07	138
1394.43	146
1395.79	142
1397.15	140
1398.51	140
1399.87	136
1401.23	150
1402.58	144
1403.94	134
1405.3	132
1406.65	128
1408.01	136
1409.37	136
1410.72	140
1412.08	146
1413.43	148
1414.79	148
1416.14	162
1417.49	160
1418.85	160
1420.2	168
1421.55	162
1422.91	172
1424.26	176
1425.61	200
1426.96	188
1428.31	184
1429.66	192
1431.01	200
1432.36	206
1433.71	200
1435.06	198
1436.41	218
1437.76	218
1439.11	230
1440.46	226
1441.81	224
1443.15	216
1444.5	206
1445.85	198
1447.19	192
1448.54	182
1449.89	174
1451.23	176
1452.58	178
1453.92	174
1455.27	174
1456.61	170
1457.95	154
1459.3	170
1460.64	168
1461.98	160
1463.33	168
1464.67	166
1466.01	148
1467.35	152
1468.69	158
1470.03	142
1471.37	154
1472.71	148
1474.05	162
1475.39	146
1476.73	148
1478.07	146
1479.41	146
1480.75	144
1482.09	144
1483.42	128
1484.76	140
1486.1	136
1487.43	130
1488.77	132
1490.11	128
1491.44	120
1492.78	114
1494.11	128
1495.45	122
1496.78	120
1498.12	122
1499.45	110
1500.78	118
1502.11	112
1503.45	118
1504.78	118
1506.11	114
1507.44	120
1508.77	110
1510.11	108
1511.44	118
1512.77	124
1514.1	114
1515.43	116
1516.76	110
1518.08	114
1519.41	108
1520.74	110
1522.07	110
1523.4	108
1524.72	106
1526.05	118
1527.38	114
1528.7	114
1530.03	104
1531.36	122
1532.68	116
1534.01	102
1535.33	102
1536.66	108
1537.98	102
1539.3	112
1540.63	112
1541.95	108
1543.27	100
1544.6	112
1545.92	106
1547.24	114
1548.56	104
1549.88	112
1551.2	106
1552.52	112
1553.84	122
1555.17	108
1556.48	114
1557.8	112
1559.12	122
1560.44	126
1561.76	116
1563.08	116
1564.4	116
1565.71	126
1567.03	120
1568.35	130
1569.66	130
1570.98	120
1572.29	134
1573.61	130
1574.93	130
1576.24	142
1577.55	144
1578.87	148
1580.18	164
1581.5	170
1582.81	168
1584.12	194
1585.43	196
1586.75	212
1588.06	226
1589.37	240
1590.68	272
1591.99	304
1593.3	310
1594.61	358
1595.92	388
1597.23	412
1598.54	462
1599.85	474
1601.16	508
1602.47	488
1603.78	482
1605.08	486
1606.39	434
1607.7	418
1609	396
1610.31	356
1611.62	330
1612.92	298
1614.23	272
1615.53	260
1616.84	230
1618.14	214
1619.45	196
1620.75	168
1622.06	156
1623.36	146
1624.66	140
1625.96	122
1627.27	130
1628.57	124
1629.87	120
1631.17	98
1632.47	106
1633.77	108
1635.07	106
1636.37	94
1637.67	106
1638.97	90
1640.27	94
1641.57	100
1642.87	94
1644.17	78
1645.47	88
1646.76	84
1648.06	94
1649.36	88
1650.66	86
1651.95	76
1653.25	86
1654.54	90
1655.84	86
1657.13	88
1658.43	76
1659.72	86
1661.02	86
1662.31	78
1663.6	70
1664.9	84
1666.19	78
1667.48	80
1668.78	80
1670.07	82
1671.36	84
1672.65	72
1673.94	76
1675.23	82
1676.52	80
1677.81	82
1679.1	72
1680.39	80
1681.68	78
1682.97	78
1684.26	84
1685.55	74
1686.83	76
1688.12	90
1689.41	80
1690.7	74
1691.98	88
1693.27	76
1694.55	82
1695.84	80
1697.13	90
1698.41	76
1699.69	86
1700.98	76
1702.26	78