File: Jesse_Dataset_v2/Pure Raman/Polypropylene oxide/785nm/ps-ppo-6jan25-0,0000-map2_Y02_X01.txt
204.377	398
206.045	390
207.713	366
209.38	376
211.048	360
212.715	350
214.381	328
216.047	342
217.712	358
219.377	374
221.042	394
222.706	448
224.369	478
226.032	598
227.695	684
229.357	818
231.019	918
232.68	1006
234.341	1008
236.001	1012
237.661	950
239.321	862
240.98	838
242.639	718
244.297	660
245.955	620
247.612	518
249.268	504
250.924	428
252.58	392
254.236	346
255.891	322
257.546	286
259.2	256
260.854	250
262.507	216
264.16	222
265.812	214
267.463	200
269.115	198
270.766	196
272.417	180
274.067	184
275.717	188
277.365	178
279.014	204
280.663	226
282.311	226
283.958	240
285.605	282
287.252	296
288.898	344
290.543	394
292.188	442
293.833	450
295.477	456
297.121	450
298.765	436
300.407	390
302.05	386
303.693	344
305.334	320
306.975	312
308.615	280
310.256	280
311.896	272
313.535	264
315.175	228
316.813	246
318.451	236
320.089	234
321.726	236
323.362	242
324.999	236
326.635	246
328.271	264
329.905	272
331.54	264
333.174	270
334.807	262
336.441	262
338.074	264
339.707	250
341.338	250
342.969	238
344.601	222
346.231	228
347.861	222
349.491	236
351.12	224
352.749	226
354.378	212
356.006	216
357.633	218
359.261	222
360.887	210
362.513	194
364.139	196
365.764	188
367.39	206
369.014	210
370.638	216
372.261	206
373.884	210
375.508	202
377.13	172
378.752	170
380.373	166
381.994	150
383.615	154
385.235	152
386.854	148
388.473	144
390.092	140
391.711	132
393.328	118
394.947	122
396.564	136
398.181	124
399.797	130
401.412	134
403.027	136
404.642	140
406.257	156
407.871	146
409.484	178
411.098	198
412.711	218
414.323	230
415.935	210
417.547	198
419.158	190
420.768	160
422.378	144
423.988	140
425.597	138
427.206	126
428.814	132
430.422	88
432.03	110
433.637	104
435.243	104
436.85	96
438.456	90
440.062	96
441.666	84
443.271	82
444.876	84
446.479	86
448.082	82
449.685	82
451.287	80
452.89	82
454.492	78
456.092	84
457.693	80
459.293	88
460.893	94
462.492	90
464.092	96
465.691	112
467.288	116
468.887	134
470.483	138
472.081	160
473.677	182
475.273	192
476.869	198
478.463	236
480.059	260
481.653	268
483.247	292
484.84	286
486.433	306
488.026	248
489.618	208
491.21	190
492.801	164
494.392	152
495.983	128
497.573	118
499.162	106
500.752	112
502.341	104
503.929	102
505.517	102
507.105	120
508.692	130
510.279	162
511.865	200
513.45	226
515.037	210
516.621	162
518.206	156
519.79	152
521.374	160
522.957	156
524.54	162
526.123	188
527.705	212
529.287	238
530.868	274
532.448	328
534.029	366
535.609	404
537.188	452
538.768	476
540.346	482
541.925	428
543.502	384
545.08	316
546.657	266
548.234	220
549.81	216
551.386	196
552.961	198
554.536	228
556.11	242
557.684	284
559.258	320
560.832	404
562.405	570
563.977	740
565.55	1020
567.12	1484
568.692	2018
570.263	2454
571.833	2414
573.403	2148
574.973	1550
576.542	1074
578.111	732
579.679	540
581.247	432
582.815	368
584.382	362
585.948	356
587.514	310
589.081	300
590.645	284
592.211	272
593.775	274
595.339	270
596.904	230
598.466	218
600.03	198
601.592	158
603.154	148
604.715	130
606.277	114
607.838	116
609.398	102
610.958	96
612.518	94
614.077	92
615.636	106
617.194	96
618.753	100
620.31	100
621.867	104
623.424	114
624.98	118
626.537	132
628.092	132
629.647	140
631.202	148
632.756	146
634.31	162
635.864	158
637.417	158
638.969	150
640.521	138
642.074	140
643.625	128
645.176	116
646.726	112
648.276	104
649.827	96
651.376	88
652.925	84
654.473	92
656.021	84
657.569	84
659.117	86
660.664	82
662.21	74
663.757	68
665.302	64
666.847	72
668.392	70
669.937	62
671.481	56
673.025	62
674.568	64
676.111	66
677.653	62
679.195	64
680.737	60
682.279	50
683.82	64
685.36	70
686.9	60
688.44	62
689.979	56
691.517	60
693.056	68
694.594	64
696.132	60
697.669	62
699.206	64
700.742	58
702.278	68
703.814	64
705.35	60
706.884	76
708.419	84
709.953	82
711.487	92
713.019	90
714.552	98
716.085	98
717.617	92
719.148	88
720.68	84
722.21	84
723.741	82
725.271	68
726.8	72
728.33	82
729.858	80
731.387	80
732.915	76
734.443	80
735.97	88
737.497	82
739.023	84
740.549	90
742.075	108
743.6	108
745.125	134
746.65	138
748.173	156
749.697	152
751.22	132
752.743	118
754.266	130
755.788	116
757.309	100
758.831	90
760.351	84
761.871	82
763.392	74
764.912	76
766.431	80
767.95	70
769.468	68
770.986	74
772.504	76
774.022	82
775.538	78
777.055	84
778.571	76
780.086	84
781.602	76
783.117	84
784.632	84
786.146	78
787.659	76
789.173	64
790.685	66
792.198	70
793.71	62
795.222	72
796.733	64
798.244	70
799.755	62
801.265	62
802.775	72
804.284	74
805.793	74
807.302	74
808.81	84
810.318	74
811.826	72
813.333	74
814.84	78
816.346	82
817.851	74
819.357	88
820.862	96
822.367	108
823.871	120
825.376	138
826.878	186
828.382	264
829.885	348
831.387	512
832.889	608
834.391	574
835.892	410
837.392	264
838.893	178
840.393	134
841.893	128
843.392	112
844.891	106
846.389	106
847.888	106
849.386	108
850.882	90
852.38	96
853.876	90
855.372	86
856.868	94
858.363	88
859.858	82
861.353	92
862.847	78
864.341	72
865.834	74
867.328	72
868.82	72
870.313	70
871.805	72
873.296	58
874.787	66
876.278	62
877.769	68
879.258	62
880.748	62
882.237	64
883.726	60
885.214	66
886.702	58
888.19	60
889.677	64
891.164	62
892.651	60
894.137	64
895.623	54
897.108	56
898.593	62
900.077	62
901.562	58
903.046	66
904.529	54
906.012	56
907.495	60
908.977	56
910.459	58
911.941	56
913.422	64
914.903	56
916.383	60
917.863	54
919.343	62
920.822	56
922.301	64
923.779	52
925.257	62
926.735	60
928.213	58
929.69	64
931.166	68
932.643	64
934.119	70
935.594	70
937.069	68
938.543	82
940.018	80
941.492	88
942.966	84
944.439	100
945.911	108
947.384	116
948.856	124
950.328	154
951.799	184
953.27	228
954.741	268
956.21	318
957.68	370
959.15	388
960.619	390
962.088	384
963.556	346
965.023	284
966.491	274
967.958	236
969.425	200
970.891	190
972.357	164
973.824	146
975.288	122
976.754	108
978.218	98
979.682	90
981.146	78
982.609	78
984.072	78
985.534	80
986.997	70
988.459	72
989.92	70
991.382	76
992.842	80
994.302	70
995.763	68
997.222	62
998.681	62
1000.14	74
1001.6	62
1003.06	62
1004.52	62
1005.97	64
1007.43	66
1008.89	66
1010.34	60
1011.8	68
1013.25	72
1014.71	66
1016.16	70
1017.62	74
1019.07	74
1020.53	84
1021.98	82
1023.43	84
1024.89	90
1026.34	90
1027.79	98
1029.24	98
1030.69	98
1032.14	102
1033.59	100
1035.04	108
1036.49	100
1037.94	102
1039.39	92
1040.84	92
1042.29	78
1043.73	90
1045.18	86
1046.63	86
1048.08	70
1049.52	72
1050.97	70
1052.41	68
1053.86	70
1055.3	70
1056.75	66
1058.19	64
1059.64	62
1061.08	64
1062.52	68
1063.96	68
1065.41	60
1066.85	64
1068.29	58
1069.73	68
1071.17	70
1072.61	62
1074.05	64
1075.49	66
1076.93	68
1078.37	68
1079.81	64
1081.25	70
1082.68	68
1084.12	64
1085.56	58
1087	64
1088.43	66
1089.87	64
1091.3	66
1092.74	70
1094.17	60
1095.61	72
1097.04	68
1098.48	74
1099.91	78
1101.34	84
1102.78	90
1104.21	102
1105.64	120
1107.07	144
1108.5	196
1109.93	264
1111.36	366
1112.8	370
1114.22	334
1115.65	264
1117.08	208
1118.51	162
1119.94	146
1121.37	118
1122.8	108
1124.22	106
1125.65	108
1127.08	88
1128.5	92
1129.93	90
1131.35	94
1132.78	78
1134.2	84
1135.63	86
1137.05	96
1138.48	92
1139.9	94
1141.32	86
1142.75	88
1144.17	86
1145.59	84
1147.01	72
1148.43	82
1149.85	72
1151.27	76
1152.69	76
1154.11	82
1155.53	82
1156.95	90
1158.37	82
1159.79	88
1161.21	84
1162.62	100
1164.04	92
1165.46	104
1166.87	94
1168.29	88
1169.71	88
1171.12	90
1172.54	88
1173.95	88
1175.37	102
1176.78	110
1178.19	106
1179.61	134
1181.02	146
1182.43	176
1183.84	204
1185.26	230
1186.67	252
1188.08	244
1189.49	228
1190.9	208
1192.31	166
1193.72	160
1195.13	158
1196.54	154
1197.95	170
1199.36	172
1200.76	160
1202.17	182
1203.58	188
1204.99	178
1206.39	168
1207.8	158
1209.2	120
1210.61	130
1212.01	116
1213.42	88
1214.82	92
1216.23	90
1217.63	94
1219.03	80
1220.44	86
1221.84	94
1223.24	94
1224.64	106
1226.05	110
1227.45	122
1228.85	136
1230.25	138
1231.65	128
1233.05	136
1234.45	118
1235.85	106
1237.25	94
1238.64	96
1240.04	98
1241.44	98
1242.84	90
1244.23	86
1245.63	88
1247.03	96
1248.42	92
1249.82	84
1251.21	84
1252.61	94
1254	80
1255.4	90
1256.79	92
1258.19	86
1259.58	96
1260.97	96
1262.36	94
1263.76	96
1265.15	100
1266.54	90
1267.93	98
1269.32	100
1270.71	100
1272.1	106
1273.49	102
1274.88	102
1276.27	104
1277.66	122
1279.05	122
1280.43	134
1281.82	128
1283.21	138
1284.6	142
1285.98	148
1287.37	146
1288.75	164
1290.14	158
1291.53	184
1292.91	184
1294.29	224
1295.68	236
1297.06	286
1298.45	360
1299.83	462
1301.21	568
1302.59	686
1303.98	816
1305.36	834
1306.74	774
1308.12	662
1309.5	548
1310.88	452
1312.26	348
1313.64	308
1315.02	266
1316.4	254
1317.78	232
1319.16	196
1320.53	210
1321.91	188
1323.29	192
1324.67	192
1326.04	190
1327.42	198
1328.79	182
1330.17	180
1331.54	186
1332.92	172
1334.29	170
1335.67	162
1337.04	150
1338.42	150
1339.79	142
1341.16	154
1342.53	142
1343.91	158
1345.28	170
1346.65	166
1348.02	162
1349.39	166
1350.76	168
1352.13	180
1353.5	168
1354.87	172
1356.24	156
1357.61	160
1358.98	152
1360.34	150
1361.71	152
1363.08	152
1364.45	156
1365.81	168
1367.18	166
1368.54	172
1369.91	206
1371.28	204
1372.64	222
1374.01	280
1375.37	340
1376.73	394
1378.1	440
1379.46	444
1380.82	446
1382.19	412
1383.55	382
1384.91	340
1386.27	282
1387.63	236
1388.99	208
1390.35	182
1391.71	162
1393.07	150
1394.43	150
1395.79	144
1397.15	134
1398.51	146
1399.87	148
1401.23	148
1402.58	144
1403.94	144
1405.3	136
1406.65	130
1408.01	140
1409.37	136
1410.72	142
1412.08	138
1413.43	140
1414.79	138
1416.14	156
1417.49	160
1418.85	168
1420.2	162
1421.55	182
1422.91	182
1424.26	188
1425.61	186
1426.96	184
1428.31	200
1429.66	200
1431.01	188
1432.36	184
1433.71	206
1435.06	202
1436.41	214
1437.76	212
1439.11	238
1440.46	222
1441.81	220
1443.15	208
1444.5	218
1445.85	198
1447.19	190
1448.54	196
1449.89	184
1451.23	182
1452.58	166
1453.92	166
1455.27	176
1456.61	168
1457.95	172
1459.3	164
1460.64	160
1461.98	172
1463.33	172
1464.67	156
1466.01	170
1467.35	162
1468.69	156
1470.03	160
1471.37	156
1472.71	162
1474.05	148
1475.39	150
1476.73	160
1478.07	160
1479.41	154
1480.75	142
1482.09	142
1483.42	146
1484.76	146
1486.1	120
1487.43	126
1488.77	122
1490.11	116
1491.44	124
1492.78	120
1494.11	118
1495.45	124
1496.78	112
1498.12	120
1499.45	116
1500.78	118
1502.11	114
1503.45	116
1504.78	114
1506.11	114
1507.44	116
1508.77	108
1510.11	112
1511.44	122
1512.77	108
1514.1	104
1515.43	110
1516.76	110
1518.08	118
1519.41	110
1520.74	108
1522.07	112
1523.4	118
1524.72	112
1526.05	112
1527.38	114
1528.7	114
1530.03	110
1531.36	100
1532.68	104
1534.01	112
1535.33	112
1536.66	100
1537.98	102
1539.3	114
1540.63	110
1541.95	110
1543.27	106
1544.6	110
1545.92	102
1547.24	98
1548.56	124
1549.88	108
1551.2	112
1552.52	116
1553.84	102
1555.17	110
1556.48	112
1557.8	110
1559.12	114
1560.44	108
1561.76	110
1563.08	108
1564.4	106
1565.71	120
1567.03	114
1568.35	120
1569.66	122
1570.98	124
1572.29	128
1573.61	130
1574.93	126
1576.24	136
1577.55	140
1578.87	142
1580.18	156
1581.5	164
1582.81	172
1584.12	190
1585.43	198
1586.75	216
1588.06	230
1589.37	260
1590.68	282
1591.99	296
1593.3	316
1594.61	354
1595.92	364
1597.23	412
1598.54	460
1599.85	456
1601.16	488
1602.47	488
1603.78	484
1605.08	476
1606.39	446
1607.7	438
1609	402
1610.31	376
1611.62	328
1612.92	296
1614.23	276
1615.53	246
1616.84	228
1618.14	222
1619.45	194
1620.75	178
1622.06	162
1623.36	158
1624.66	144
1625.96	136
1627.27	116
1628.57	120
1629.87	120
1631.17	112
1632.47	106
1633.77	104
1635.07	96
1636.37	90
1637.67	90
1638.97	96
1640.27	94
1641.57	88
1642.87	88
1644.17	90
1645.47	88
1646.76	90
1648.06	94
1649.36	90
1650.66	96
1651.95	86
1653.25	90
1654.54	82
1655.84	78
1657.13	80
1658.43	84
1659.72	82
1661.02	82
1662.31	78
1663.6	78
1664.9	78
1666.19	84
1667.48	86
1668.78	84
1670.07	76
1671.36	76
1672.65	80
1673.94	74
1675.23	78
1676.52	76
1677.81	82
1679.1	78
1680.39	78
1681.68	76
1682.97	80
1684.26	82
1685.55	88
1686.83	72
1688.12	80
1689.41	80
1690.7	78
1691.98	86
1693.27	76
1694.55	80
1695.84	84
1697.13	78
1698.41	76
1699.69	86
1700.98	80
1702.26	84