File: Jesse_Dataset_v2/Pure Raman/Polypropylene oxide/785nm/ps-ppo-6jan25-0,0000-map2_Y02_X03.txt
204.377	390
206.045	380
207.713	358
209.38	354
211.048	344
212.715	340
214.381	314
216.047	328
217.712	358
219.377	334
221.042	386
222.706	432
224.369	500
226.032	556
227.695	678
229.357	774
231.019	914
232.68	998
234.341	1010
236.001	990
237.661	930
239.321	842
240.98	802
242.639	688
244.297	656
245.955	570
247.612	506
249.268	446
250.924	412
252.58	370
254.236	328
255.891	314
257.546	288
259.2	258
260.854	244
262.507	222
264.16	214
265.812	198
267.463	180
269.115	192
270.766	184
272.417	180
274.067	184
275.717	184
277.365	182
279.014	196
280.663	198
282.311	220
283.958	226
285.605	262
287.252	312
288.898	342
290.543	376
292.188	410
293.833	424
295.477	454
297.121	440
298.765	432
300.407	400
302.05	376
303.693	338
305.334	320
306.975	292
308.615	264
310.256	260
311.896	250
313.535	256
315.175	248
316.813	242
318.451	236
320.089	246
321.726	234
323.362	238
324.999	248
326.635	234
328.271	244
329.905	258
331.54	266
333.174	254
334.807	272
336.441	240
338.074	236
339.707	240
341.338	224
342.969	220
344.601	220
346.231	220
347.861	212
349.491	202
351.12	206
352.749	204
354.378	228
356.006	220
357.633	208
359.261	212
360.887	208
362.513	190
364.139	186
365.764	198
367.39	194
369.014	202
370.638	212
372.261	198
373.884	202
375.508	198
377.13	176
378.752	176
380.373	168
381.994	146
383.615	144
385.235	148
386.854	136
388.473	138
390.092	136
391.711	144
393.328	122
394.947	128
396.564	138
398.181	128
399.797	128
401.412	126
403.027	126
404.642	130
406.257	154
407.871	150
409.484	174
411.098	202
412.711	218
414.323	218
415.935	218
417.547	204
419.158	164
420.768	158
422.378	150
423.988	130
425.597	126
427.206	116
428.814	112
430.422	112
432.03	96
433.637	100
435.243	90
436.85	82
438.456	86
440.062	86
441.666	80
443.271	88
444.876	82
446.479	86
448.082	76
449.685	76
451.287	78
452.89	74
454.492	74
456.092	82
457.693	84
459.293	90
460.893	82
462.492	90
464.092	96
465.691	90
467.288	114
468.887	116
470.483	136
472.081	150
473.677	174
475.273	192
476.869	204
478.463	226
480.059	250
481.653	242
483.247	282
484.84	294
486.433	282
488.026	258
489.618	214
491.21	166
492.801	154
494.392	158
495.983	130
497.573	110
499.162	110
500.752	98
502.341	96
503.929	106
505.517	114
507.105	116
508.692	136
510.279	166
511.865	220
513.45	230
515.037	204
516.621	176
518.206	160
519.79	150
521.374	150
522.957	154
524.54	160
526.123	186
527.705	212
529.287	238
530.868	260
532.448	322
534.029	384
535.609	406
537.188	444
538.768	456
540.346	440
541.925	420
543.502	374
545.08	332
546.657	250
548.234	238
549.81	196
551.386	202
552.961	210
554.536	212
556.11	220
557.684	282
559.258	316
560.832	384
562.405	554
563.977	736
565.55	1070
567.12	1470
568.692	1954
570.263	2398
571.833	2354
573.403	2034
574.973	1494
576.542	1008
578.111	708
579.679	516
581.247	416
582.815	370
584.382	352
585.948	332
587.514	316
589.081	304
590.645	292
592.211	280
593.775	262
595.339	242
596.904	242
598.466	192
600.03	178
601.592	148
603.154	138
604.715	120
606.277	104
607.838	112
609.398	100
610.958	92
612.518	94
614.077	88
615.636	92
617.194	100
618.753	98
620.31	100
621.867	94
623.424	114
624.98	110
626.537	120
628.092	126
629.647	124
631.202	144
632.756	148
634.31	160
635.864	154
637.417	148
638.969	152
640.521	140
642.074	136
643.625	140
645.176	118
646.726	110
648.276	98
649.827	106
651.376	92
652.925	90
654.473	84
656.021	86
657.569	82
659.117	74
660.664	74
662.21	76
663.757	70
665.302	74
666.847	64
668.392	64
669.937	66
671.481	62
673.025	58
674.568	70
676.111	66
677.653	60
679.195	60
680.737	64
682.279	68
683.82	58
685.36	60
686.9	66
688.44	60
689.979	58
691.517	60
693.056	58
694.594	60
696.132	56
697.669	54
699.206	54
700.742	60
702.278	62
703.814	70
705.35	72
706.884	72
708.419	76
709.953	78
711.487	86
713.019	94
714.552	98
716.085	106
717.617	84
719.148	80
720.68	86
722.21	80
723.741	68
725.271	78
726.8	78
728.33	76
729.858	80
731.387	70
732.915	80
734.443	78
735.97	90
737.497	86
739.023	88
740.549	100
742.075	98
743.6	120
745.125	124
746.65	140
748.173	146
749.697	128
751.22	114
752.743	114
754.266	122
755.788	118
757.309	108
758.831	88
760.351	88
761.871	80
763.392	78
764.912	76
766.431	70
767.95	68
769.468	72
770.986	70
772.504	70
774.022	76
775.538	76
777.055	78
778.571	76
780.086	82
781.602	76
783.117	78
784.632	74
786.146	78
787.659	78
789.173	76
790.685	68
792.198	70
793.71	62
795.222	74
796.733	64
798.244	72
799.755	72
801.265	70
802.775	68
804.284	70
805.793	82
807.302	80
808.81	76
810.318	74
811.826	74
813.333	68
814.84	72
816.346	74
817.851	80
819.357	88
820.862	86
822.367	108
823.871	120
825.376	138
826.878	176
828.382	242
829.885	346
831.387	500
832.889	594
834.391	568
835.892	410
837.392	258
838.893	172
840.393	130
841.893	100
843.392	98
844.891	102
846.389	98
847.888	104
849.386	108
850.882	78
852.38	92
853.876	92
855.372	86
856.868	88
858.363	86
859.858	70
861.353	86
862.847	78
864.341	72
865.834	80
867.328	68
868.82	70
870.313	64
871.805	66
873.296	66
874.787	66
876.278	60
877.769	64
879.258	68
880.748	62
882.237	62
883.726	56
885.214	56
886.702	68
888.19	58
889.677	58
891.164	52
892.651	52
894.137	60
895.623	56
897.108	56
898.593	58
900.077	62
901.562	60
903.046	56
904.529	64
906.012	58
907.495	62
908.977	58
910.459	50
911.941	50
913.422	62
914.903	62
916.383	62
917.863	54
919.343	58
920.822	64
922.301	56
923.779	58
925.257	58
926.735	64
928.213	60
929.69	54
931.166	66
932.643	60
934.119	64
935.594	66
937.069	70
938.543	70
940.018	74
941.492	88
942.966	78
944.439	90
945.911	100
947.384	114
948.856	128
950.328	162
951.799	190
953.27	214
954.741	264
956.21	306
957.68	352
959.15	374
960.619	398
962.088	366
963.556	342
965.023	306
966.491	256
967.958	232
969.425	212
970.891	186
972.357	172
973.824	134
975.288	116
976.754	102
978.218	94
979.682	82
981.146	82
982.609	78
984.072	68
985.534	76
986.997	68
988.459	70
989.92	76
991.382	70
992.842	82
994.302	72
995.763	64
997.222	64
998.681	70
1000.14	58
1001.6	64
1003.06	56
1004.52	56
1005.97	62
1007.43	60
1008.89	62
1010.34	60
1011.8	58
1013.25	70
1014.71	68
1016.16	76
1017.62	72
1019.07	80
1020.53	70
1021.98	84
1023.43	82
1024.89	78
1026.34	90
1027.79	94
1029.24	96
1030.69	100
1032.14	96
1033.59	98
1035.04	100
1036.49	98
1037.94	92
1039.39	96
1040.84	84
1042.29	94
1043.73	84
1045.18	86
1046.63	72
1048.08	80
1049.52	72
1050.97	62
1052.41	74
1053.86	62
1055.3	68
1056.75	64
1058.19	60
1059.64	68
1061.08	66
1062.52	66
1063.96	64
1065.41	60
1066.85	68
1068.29	68
1069.73	58
1071.17	64
1072.61	60
1074.05	60
1075.49	66
1076.93	62
1078.37	64
1079.81	54
1081.25	62
1082.68	68
1084.12	64
1085.56	68
1087	66
1088.43	68
1089.87	68
1091.3	66
1092.74	74
1094.17	72
1095.61	66
1097.04	72
1098.48	68
1099.91	82
1101.34	80
1102.78	80
1104.21	106
1105.64	112
1107.07	156
1108.5	208
1109.93	274
1111.36	356
1112.8	360
1114.22	328
1115.65	254
1117.08	212
1118.51	154
1119.94	116
1121.37	110
1122.8	110
1124.22	108
1125.65	98
1127.08	98
1128.5	94
1129.93	88
1131.35	94
1132.78	86
1134.2	88
1135.63	82
1137.05	86
1138.48	88
1139.9	90
1141.32	90
1142.75	90
1144.17	78
1145.59	78
1147.01	76
1148.43	64
1149.85	66
1151.27	76
1152.69	70
1154.11	82
1155.53	72
1156.95	78
1158.37	90
1159.79	86
1161.21	90
1162.62	94
1164.04	86
1165.46	98
1166.87	84
1168.29	102
1169.71	88
1171.12	86
1172.54	94
1173.95	98
1175.37	102
1176.78	108
1178.19	104
1179.61	126
1181.02	140
1182.43	168
1183.84	204
1185.26	234
1186.67	242
1188.08	258
1189.49	218
1190.9	202
1192.31	184
1193.72	162
1195.13	148
1196.54	154
1197.95	160
1199.36	164
1200.76	172
1202.17	172
1203.58	188
1204.99	172
1206.39	170
1207.8	144
1209.2	126
1210.61	116
1212.01	120
1213.42	100
1214.82	92
1216.23	86
1217.63	90
1219.03	94
1220.44	86
1221.84	92
1223.24	102
1224.64	104
1226.05	108
1227.45	122
1228.85	126
1230.25	142
1231.65	114
1233.05	116
1234.45	106
1235.85	106
1237.25	104
1238.64	92
1240.04	88
1241.44	84
1242.84	82
1244.23	90
1245.63	88
1247.03	88
1248.42	86
1249.82	82
1251.21	94
1252.61	92
1254	80
1255.4	92
1256.79	88
1258.19	94
1259.58	92
1260.97	90
1262.36	98
1263.76	94
1265.15	90
1266.54	96
1267.93	102
1269.32	100
1270.71	96
1272.1	96
1273.49	102
1274.88	104
1276.27	110
1277.66	112
1279.05	110
1280.43	126
1281.82	128
1283.21	140
1284.6	138
1285.98	154
1287.37	162
1288.75	166
1290.14	158
1291.53	170
1292.91	204
1294.29	232
1295.68	256
1297.06	286
1298.45	346
1299.83	444
1301.21	544
1302.59	702
1303.98	782
1305.36	838
1306.74	756
1308.12	648
1309.5	508
1310.88	442
1312.26	360
1313.64	298
1315.02	276
1316.4	254
1317.78	222
1319.16	212
1320.53	200
1321.91	198
1323.29	194
1324.67	196
1326.04	180
1327.42	178
1328.79	192
1330.17	186
1331.54	188
1332.92	164
1334.29	168
1335.67	158
1337.04	154
1338.42	152
1339.79	140
1341.16	160
1342.53	168
1343.91	158
1345.28	152
1346.65	162
1348.02	172
1349.39	168
1350.76	158
1352.13	184
1353.5	170
1354.87	156
1356.24	162
1357.61	136
1358.98	170
1360.34	150
1361.71	162
1363.08	156
1364.45	152
1365.81	154
1367.18	164
1368.54	166
1369.91	178
1371.28	196
1372.64	216
1374.01	286
1375.37	348
1376.73	382
1378.1	422
1379.46	450
1380.82	436
1382.19	382
1383.55	358
1384.91	328
1386.27	296
1387.63	244
1388.99	210
1390.35	184
1391.71	172
1393.07	166
1394.43	152
1395.79	142
1397.15	134
1398.51	138
1399.87	140
1401.23	148
1402.58	134
1403.94	128
1405.3	154
1406.65	136
1408.01	138
1409.37	132
1410.72	152
1412.08	142
1413.43	146
1414.79	162
1416.14	154
1417.49	168
1418.85	150
1420.2	162
1421.55	180
1422.91	178
1424.26	182
1425.61	182
1426.96	196
1428.31	172
1429.66	188
1431.01	184
1432.36	202
1433.71	210
1435.06	206
1436.41	198
1437.76	212
1439.11	226
1440.46	212
1441.81	222
1443.15	204
1444.5	200
1445.85	202
1447.19	196
1448.54	184
1449.89	172
1451.23	162
1452.58	172
1453.92	172
1455.27	158
1456.61	166
1457.95	156
1459.3	172
1460.64	156
1461.98	158
1463.33	164
1464.67	164
1466.01	160
1467.35	140
1468.69	160
1470.03	148
1471.37	158
1472.71	152
1474.05	154
1475.39	142
1476.73	148
1478.07	148
1479.41	150
1480.75	138
1482.09	144
1483.42	132
1484.76	132
1486.1	142
1487.43	132
1488.77	138
1490.11	132
1491.44	118
1492.78	118
1494.11	128
1495.45	116
1496.78	112
1498.12	124
1499.45	114
1500.78	118
1502.11	118
1503.45	116
1504.78	106
1506.11	110
1507.44	114
1508.77	108
1510.11	120
1511.44	106
1512.77	112
1514.1	116
1515.43	118
1516.76	112
1518.08	116
1519.41	116
1520.74	110
1522.07	114
1523.4	114
1524.72	114
1526.05	108
1527.38	114
1528.7	98
1530.03	108
1531.36	122
1532.68	118
1534.01	106
1535.33	102
1536.66	114
1537.98	108
1539.3	104
1540.63	108
1541.95	108
1543.27	112
1544.6	110
1545.92	110
1547.24	108
1548.56	114
1549.88	114
1551.2	112
1552.52	118
1553.84	122
1555.17	116
1556.48	112
1557.8	114
1559.12	112
1560.44	118
1561.76	118
1563.08	114
1564.4	116
1565.71	116
1567.03	114
1568.35	112
1569.66	118
1570.98	124
1572.29	130
1573.61	126
1574.93	138
1576.24	144
1577.55	148
1578.87	144
1580.18	152
1581.5	164
1582.81	166
1584.12	172
1585.43	180
1586.75	210
1588.06	232
1589.37	246
1590.68	274
1591.99	300
1593.3	338
1594.61	366
1595.92	392
1597.23	396
1598.54	428
1599.85	454
1601.16	500
1602.47	488
1603.78	494
1605.08	464
1606.39	436
1607.7	408
1609	382
1610.31	372
1611.62	332
1612.92	292
1614.23	302
1615.53	252
1616.84	240
1618.14	226
1619.45	174
1620.75	190
1622.06	156
1623.36	158
1624.66	126
1625.96	128
1627.27	122
1628.57	114
1629.87	108
1631.17	116
1632.47	110
1633.77	98
1635.07	94
1636.37	108
1637.67	90
1638.97	96
1640.27	86
1641.57	80
1642.87	102
1644.17	96
1645.47	78
1646.76	82
1648.06	88
1649.36	94
1650.66	94
1651.95	86
1653.25	86
1654.54	82
1655.84	80
1657.13	84
1658.43	82
1659.72	80
1661.02	88
1662.31	84
1663.6	94
1664.9	86
1666.19	82
1667.48	76
1668.78	84
1670.07	86
1671.36	82
1672.65	82
1673.94	82
1675.23	78
1676.52	80
1677.81	74
1679.1	82
1680.39	76
1681.68	78
1682.97	84
1684.26	78
1685.55	74
1686.83	82
1688.12	78
1689.41	76
1690.7	80
1691.98	82
1693.27	78
1694.55	84
1695.84	86
1697.13	76
1698.41	86
1699.69	82
1700.98	74
1702.26	82