File: Jesse_Dataset_v2/Pure Raman/Polypropylene oxide/785nm/ps-ppo-6jan25-0,0000-map2_Y05_X06.txt
204.377	372
206.045	352
207.713	352
209.38	344
211.048	336
212.715	330
214.381	320
216.047	304
217.712	324
219.377	340
221.042	366
222.706	408
224.369	476
226.032	548
227.695	638
229.357	736
231.019	882
232.68	964
234.341	972
236.001	886
237.661	898
239.321	820
240.98	746
242.639	660
244.297	628
245.955	546
247.612	492
249.268	446
250.924	372
252.58	346
254.236	318
255.891	278
257.546	260
259.2	232
260.854	220
262.507	216
264.16	192
265.812	196
267.463	184
269.115	180
270.766	184
272.417	164
274.067	168
275.717	162
277.365	176
279.014	182
280.663	182
282.311	196
283.958	220
285.605	252
287.252	284
288.898	320
290.543	350
292.188	382
293.833	418
295.477	416
297.121	396
298.765	368
300.407	336
302.05	356
303.693	308
305.334	292
306.975	280
308.615	276
310.256	258
311.896	234
313.535	224
315.175	236
316.813	222
318.451	214
320.089	206
321.726	216
323.362	220
324.999	228
326.635	220
328.271	226
329.905	240
331.54	240
333.174	246
334.807	242
336.441	252
338.074	242
339.707	230
341.338	216
342.969	202
344.601	202
346.231	204
347.861	206
349.491	200
351.12	202
352.749	196
354.378	212
356.006	206
357.633	186
359.261	200
360.887	182
362.513	176
364.139	182
365.764	176
367.39	180
369.014	182
370.638	184
372.261	186
373.884	174
375.508	180
377.13	156
378.752	158
380.373	148
381.994	154
383.615	144
385.235	132
386.854	128
388.473	134
390.092	128
391.711	120
393.328	124
394.947	122
396.564	110
398.181	126
399.797	124
401.412	112
403.027	118
404.642	134
406.257	130
407.871	154
409.484	160
411.098	176
412.711	208
414.323	196
415.935	202
417.547	184
419.158	168
420.768	150
422.378	136
423.988	130
425.597	120
427.206	110
428.814	106
430.422	92
432.03	100
433.637	88
435.243	96
436.85	90
438.456	86
440.062	88
441.666	78
443.271	74
444.876	78
446.479	68
448.082	76
449.685	70
451.287	70
452.89	72
454.492	72
456.092	74
457.693	76
459.293	74
460.893	88
462.492	86
464.092	78
465.691	104
467.288	112
468.887	122
470.483	130
472.081	144
473.677	150
475.273	168
476.869	194
478.463	216
480.059	238
481.653	262
483.247	264
484.84	294
486.433	260
488.026	242
489.618	182
491.21	156
492.801	138
494.392	134
495.983	122
497.573	108
499.162	100
500.752	104
502.341	94
503.929	84
505.517	98
507.105	102
508.692	130
510.279	158
511.865	192
513.45	212
515.037	186
516.621	166
518.206	142
519.79	126
521.374	138
522.957	146
524.54	160
526.123	158
527.705	196
529.287	224
530.868	250
532.448	300
534.029	352
535.609	390
537.188	424
538.768	412
540.346	416
541.925	392
543.502	378
545.08	292
546.657	250
548.234	198
549.81	198
551.386	192
552.961	204
554.536	192
556.11	230
557.684	270
559.258	302
560.832	410
562.405	512
563.977	704
565.55	964
567.12	1374
568.692	1886
570.263	2224
571.833	2266
573.403	1896
574.973	1408
576.542	974
578.111	652
579.679	486
581.247	374
582.815	342
584.382	332
585.948	334
587.514	294
589.081	282
590.645	262
592.211	252
593.775	254
595.339	222
596.904	226
598.466	196
600.03	154
601.592	142
603.154	122
604.715	112
606.277	100
607.838	96
609.398	90
610.958	96
612.518	96
614.077	92
615.636	90
617.194	86
618.753	90
620.31	80
621.867	102
623.424	98
624.98	98
626.537	118
628.092	122
629.647	128
631.202	136
632.756	132
634.31	154
635.864	140
637.417	140
638.969	136
640.521	128
642.074	116
643.625	114
645.176	108
646.726	104
648.276	104
649.827	96
651.376	78
652.925	82
654.473	82
656.021	78
657.569	74
659.117	64
660.664	68
662.21	68
663.757	66
665.302	66
666.847	62
668.392	62
669.937	58
671.481	54
673.025	56
674.568	62
676.111	66
677.653	56
679.195	58
680.737	56
682.279	56
683.82	62
685.36	62
686.9	56
688.44	58
689.979	56
691.517	54
693.056	52
694.594	60
696.132	52
697.669	54
699.206	52
700.742	54
702.278	60
703.814	56
705.35	64
706.884	66
708.419	66
709.953	80
711.487	80
713.019	84
714.552	84
716.085	94
717.617	94
719.148	84
720.68	76
722.21	74
723.741	72
725.271	72
726.8	62
728.33	72
729.858	68
731.387	78
732.915	74
734.443	80
735.97	76
737.497	80
739.023	84
740.549	84
742.075	92
743.6	100
745.125	112
746.65	128
748.173	126
749.697	128
751.22	122
752.743	120
754.266	110
755.788	108
757.309	102
758.831	94
760.351	80
761.871	64
763.392	70
764.912	64
766.431	60
767.95	64
769.468	58
770.986	68
772.504	68
774.022	72
775.538	72
777.055	74
778.571	72
780.086	78
781.602	74
783.117	82
784.632	70
786.146	64
787.659	62
789.173	68
790.685	62
792.198	58
793.71	64
795.222	62
796.733	66
798.244	64
799.755	60
801.265	64
802.775	64
804.284	66
805.793	76
807.302	80
808.81	72
810.318	66
811.826	58
813.333	66
814.84	78
816.346	78
817.851	78
819.357	78
820.862	94
822.367	98
823.871	102
825.376	118
826.878	156
828.382	230
829.885	322
831.387	478
832.889	576
834.391	516
835.892	390
837.392	224
838.893	156
840.393	132
841.893	108
843.392	106
844.891	90
846.389	102
847.888	82
849.386	98
850.882	88
852.38	84
853.876	92
855.372	86
856.868	76
858.363	84
859.858	74
861.353	70
862.847	74
864.341	70
865.834	68
867.328	74
868.82	64
870.313	66
871.805	60
873.296	58
874.787	58
876.278	60
877.769	62
879.258	66
880.748	58
882.237	62
883.726	60
885.214	62
886.702	52
888.19	48
889.677	46
891.164	54
892.651	58
894.137	52
895.623	56
897.108	54
898.593	50
900.077	50
901.562	52
903.046	52
904.529	54
906.012	60
907.495	54
908.977	54
910.459	54
911.941	54
913.422	56
914.903	50
916.383	48
917.863	54
919.343	56
920.822	56
922.301	46
923.779	54
925.257	60
926.735	52
928.213	56
929.69	56
931.166	58
932.643	60
934.119	56
935.594	64
937.069	64
938.543	66
940.018	72
941.492	76
942.966	88
944.439	94
945.911	96
947.384	106
948.856	116
950.328	138
951.799	178
953.27	192
954.741	250
956.21	286
957.68	344
959.15	372
960.619	372
962.088	340
963.556	324
965.023	258
966.491	236
967.958	204
969.425	194
970.891	170
972.357	146
973.824	126
975.288	108
976.754	94
978.218	86
979.682	74
981.146	72
982.609	68
984.072	76
985.534	76
986.997	70
988.459	64
989.92	72
991.382	72
992.842	64
994.302	64
995.763	62
997.222	56
998.681	62
1000.14	58
1001.6	62
1003.06	50
1004.52	54
1005.97	56
1007.43	56
1008.89	54
1010.34	60
1011.8	66
1013.25	60
1014.71	66
1016.16	62
1017.62	62
1019.07	68
1020.53	66
1021.98	78
1023.43	66
1024.89	82
1026.34	70
1027.79	78
1029.24	80
1030.69	90
1032.14	88
1033.59	96
1035.04	92
1036.49	94
1037.94	96
1039.39	92
1040.84	78
1042.29	80
1043.73	80
1045.18	76
1046.63	76
1048.08	62
1049.52	66
1050.97	60
1052.41	62
1053.86	64
1055.3	56
1056.75	60
1058.19	58
1059.64	60
1061.08	58
1062.52	50
1063.96	58
1065.41	58
1066.85	56
1068.29	60
1069.73	62
1071.17	56
1072.61	60
1074.05	58
1075.49	56
1076.93	58
1078.37	56
1079.81	64
1081.25	56
1082.68	62
1084.12	64
1085.56	66
1087	64
1088.43	66
1089.87	62
1091.3	62
1092.74	58
1094.17	66
1095.61	66
1097.04	68
1098.48	62
1099.91	78
1101.34	76
1102.78	78
1104.21	92
1105.64	100
1107.07	134
1108.5	172
1109.93	254
1111.36	322
1112.8	342
1114.22	306
1115.65	244
1117.08	182
1118.51	154
1119.94	128
1121.37	110
1122.8	106
1124.22	92
1125.65	92
1127.08	86
1128.5	82
1129.93	78
1131.35	86
1132.78	78
1134.2	86
1135.63	80
1137.05	84
1138.48	90
1139.9	84
1141.32	82
1142.75	90
1144.17	94
1145.59	74
1147.01	76
1148.43	72
1149.85	62
1151.27	72
1152.69	64
1154.11	70
1155.53	82
1156.95	78
1158.37	74
1159.79	84
1161.21	88
1162.62	86
1164.04	86
1165.46	88
1166.87	82
1168.29	74
1169.71	74
1171.12	74
1172.54	90
1173.95	88
1175.37	90
1176.78	98
1178.19	112
1179.61	130
1181.02	144
1182.43	162
1183.84	196
1185.26	220
1186.67	230
1188.08	228
1189.49	198
1190.9	180
1192.31	160
1193.72	148
1195.13	146
1196.54	140
1197.95	144
1199.36	152
1200.76	158
1202.17	160
1203.58	152
1204.99	158
1206.39	160
1207.8	140
1209.2	126
1210.61	110
1212.01	104
1213.42	92
1214.82	86
1216.23	84
1217.63	84
1219.03	80
1220.44	96
1221.84	92
1223.24	92
1224.64	98
1226.05	110
1227.45	118
1228.85	128
1230.25	140
1231.65	130
1233.05	110
1234.45	106
1235.85	100
1237.25	92
1238.64	88
1240.04	88
1241.44	80
1242.84	74
1244.23	90
1245.63	88
1247.03	84
1248.42	78
1249.82	86
1251.21	82
1252.61	78
1254	80
1255.4	84
1256.79	84
1258.19	86
1259.58	82
1260.97	90
1262.36	96
1263.76	86
1265.15	94
1266.54	92
1267.93	88
1269.32	88
1270.71	92
1272.1	96
1273.49	94
1274.88	102
1276.27	94
1277.66	112
1279.05	110
1280.43	118
1281.82	122
1283.21	134
1284.6	128
1285.98	152
1287.37	138
1288.75	138
1290.14	160
1291.53	176
1292.91	204
1294.29	202
1295.68	238
1297.06	276
1298.45	330
1299.83	416
1301.21	518
1302.59	644
1303.98	722
1305.36	754
1306.74	720
1308.12	622
1309.5	478
1310.88	392
1312.26	326
1313.64	278
1315.02	256
1316.4	234
1317.78	226
1319.16	196
1320.53	194
1321.91	184
1323.29	176
1324.67	170
1326.04	174
1327.42	168
1328.79	172
1330.17	168
1331.54	172
1332.92	156
1334.29	142
1335.67	152
1337.04	132
1338.42	140
1339.79	134
1341.16	138
1342.53	142
1343.91	144
1345.28	132
1346.65	160
1348.02	142
1349.39	156
1350.76	156
1352.13	160
1353.5	158
1354.87	138
1356.24	144
1357.61	146
1358.98	154
1360.34	136
1361.71	148
1363.08	142
1364.45	138
1365.81	148
1367.18	156
1368.54	162
1369.91	164
1371.28	194
1372.64	232
1374.01	296
1375.37	336
1376.73	388
1378.1	400
1379.46	412
1380.82	408
1382.19	386
1383.55	338
1384.91	298
1386.27	266
1387.63	218
1388.99	188
1390.35	166
1391.71	164
1393.07	144
1394.43	142
1395.79	156
1397.15	126
1398.51	136
1399.87	120
1401.23	140
1402.58	130
1403.94	128
1405.3	142
1406.65	132
1408.01	132
1409.37	120
1410.72	136
1412.08	138
1413.43	138
1414.79	142
1416.14	140
1417.49	146
1418.85	160
1420.2	162
1421.55	170
1422.91	156
1424.26	180
1425.61	188
1426.96	178
1428.31	174
1429.66	190
1431.01	174
1432.36	186
1433.71	190
1435.06	204
1436.41	196
1437.76	198
1439.11	202
1440.46	204
1441.81	200
1443.15	194
1444.5	186
1445.85	200
1447.19	178
1448.54	164
1449.89	176
1451.23	174
1452.58	164
1453.92	164
1455.27	164
1456.61	158
1457.95	152
1459.3	164
1460.64	146
1461.98	154
1463.33	154
1464.67	152
1466.01	140
1467.35	144
1468.69	148
1470.03	150
1471.37	142
1472.71	136
1474.05	138
1475.39	142
1476.73	140
1478.07	138
1479.41	136
1480.75	140
1482.09	122
1483.42	136
1484.76	124
1486.1	120
1487.43	126
1488.77	120
1490.11	118
1491.44	114
1492.78	106
1494.11	110
1495.45	116
1496.78	116
1498.12	106
1499.45	114
1500.78	114
1502.11	112
1503.45	112
1504.78	110
1506.11	98
1507.44	104
1508.77	102
1510.11	114
1511.44	106
1512.77	98
1514.1	104
1515.43	104
1516.76	88
1518.08	110
1519.41	116
1520.74	104
1522.07	102
1523.4	104
1524.72	104
1526.05	92
1527.38	102
1528.7	104
1530.03	104
1531.36	112
1532.68	104
1534.01	106
1535.33	94
1536.66	106
1537.98	98
1539.3	98
1540.63	90
1541.95	94
1543.27	104
1544.6	106
1545.92	108
1547.24	98
1548.56	110
1549.88	102
1551.2	96
1552.52	108
1553.84	102
1555.17	106
1556.48	104
1557.8	116
1559.12	104
1560.44	114
1561.76	112
1563.08	106
1564.4	110
1565.71	100
1567.03	112
1568.35	110
1569.66	116
1570.98	112
1572.29	114
1573.61	132
1574.93	122
1576.24	126
1577.55	122
1578.87	132
1580.18	146
1581.5	146
1582.81	164
1584.12	168
1585.43	186
1586.75	186
1588.06	216
1589.37	228
1590.68	262
1591.99	270
1593.3	296
1594.61	318
1595.92	378
1597.23	388
1598.54	404
1599.85	414
1601.16	466
1602.47	490
1603.78	464
1605.08	432
1606.39	432
1607.7	394
1609	366
1610.31	338
1611.62	320
1612.92	302
1614.23	260
1615.53	238
1616.84	206
1618.14	206
1619.45	168
1620.75	174
1622.06	146
1623.36	140
1624.66	130
1625.96	124
1627.27	120
1628.57	120
1629.87	108
1631.17	102
1632.47	94
1633.77	96
1635.07	98
1636.37	98
1637.67	96
1638.97	90
1640.27	88
1641.57	74
1642.87	84
1644.17	84
1645.47	86
1646.76	80
1648.06	78
1649.36	80
1650.66	84
1651.95	86
1653.25	84
1654.54	76
1655.84	76
1657.13	82
1658.43	84
1659.72	80
1661.02	76
1662.31	72
1663.6	76
1664.9	74
1666.19	82
1667.48	76
1668.78	74
1670.07	78
1671.36	82
1672.65	76
1673.94	76
1675.23	68
1676.52	74
1677.81	78
1679.1	72
1680.39	76
1681.68	64
1682.97	72
1684.26	72
1685.55	80
1686.83	78
1688.12	76
1689.41	82
1690.7	76
1691.98	84
1693.27	82
1694.55	78
1695.84	84
1697.13	82
1698.41	66
1699.69	76
1700.98	76
1702.26	70