File: Jesse_Dataset_v2/Pure Raman/Polypropylene oxide/785nm/ps-ppo-6jan25-0,0000-map2_Y07_X03.txt
204.377	356
206.045	364
207.713	338
209.38	338
211.048	328
212.715	324
214.381	332
216.047	318
217.712	308
219.377	340
221.042	352
222.706	400
224.369	452
226.032	550
227.695	620
229.357	746
231.019	864
232.68	934
234.341	930
236.001	914
237.661	866
239.321	804
240.98	744
242.639	668
244.297	586
245.955	526
247.612	458
249.268	406
250.924	380
252.58	330
254.236	318
255.891	264
257.546	254
259.2	222
260.854	224
262.507	200
264.16	188
265.812	188
267.463	172
269.115	166
270.766	180
272.417	172
274.067	166
275.717	184
277.365	176
279.014	178
280.663	188
282.311	202
283.958	214
285.605	250
287.252	282
288.898	322
290.543	336
292.188	384
293.833	420
295.477	424
297.121	412
298.765	378
300.407	348
302.05	334
303.693	320
305.334	294
306.975	272
308.615	262
310.256	260
311.896	242
313.535	224
315.175	222
316.813	212
318.451	212
320.089	210
321.726	218
323.362	218
324.999	226
326.635	226
328.271	246
329.905	226
331.54	252
333.174	260
334.807	262
336.441	246
338.074	240
339.707	228
341.338	226
342.969	198
344.601	204
346.231	196
347.861	196
349.491	190
351.12	198
352.749	212
354.378	218
356.006	210
357.633	210
359.261	184
360.887	198
362.513	184
364.139	180
365.764	188
367.39	190
369.014	184
370.638	206
372.261	188
373.884	184
375.508	174
377.13	178
378.752	162
380.373	156
381.994	160
383.615	150
385.235	138
386.854	134
388.473	136
390.092	118
391.711	120
393.328	122
394.947	118
396.564	134
398.181	126
399.797	132
401.412	116
403.027	126
404.642	134
406.257	144
407.871	160
409.484	166
411.098	184
412.711	202
414.323	206
415.935	196
417.547	190
419.158	176
420.768	170
422.378	138
423.988	142
425.597	124
427.206	116
428.814	112
430.422	100
432.03	96
433.637	100
435.243	100
436.85	90
438.456	80
440.062	82
441.666	82
443.271	80
444.876	82
446.479	66
448.082	76
449.685	74
451.287	74
452.89	84
454.492	80
456.092	78
457.693	84
459.293	78
460.893	82
462.492	84
464.092	96
465.691	96
467.288	108
468.887	122
470.483	142
472.081	154
473.677	162
475.273	176
476.869	200
478.463	208
480.059	234
481.653	246
483.247	270
484.84	278
486.433	278
488.026	222
489.618	198
491.21	164
492.801	148
494.392	142
495.983	112
497.573	106
499.162	102
500.752	98
502.341	90
503.929	104
505.517	106
507.105	112
508.692	134
510.279	154
511.865	198
513.45	210
515.037	204
516.621	156
518.206	148
519.79	142
521.374	140
522.957	144
524.54	156
526.123	174
527.705	194
529.287	220
530.868	254
532.448	288
534.029	356
535.609	386
537.188	416
538.768	436
540.346	422
541.925	390
543.502	344
545.08	296
546.657	262
548.234	202
549.81	196
551.386	186
552.961	194
554.536	208
556.11	230
557.684	272
559.258	292
560.832	388
562.405	498
563.977	698
565.55	992
567.12	1368
568.692	1852
570.263	2232
571.833	2226
573.403	1864
574.973	1364
576.542	946
578.111	660
579.679	492
581.247	392
582.815	332
584.382	318
585.948	306
587.514	286
589.081	278
590.645	260
592.211	260
593.775	240
595.339	234
596.904	212
598.466	208
600.03	172
601.592	156
603.154	120
604.715	116
606.277	102
607.838	96
609.398	90
610.958	88
612.518	92
614.077	94
615.636	92
617.194	88
618.753	88
620.31	98
621.867	102
623.424	102
624.98	100
626.537	120
628.092	126
629.647	122
631.202	138
632.756	140
634.31	134
635.864	134
637.417	138
638.969	140
640.521	130
642.074	126
643.625	116
645.176	108
646.726	96
648.276	94
649.827	98
651.376	90
652.925	88
654.473	82
656.021	80
657.569	72
659.117	74
660.664	66
662.21	74
663.757	66
665.302	62
666.847	68
668.392	68
669.937	58
671.481	68
673.025	56
674.568	64
676.111	64
677.653	62
679.195	56
680.737	58
682.279	62
683.82	58
685.36	64
686.9	70
688.44	62
689.979	64
691.517	52
693.056	62
694.594	62
696.132	62
697.669	58
699.206	62
700.742	60
702.278	58
703.814	66
705.35	62
706.884	74
708.419	66
709.953	76
711.487	84
713.019	88
714.552	94
716.085	104
717.617	82
719.148	96
720.68	74
722.21	68
723.741	72
725.271	70
726.8	80
728.33	72
729.858	78
731.387	76
732.915	78
734.443	74
735.97	72
737.497	76
739.023	88
740.549	94
742.075	94
743.6	100
745.125	122
746.65	132
748.173	132
749.697	130
751.22	120
752.743	116
754.266	112
755.788	102
757.309	98
758.831	90
760.351	76
761.871	80
763.392	72
764.912	68
766.431	74
767.95	70
769.468	68
770.986	70
772.504	70
774.022	74
775.538	70
777.055	72
778.571	76
780.086	80
781.602	80
783.117	76
784.632	68
786.146	70
787.659	72
789.173	68
790.685	68
792.198	68
793.71	62
795.222	72
796.733	70
798.244	62
799.755	70
801.265	70
802.775	72
804.284	72
805.793	72
807.302	60
808.81	68
810.318	74
811.826	68
813.333	72
814.84	70
816.346	82
817.851	74
819.357	78
820.862	80
822.367	96
823.871	108
825.376	132
826.878	164
828.382	232
829.885	334
831.387	458
832.889	572
834.391	512
835.892	368
837.392	236
838.893	162
840.393	130
841.893	104
843.392	96
844.891	102
846.389	88
847.888	96
849.386	94
850.882	90
852.38	92
853.876	80
855.372	84
856.868	78
858.363	86
859.858	86
861.353	84
862.847	74
864.341	78
865.834	68
867.328	76
868.82	68
870.313	66
871.805	66
873.296	64
874.787	64
876.278	64
877.769	58
879.258	62
880.748	60
882.237	56
883.726	58
885.214	62
886.702	56
888.19	58
889.677	58
891.164	54
892.651	54
894.137	48
895.623	54
897.108	64
898.593	58
900.077	52
901.562	62
903.046	50
904.529	52
906.012	52
907.495	54
908.977	60
910.459	58
911.941	56
913.422	52
914.903	52
916.383	62
917.863	60
919.343	58
920.822	58
922.301	62
923.779	58
925.257	58
926.735	58
928.213	62
929.69	60
931.166	66
932.643	62
934.119	74
935.594	70
937.069	70
938.543	64
940.018	74
941.492	82
942.966	82
944.439	88
945.911	102
947.384	114
948.856	130
950.328	140
951.799	164
953.27	192
954.741	242
956.21	294
957.68	342
959.15	362
960.619	384
962.088	348
963.556	308
965.023	264
966.491	238
967.958	214
969.425	204
970.891	184
972.357	152
973.824	134
975.288	108
976.754	90
978.218	88
979.682	80
981.146	82
982.609	76
984.072	80
985.534	74
986.997	66
988.459	66
989.92	76
991.382	76
992.842	74
994.302	62
995.763	56
997.222	60
998.681	60
1000.14	66
1001.6	70
1003.06	66
1004.52	66
1005.97	60
1007.43	60
1008.89	66
1010.34	68
1011.8	58
1013.25	60
1014.71	66
1016.16	70
1017.62	66
1019.07	70
1020.53	76
1021.98	84
1023.43	72
1024.89	74
1026.34	82
1027.79	84
1029.24	86
1030.69	92
1032.14	94
1033.59	96
1035.04	96
1036.49	98
1037.94	94
1039.39	84
1040.84	82
1042.29	76
1043.73	72
1045.18	78
1046.63	70
1048.08	76
1049.52	72
1050.97	72
1052.41	64
1053.86	60
1055.3	64
1056.75	66
1058.19	66
1059.64	56
1061.08	66
1062.52	64
1063.96	56
1065.41	64
1066.85	62
1068.29	60
1069.73	56
1071.17	62
1072.61	70
1074.05	58
1075.49	58
1076.93	62
1078.37	60
1079.81	62
1081.25	66
1082.68	66
1084.12	62
1085.56	62
1087	68
1088.43	64
1089.87	62
1091.3	54
1092.74	66
1094.17	68
1095.61	70
1097.04	62
1098.48	76
1099.91	76
1101.34	84
1102.78	84
1104.21	98
1105.64	112
1107.07	134
1108.5	178
1109.93	274
1111.36	302
1112.8	342
1114.22	308
1115.65	242
1117.08	186
1118.51	156
1119.94	130
1121.37	118
1122.8	104
1124.22	100
1125.65	102
1127.08	92
1128.5	88
1129.93	74
1131.35	86
1132.78	80
1134.2	82
1135.63	88
1137.05	78
1138.48	82
1139.9	82
1141.32	88
1142.75	90
1144.17	88
1145.59	80
1147.01	82
1148.43	70
1149.85	76
1151.27	72
1152.69	72
1154.11	68
1155.53	78
1156.95	78
1158.37	84
1159.79	88
1161.21	100
1162.62	90
1164.04	90
1165.46	92
1166.87	86
1168.29	76
1169.71	76
1171.12	88
1172.54	84
1173.95	90
1175.37	94
1176.78	100
1178.19	110
1179.61	122
1181.02	140
1182.43	158
1183.84	194
1185.26	224
1186.67	240
1188.08	218
1189.49	200
1190.9	184
1192.31	160
1193.72	148
1195.13	140
1196.54	142
1197.95	144
1199.36	152
1200.76	166
1202.17	162
1203.58	168
1204.99	162
1206.39	158
1207.8	134
1209.2	126
1210.61	108
1212.01	98
1213.42	90
1214.82	92
1216.23	90
1217.63	90
1219.03	82
1220.44	88
1221.84	92
1223.24	98
1224.64	96
1226.05	118
1227.45	112
1228.85	118
1230.25	134
1231.65	124
1233.05	124
1234.45	116
1235.85	110
1237.25	98
1238.64	94
1240.04	96
1241.44	84
1242.84	80
1244.23	84
1245.63	88
1247.03	90
1248.42	84
1249.82	84
1251.21	86
1252.61	94
1254	94
1255.4	98
1256.79	90
1258.19	92
1259.58	88
1260.97	90
1262.36	92
1263.76	86
1265.15	100
1266.54	96
1267.93	94
1269.32	96
1270.71	94
1272.1	90
1273.49	104
1274.88	100
1276.27	110
1277.66	102
1279.05	112
1280.43	118
1281.82	122
1283.21	138
1284.6	136
1285.98	144
1287.37	134
1288.75	154
1290.14	162
1291.53	166
1292.91	174
1294.29	208
1295.68	238
1297.06	266
1298.45	314
1299.83	412
1301.21	522
1302.59	624
1303.98	690
1305.36	776
1306.74	704
1308.12	600
1309.5	476
1310.88	376
1312.26	328
1313.64	284
1315.02	248
1316.4	234
1317.78	210
1319.16	204
1320.53	194
1321.91	168
1323.29	184
1324.67	182
1326.04	168
1327.42	170
1328.79	178
1330.17	156
1331.54	154
1332.92	162
1334.29	160
1335.67	154
1337.04	144
1338.42	130
1339.79	146
1341.16	138
1342.53	140
1343.91	154
1345.28	148
1346.65	158
1348.02	162
1349.39	160
1350.76	168
1352.13	172
1353.5	162
1354.87	160
1356.24	150
1357.61	160
1358.98	146
1360.34	138
1361.71	156
1363.08	156
1364.45	156
1365.81	148
1367.18	146
1368.54	160
1369.91	178
1371.28	194
1372.64	220
1374.01	268
1375.37	338
1376.73	370
1378.1	396
1379.46	418
1380.82	404
1382.19	370
1383.55	356
1384.91	308
1386.27	244
1387.63	224
1388.99	184
1390.35	176
1391.71	164
1393.07	140
1394.43	142
1395.79	140
1397.15	136
1398.51	130
1399.87	134
1401.23	128
1402.58	120
1403.94	116
1405.3	132
1406.65	134
1408.01	136
1409.37	128
1410.72	138
1412.08	144
1413.43	140
1414.79	134
1416.14	146
1417.49	158
1418.85	154
1420.2	166
1421.55	170
1422.91	166
1424.26	164
1425.61	172
1426.96	174
1428.31	182
1429.66	182
1431.01	174
1432.36	184
1433.71	194
1435.06	194
1436.41	192
1437.76	208
1439.11	214
1440.46	200
1441.81	192
1443.15	208
1444.5	198
1445.85	182
1447.19	192
1448.54	170
1449.89	168
1451.23	158
1452.58	160
1453.92	160
1455.27	152
1456.61	158
1457.95	154
1459.3	150
1460.64	162
1461.98	136
1463.33	146
1464.67	140
1466.01	148
1467.35	140
1468.69	142
1470.03	144
1471.37	152
1472.71	148
1474.05	142
1475.39	138
1476.73	144
1478.07	146
1479.41	144
1480.75	128
1482.09	134
1483.42	136
1484.76	126
1486.1	126
1487.43	132
1488.77	110
1490.11	120
1491.44	128
1492.78	126
1494.11	114
1495.45	124
1496.78	126
1498.12	114
1499.45	114
1500.78	122
1502.11	112
1503.45	114
1504.78	106
1506.11	106
1507.44	114
1508.77	120
1510.11	116
1511.44	124
1512.77	108
1514.1	114
1515.43	118
1516.76	100
1518.08	104
1519.41	110
1520.74	112
1522.07	104
1523.4	102
1524.72	104
1526.05	106
1527.38	106
1528.7	106
1530.03	110
1531.36	106
1532.68	102
1534.01	108
1535.33	108
1536.66	102
1537.98	96
1539.3	102
1540.63	112
1541.95	114
1543.27	104
1544.6	106
1545.92	114
1547.24	112
1548.56	116
1549.88	104
1551.2	116
1552.52	114
1553.84	112
1555.17	108
1556.48	110
1557.8	112
1559.12	114
1560.44	104
1561.76	104
1563.08	112
1564.4	122
1565.71	114
1567.03	108
1568.35	124
1569.66	120
1570.98	116
1572.29	114
1573.61	120
1574.93	126
1576.24	138
1577.55	140
1578.87	134
1580.18	144
1581.5	160
1582.81	158
1584.12	172
1585.43	190
1586.75	188
1588.06	214
1589.37	228
1590.68	244
1591.99	274
1593.3	298
1594.61	334
1595.92	358
1597.23	390
1598.54	408
1599.85	444
1601.16	448
1602.47	458
1603.78	452
1605.08	428
1606.39	404
1607.7	390
1609	364
1610.31	338
1611.62	290
1612.92	284
1614.23	246
1615.53	236
1616.84	230
1618.14	196
1619.45	190
1620.75	158
1622.06	140
1623.36	140
1624.66	130
1625.96	126
1627.27	118
1628.57	130
1629.87	112
1631.17	110
1632.47	96
1633.77	102
1635.07	98
1636.37	96
1637.67	90
1638.97	98
1640.27	86
1641.57	82
1642.87	86
1644.17	102
1645.47	88
1646.76	84
1648.06	88
1649.36	76
1650.66	96
1651.95	80
1653.25	78
1654.54	88
1655.84	82
1657.13	66
1658.43	80
1659.72	78
1661.02	82
1662.31	80
1663.6	80
1664.9	76
1666.19	72
1667.48	84
1668.78	76
1670.07	76
1671.36	72
1672.65	78
1673.94	76
1675.23	80
1676.52	76
1677.81	76
1679.1	72
1680.39	74
1681.68	70
1682.97	74
1684.26	82
1685.55	78
1686.83	84
1688.12	72
1689.41	80
1690.7	80
1691.98	74
1693.27	86
1694.55	80
1695.84	80
1697.13	88
1698.41	82
1699.69	80
1700.98	78
1702.26	64