File: Jesse_Dataset_v2/Pure Raman/Polypropylene oxide/785nm/ps-ppo-6jan25-0,0000-map2_Y00_X09.txt
204.377	386
206.045	336
207.713	354
209.38	350
211.048	332
212.715	316
214.381	314
216.047	298
217.712	312
219.377	332
221.042	368
222.706	414
224.369	460
226.032	522
227.695	628
229.357	752
231.019	854
232.68	892
234.341	936
236.001	880
237.661	836
239.321	764
240.98	716
242.639	658
244.297	602
245.955	536
247.612	466
249.268	438
250.924	378
252.58	344
254.236	308
255.891	272
257.546	258
259.2	228
260.854	216
262.507	202
264.16	196
265.812	190
267.463	176
269.115	170
270.766	174
272.417	180
274.067	166
275.717	170
277.365	174
279.014	180
280.663	182
282.311	216
283.958	220
285.605	246
287.252	278
288.898	316
290.543	354
292.188	374
293.833	412
295.477	430
297.121	404
298.765	392
300.407	364
302.05	342
303.693	306
305.334	294
306.975	272
308.615	266
310.256	254
311.896	250
313.535	236
315.175	238
316.813	212
318.451	232
320.089	228
321.726	214
323.362	216
324.999	234
326.635	244
328.271	226
329.905	240
331.54	260
333.174	258
334.807	256
336.441	228
338.074	240
339.707	220
341.338	224
342.969	198
344.601	210
346.231	214
347.861	200
349.491	210
351.12	200
352.749	208
354.378	208
356.006	194
357.633	212
359.261	198
360.887	188
362.513	178
364.139	180
365.764	176
367.39	182
369.014	202
370.638	200
372.261	190
373.884	186
375.508	170
377.13	188
378.752	176
380.373	154
381.994	146
383.615	134
385.235	140
386.854	134
388.473	136
390.092	114
391.711	124
393.328	134
394.947	124
396.564	130
398.181	128
399.797	122
401.412	134
403.027	132
404.642	132
406.257	142
407.871	144
409.484	160
411.098	192
412.711	214
414.323	216
415.935	214
417.547	184
419.158	180
420.768	158
422.378	154
423.988	138
425.597	132
427.206	114
428.814	116
430.422	102
432.03	110
433.637	100
435.243	100
436.85	90
438.456	76
440.062	88
441.666	80
443.271	80
444.876	78
446.479	78
448.082	80
449.685	70
451.287	86
452.89	80
454.492	78
456.092	82
457.693	84
459.293	86
460.893	84
462.492	84
464.092	94
465.691	108
467.288	110
468.887	120
470.483	136
472.081	140
473.677	158
475.273	188
476.869	200
478.463	216
480.059	232
481.653	248
483.247	270
484.84	274
486.433	258
488.026	248
489.618	200
491.21	174
492.801	156
494.392	142
495.983	124
497.573	92
499.162	102
500.752	98
502.341	106
503.929	104
505.517	102
507.105	118
508.692	126
510.279	158
511.865	188
513.45	216
515.037	192
516.621	164
518.206	136
519.79	140
521.374	148
522.957	156
524.54	166
526.123	170
527.705	190
529.287	222
530.868	250
532.448	284
534.029	348
535.609	388
537.188	398
538.768	430
540.346	416
541.925	388
543.502	340
545.08	308
546.657	248
548.234	206
549.81	200
551.386	168
552.961	196
554.536	216
556.11	216
557.684	252
559.258	298
560.832	378
562.405	488
563.977	672
565.55	938
567.12	1392
568.692	1782
570.263	2130
571.833	2206
573.403	1826
574.973	1356
576.542	948
578.111	678
579.679	458
581.247	376
582.815	334
584.382	316
585.948	324
587.514	300
589.081	290
590.645	246
592.211	248
593.775	240
595.339	252
596.904	226
598.466	208
600.03	176
601.592	152
603.154	134
604.715	116
606.277	116
607.838	98
609.398	90
610.958	100
612.518	94
614.077	90
615.636	92
617.194	88
618.753	94
620.31	108
621.867	112
623.424	108
624.98	114
626.537	120
628.092	112
629.647	124
631.202	140
632.756	146
634.31	146
635.864	148
637.417	142
638.969	148
640.521	142
642.074	128
643.625	122
645.176	102
646.726	98
648.276	110
649.827	96
651.376	84
652.925	86
654.473	86
656.021	84
657.569	86
659.117	76
660.664	70
662.21	68
663.757	70
665.302	66
666.847	68
668.392	62
669.937	70
671.481	64
673.025	58
674.568	60
676.111	64
677.653	60
679.195	58
680.737	62
682.279	58
683.82	62
685.36	64
686.9	62
688.44	58
689.979	64
691.517	60
693.056	64
694.594	62
696.132	64
697.669	64
699.206	64
700.742	70
702.278	62
703.814	64
705.35	72
706.884	70
708.419	74
709.953	74
711.487	76
713.019	86
714.552	96
716.085	94
717.617	90
719.148	90
720.68	74
722.21	82
723.741	74
725.271	76
726.8	72
728.33	74
729.858	72
731.387	82
732.915	78
734.443	72
735.97	88
737.497	84
739.023	86
740.549	88
742.075	96
743.6	108
745.125	118
746.65	134
748.173	138
749.697	132
751.22	130
752.743	110
754.266	118
755.788	110
757.309	104
758.831	84
760.351	88
761.871	70
763.392	72
764.912	64
766.431	62
767.95	64
769.468	70
770.986	68
772.504	68
774.022	64
775.538	78
777.055	64
778.571	84
780.086	80
781.602	80
783.117	74
784.632	74
786.146	68
787.659	74
789.173	64
790.685	64
792.198	60
793.71	72
795.222	70
796.733	62
798.244	62
799.755	64
801.265	70
802.775	72
804.284	74
805.793	72
807.302	80
808.81	74
810.318	66
811.826	70
813.333	80
814.84	78
816.346	82
817.851	84
819.357	76
820.862	94
822.367	106
823.871	106
825.376	128
826.878	166
828.382	220
829.885	314
831.387	444
832.889	542
834.391	514
835.892	390
837.392	238
838.893	166
840.393	132
841.893	120
843.392	104
844.891	90
846.389	94
847.888	110
849.386	94
850.882	90
852.38	86
853.876	86
855.372	88
856.868	88
858.363	86
859.858	86
861.353	84
862.847	76
864.341	80
865.834	68
867.328	66
868.82	66
870.313	64
871.805	62
873.296	64
874.787	58
876.278	62
877.769	56
879.258	66
880.748	58
882.237	50
883.726	62
885.214	62
886.702	64
888.19	60
889.677	58
891.164	58
892.651	56
894.137	60
895.623	56
897.108	54
898.593	52
900.077	64
901.562	52
903.046	56
904.529	58
906.012	56
907.495	52
908.977	54
910.459	54
911.941	60
913.422	60
914.903	60
916.383	50
917.863	58
919.343	56
920.822	60
922.301	58
923.779	58
925.257	54
926.735	68
928.213	58
929.69	66
931.166	62
932.643	66
934.119	72
935.594	66
937.069	70
938.543	76
940.018	82
941.492	76
942.966	86
944.439	84
945.911	98
947.384	112
948.856	126
950.328	150
951.799	158
953.27	210
954.741	246
956.21	274
957.68	330
959.15	346
960.619	370
962.088	354
963.556	320
965.023	296
966.491	240
967.958	204
969.425	188
970.891	168
972.357	144
973.824	132
975.288	108
976.754	98
978.218	80
979.682	82
981.146	68
982.609	74
984.072	72
985.534	76
986.997	74
988.459	72
989.92	82
991.382	72
992.842	72
994.302	70
995.763	70
997.222	60
998.681	58
1000.14	68
1001.6	66
1003.06	60
1004.52	64
1005.97	60
1007.43	62
1008.89	68
1010.34	68
1011.8	68
1013.25	64
1014.71	68
1016.16	68
1017.62	74
1019.07	72
1020.53	80
1021.98	72
1023.43	92
1024.89	84
1026.34	82
1027.79	94
1029.24	86
1030.69	94
1032.14	106
1033.59	92
1035.04	94
1036.49	84
1037.94	84
1039.39	90
1040.84	86
1042.29	90
1043.73	78
1045.18	74
1046.63	78
1048.08	72
1049.52	70
1050.97	72
1052.41	70
1053.86	64
1055.3	60
1056.75	66
1058.19	64
1059.64	56
1061.08	66
1062.52	58
1063.96	62
1065.41	58
1066.85	64
1068.29	58
1069.73	62
1071.17	62
1072.61	56
1074.05	64
1075.49	70
1076.93	60
1078.37	64
1079.81	66
1081.25	60
1082.68	62
1084.12	58
1085.56	60
1087	70
1088.43	70
1089.87	66
1091.3	70
1092.74	70
1094.17	70
1095.61	66
1097.04	70
1098.48	68
1099.91	76
1101.34	72
1102.78	80
1104.21	100
1105.64	114
1107.07	134
1108.5	196
1109.93	242
1111.36	306
1112.8	342
1114.22	298
1115.65	242
1117.08	182
1118.51	168
1119.94	122
1121.37	112
1122.8	102
1124.22	88
1125.65	98
1127.08	94
1128.5	96
1129.93	84
1131.35	78
1132.78	90
1134.2	78
1135.63	78
1137.05	86
1138.48	80
1139.9	84
1141.32	86
1142.75	84
1144.17	78
1145.59	78
1147.01	78
1148.43	78
1149.85	72
1151.27	70
1152.69	74
1154.11	74
1155.53	74
1156.95	74
1158.37	82
1159.79	94
1161.21	80
1162.62	88
1164.04	94
1165.46	86
1166.87	86
1168.29	78
1169.71	80
1171.12	84
1172.54	76
1173.95	82
1175.37	90
1176.78	100
1178.19	112
1179.61	120
1181.02	146
1182.43	160
1183.84	196
1185.26	222
1186.67	226
1188.08	218
1189.49	204
1190.9	184
1192.31	156
1193.72	146
1195.13	156
1196.54	136
1197.95	150
1199.36	158
1200.76	164
1202.17	172
1203.58	162
1204.99	162
1206.39	156
1207.8	138
1209.2	120
1210.61	104
1212.01	110
1213.42	92
1214.82	88
1216.23	88
1217.63	86
1219.03	92
1220.44	88
1221.84	92
1223.24	100
1224.64	102
1226.05	104
1227.45	114
1228.85	128
1230.25	122
1231.65	122
1233.05	112
1234.45	108
1235.85	112
1237.25	96
1238.64	86
1240.04	84
1241.44	80
1242.84	98
1244.23	90
1245.63	80
1247.03	90
1248.42	84
1249.82	80
1251.21	84
1252.61	82
1254	78
1255.4	88
1256.79	88
1258.19	82
1259.58	90
1260.97	92
1262.36	90
1263.76	84
1265.15	92
1266.54	92
1267.93	94
1269.32	92
1270.71	100
1272.1	108
1273.49	100
1274.88	104
1276.27	114
1277.66	104
1279.05	116
1280.43	128
1281.82	120
1283.21	138
1284.6	138
1285.98	138
1287.37	142
1288.75	142
1290.14	164
1291.53	164
1292.91	180
1294.29	202
1295.68	220
1297.06	282
1298.45	328
1299.83	394
1301.21	510
1302.59	610
1303.98	728
1305.36	734
1306.74	720
1308.12	616
1309.5	510
1310.88	402
1312.26	320
1313.64	280
1315.02	256
1316.4	224
1317.78	208
1319.16	204
1320.53	188
1321.91	174
1323.29	164
1324.67	172
1326.04	168
1327.42	168
1328.79	166
1330.17	168
1331.54	158
1332.92	150
1334.29	146
1335.67	146
1337.04	138
1338.42	148
1339.79	146
1341.16	140
1342.53	134
1343.91	150
1345.28	150
1346.65	148
1348.02	150
1349.39	168
1350.76	162
1352.13	164
1353.5	156
1354.87	142
1356.24	154
1357.61	158
1358.98	148
1360.34	132
1361.71	148
1363.08	144
1364.45	146
1365.81	148
1367.18	166
1368.54	144
1369.91	158
1371.28	186
1372.64	216
1374.01	268
1375.37	324
1376.73	360
1378.1	376
1379.46	400
1380.82	384
1382.19	376
1383.55	344
1384.91	298
1386.27	264
1387.63	224
1388.99	188
1390.35	164
1391.71	164
1393.07	148
1394.43	136
1395.79	134
1397.15	124
1398.51	146
1399.87	134
1401.23	136
1402.58	116
1403.94	136
1405.3	132
1406.65	136
1408.01	128
1409.37	122
1410.72	136
1412.08	130
1413.43	144
1414.79	144
1416.14	142
1417.49	152
1418.85	166
1420.2	158
1421.55	182
1422.91	172
1424.26	178
1425.61	166
1426.96	174
1428.31	176
1429.66	180
1431.01	176
1432.36	184
1433.71	176
1435.06	194
1436.41	198
1437.76	200
1439.11	212
1440.46	196
1441.81	190
1443.15	222
1444.5	176
1445.85	188
1447.19	184
1448.54	176
1449.89	168
1451.23	162
1452.58	162
1453.92	160
1455.27	178
1456.61	154
1457.95	160
1459.3	156
1460.64	144
1461.98	154
1463.33	154
1464.67	150
1466.01	150
1467.35	150
1468.69	146
1470.03	134
1471.37	130
1472.71	144
1474.05	138
1475.39	134
1476.73	152
1478.07	146
1479.41	132
1480.75	134
1482.09	122
1483.42	124
1484.76	116
1486.1	124
1487.43	132
1488.77	108
1490.11	118
1491.44	118
1492.78	114
1494.11	116
1495.45	118
1496.78	116
1498.12	104
1499.45	114
1500.78	112
1502.11	110
1503.45	124
1504.78	118
1506.11	108
1507.44	110
1508.77	112
1510.11	108
1511.44	106
1512.77	110
1514.1	112
1515.43	110
1516.76	110
1518.08	102
1519.41	106
1520.74	102
1522.07	104
1523.4	104
1524.72	112
1526.05	98
1527.38	108
1528.7	102
1530.03	112
1531.36	106
1532.68	98
1534.01	114
1535.33	106
1536.66	108
1537.98	98
1539.3	110
1540.63	102
1541.95	96
1543.27	104
1544.6	104
1545.92	96
1547.24	106
1548.56	110
1549.88	100
1551.2	112
1552.52	112
1553.84	102
1555.17	112
1556.48	110
1557.8	112
1559.12	106
1560.44	108
1561.76	110
1563.08	112
1564.4	116
1565.71	104
1567.03	104
1568.35	116
1569.66	106
1570.98	114
1572.29	110
1573.61	124
1574.93	134
1576.24	132
1577.55	140
1578.87	144
1580.18	146
1581.5	154
1582.81	170
1584.12	168
1585.43	172
1586.75	182
1588.06	218
1589.37	234
1590.68	244
1591.99	274
1593.3	292
1594.61	310
1595.92	362
1597.23	398
1598.54	410
1599.85	420
1601.16	428
1602.47	450
1603.78	448
1605.08	438
1606.39	406
1607.7	380
1609	364
1610.31	322
1611.62	312
1612.92	288
1614.23	268
1615.53	238
1616.84	222
1618.14	196
1619.45	172
1620.75	164
1622.06	142
1623.36	144
1624.66	130
1625.96	126
1627.27	110
1628.57	112
1629.87	104
1631.17	96
1632.47	108
1633.77	96
1635.07	94
1636.37	86
1637.67	90
1638.97	104
1640.27	98
1641.57	80
1642.87	82
1644.17	92
1645.47	84
1646.76	88
1648.06	88
1649.36	84
1650.66	68
1651.95	76
1653.25	84
1654.54	80
1655.84	78
1657.13	84
1658.43	88
1659.72	82
1661.02	76
1662.31	80
1663.6	76
1664.9	78
1666.19	78
1667.48	72
1668.78	78
1670.07	80
1671.36	80
1672.65	78
1673.94	72
1675.23	86
1676.52	74
1677.81	78
1679.1	80
1680.39	80
1681.68	78
1682.97	78
1684.26	82
1685.55	78
1686.83	72
1688.12	80
1689.41	78
1690.7	78
1691.98	84
1693.27	92
1694.55	88
1695.84	80
1697.13	80
1698.41	76
1699.69	72
1700.98	74
1702.26	92