File: Jesse_Dataset_v2/Pure Raman/Polypropylene oxide/785nm/ps-ppo-6jan25-0,0000-map2_Y03_X04.txt
204.377	386
206.045	368
207.713	362
209.38	358
211.048	332
212.715	314
214.381	300
216.047	324
217.712	330
219.377	332
221.042	370
222.706	412
224.369	460
226.032	546
227.695	632
229.357	772
231.019	874
232.68	936
234.341	944
236.001	932
237.661	900
239.321	818
240.98	766
242.639	696
244.297	624
245.955	580
247.612	506
249.268	450
250.924	392
252.58	354
254.236	314
255.891	290
257.546	262
259.2	250
260.854	212
262.507	210
264.16	206
265.812	190
267.463	178
269.115	184
270.766	174
272.417	180
274.067	170
275.717	178
277.365	184
279.014	184
280.663	194
282.311	206
283.958	224
285.605	252
287.252	288
288.898	320
290.543	348
292.188	390
293.833	428
295.477	422
297.121	416
298.765	394
300.407	376
302.05	368
303.693	320
305.334	294
306.975	286
308.615	268
310.256	258
311.896	248
313.535	252
315.175	238
316.813	218
318.451	216
320.089	228
321.726	222
323.362	240
324.999	216
326.635	240
328.271	224
329.905	256
331.54	250
333.174	258
334.807	242
336.441	234
338.074	252
339.707	250
341.338	230
342.969	208
344.601	206
346.231	194
347.861	204
349.491	204
351.12	206
352.749	220
354.378	202
356.006	216
357.633	206
359.261	212
360.887	172
362.513	184
364.139	190
365.764	162
367.39	194
369.014	196
370.638	184
372.261	198
373.884	198
375.508	184
377.13	190
378.752	164
380.373	152
381.994	144
383.615	140
385.235	136
386.854	130
388.473	128
390.092	128
391.711	134
393.328	124
394.947	126
396.564	112
398.181	116
399.797	108
401.412	128
403.027	130
404.642	144
406.257	154
407.871	150
409.484	160
411.098	166
412.711	196
414.323	220
415.935	196
417.547	206
419.158	184
420.768	160
422.378	146
423.988	128
425.597	130
427.206	112
428.814	118
430.422	114
432.03	108
433.637	102
435.243	106
436.85	86
438.456	82
440.062	82
441.666	86
443.271	84
444.876	78
446.479	74
448.082	84
449.685	82
451.287	76
452.89	78
454.492	74
456.092	80
457.693	74
459.293	76
460.893	94
462.492	94
464.092	88
465.691	104
467.288	104
468.887	118
470.483	144
472.081	134
473.677	164
475.273	180
476.869	206
478.463	208
480.059	240
481.653	242
483.247	268
484.84	280
486.433	284
488.026	238
489.618	190
491.21	168
492.801	150
494.392	128
495.983	126
497.573	110
499.162	104
500.752	92
502.341	98
503.929	94
505.517	106
507.105	108
508.692	118
510.279	160
511.865	208
513.45	212
515.037	204
516.621	160
518.206	158
519.79	150
521.374	150
522.957	144
524.54	156
526.123	184
527.705	196
529.287	218
530.868	252
532.448	292
534.029	352
535.609	398
537.188	436
538.768	428
540.346	424
541.925	402
543.502	354
545.08	312
546.657	246
548.234	224
549.81	198
551.386	192
552.961	174
554.536	198
556.11	222
557.684	248
559.258	318
560.832	408
562.405	512
563.977	720
565.55	960
567.12	1360
568.692	1830
570.263	2244
571.833	2298
573.403	1910
574.973	1436
576.542	1000
578.111	684
579.679	484
581.247	382
582.815	366
584.382	302
585.948	318
587.514	312
589.081	280
590.645	284
592.211	260
593.775	254
595.339	244
596.904	232
598.466	208
600.03	170
601.592	150
603.154	132
604.715	118
606.277	102
607.838	106
609.398	94
610.958	92
612.518	82
614.077	96
615.636	86
617.194	90
618.753	90
620.31	86
621.867	106
623.424	98
624.98	112
626.537	118
628.092	130
629.647	136
631.202	142
632.756	140
634.31	150
635.864	148
637.417	148
638.969	146
640.521	134
642.074	126
643.625	122
645.176	112
646.726	112
648.276	106
649.827	90
651.376	98
652.925	96
654.473	80
656.021	72
657.569	76
659.117	80
660.664	68
662.21	66
663.757	70
665.302	66
666.847	60
668.392	56
669.937	64
671.481	60
673.025	66
674.568	66
676.111	60
677.653	58
679.195	58
680.737	62
682.279	60
683.82	60
685.36	58
686.9	54
688.44	54
689.979	62
691.517	52
693.056	60
694.594	62
696.132	56
697.669	56
699.206	58
700.742	60
702.278	58
703.814	62
705.35	70
706.884	68
708.419	74
709.953	86
711.487	92
713.019	96
714.552	98
716.085	88
717.617	90
719.148	86
720.68	78
722.21	70
723.741	80
725.271	76
726.8	70
728.33	84
729.858	80
731.387	80
732.915	82
734.443	84
735.97	80
737.497	84
739.023	90
740.549	88
742.075	96
743.6	108
745.125	120
746.65	138
748.173	146
749.697	126
751.22	114
752.743	106
754.266	116
755.788	118
757.309	116
758.831	90
760.351	80
761.871	76
763.392	68
764.912	78
766.431	76
767.95	74
769.468	68
770.986	78
772.504	78
774.022	70
775.538	80
777.055	80
778.571	80
780.086	78
781.602	76
783.117	70
784.632	76
786.146	76
787.659	70
789.173	76
790.685	72
792.198	66
793.71	70
795.222	66
796.733	62
798.244	68
799.755	56
801.265	68
802.775	72
804.284	76
805.793	74
807.302	68
808.81	82
810.318	72
811.826	70
813.333	70
814.84	72
816.346	80
817.851	74
819.357	76
820.862	98
822.367	88
823.871	112
825.376	134
826.878	172
828.382	236
829.885	328
831.387	472
832.889	568
834.391	520
835.892	408
837.392	228
838.893	164
840.393	132
841.893	110
843.392	106
844.891	102
846.389	102
847.888	96
849.386	82
850.882	98
852.38	90
853.876	74
855.372	96
856.868	78
858.363	82
859.858	82
861.353	88
862.847	78
864.341	72
865.834	72
867.328	68
868.82	68
870.313	70
871.805	60
873.296	66
874.787	56
876.278	58
877.769	60
879.258	64
880.748	62
882.237	68
883.726	58
885.214	64
886.702	64
888.19	54
889.677	58
891.164	58
892.651	54
894.137	56
895.623	56
897.108	58
898.593	54
900.077	54
901.562	58
903.046	66
904.529	54
906.012	58
907.495	50
908.977	58
910.459	56
911.941	52
913.422	60
914.903	58
916.383	58
917.863	56
919.343	58
920.822	52
922.301	54
923.779	66
925.257	60
926.735	56
928.213	58
929.69	58
931.166	66
932.643	62
934.119	66
935.594	66
937.069	70
938.543	72
940.018	78
941.492	88
942.966	80
944.439	80
945.911	104
947.384	110
948.856	128
950.328	156
951.799	174
953.27	210
954.741	248
956.21	296
957.68	340
959.15	374
960.619	370
962.088	340
963.556	312
965.023	290
966.491	264
967.958	232
969.425	200
970.891	174
972.357	162
973.824	136
975.288	116
976.754	102
978.218	92
979.682	86
981.146	68
982.609	74
984.072	70
985.534	72
986.997	74
988.459	72
989.92	72
991.382	80
992.842	70
994.302	66
995.763	60
997.222	66
998.681	64
1000.14	62
1001.6	68
1003.06	68
1004.52	58
1005.97	66
1007.43	66
1008.89	66
1010.34	60
1011.8	62
1013.25	68
1014.71	66
1016.16	74
1017.62	70
1019.07	80
1020.53	70
1021.98	78
1023.43	74
1024.89	90
1026.34	86
1027.79	86
1029.24	92
1030.69	84
1032.14	100
1033.59	94
1035.04	96
1036.49	92
1037.94	104
1039.39	94
1040.84	86
1042.29	92
1043.73	82
1045.18	80
1046.63	78
1048.08	78
1049.52	74
1050.97	68
1052.41	66
1053.86	64
1055.3	70
1056.75	68
1058.19	62
1059.64	64
1061.08	64
1062.52	60
1063.96	58
1065.41	64
1066.85	66
1068.29	62
1069.73	52
1071.17	64
1072.61	62
1074.05	62
1075.49	56
1076.93	60
1078.37	68
1079.81	56
1081.25	66
1082.68	56
1084.12	64
1085.56	62
1087	66
1088.43	66
1089.87	68
1091.3	56
1092.74	62
1094.17	74
1095.61	64
1097.04	64
1098.48	74
1099.91	74
1101.34	74
1102.78	86
1104.21	88
1105.64	110
1107.07	140
1108.5	176
1109.93	250
1111.36	338
1112.8	366
1114.22	306
1115.65	262
1117.08	214
1118.51	156
1119.94	120
1121.37	116
1122.8	102
1124.22	106
1125.65	94
1127.08	86
1128.5	90
1129.93	86
1131.35	90
1132.78	84
1134.2	78
1135.63	84
1137.05	84
1138.48	84
1139.9	76
1141.32	88
1142.75	88
1144.17	90
1145.59	76
1147.01	78
1148.43	72
1149.85	80
1151.27	76
1152.69	72
1154.11	76
1155.53	78
1156.95	78
1158.37	82
1159.79	86
1161.21	86
1162.62	98
1164.04	86
1165.46	92
1166.87	84
1168.29	88
1169.71	86
1171.12	80
1172.54	82
1173.95	88
1175.37	94
1176.78	98
1178.19	120
1179.61	120
1181.02	142
1182.43	166
1183.84	210
1185.26	212
1186.67	240
1188.08	222
1189.49	218
1190.9	180
1192.31	160
1193.72	158
1195.13	148
1196.54	148
1197.95	152
1199.36	150
1200.76	164
1202.17	176
1203.58	172
1204.99	170
1206.39	154
1207.8	154
1209.2	126
1210.61	120
1212.01	102
1213.42	86
1214.82	92
1216.23	94
1217.63	84
1219.03	92
1220.44	88
1221.84	94
1223.24	94
1224.64	94
1226.05	104
1227.45	120
1228.85	128
1230.25	128
1231.65	126
1233.05	118
1234.45	110
1235.85	110
1237.25	98
1238.64	90
1240.04	90
1241.44	90
1242.84	84
1244.23	80
1245.63	76
1247.03	98
1248.42	86
1249.82	84
1251.21	90
1252.61	76
1254	92
1255.4	80
1256.79	82
1258.19	84
1259.58	84
1260.97	94
1262.36	84
1263.76	96
1265.15	98
1266.54	88
1267.93	94
1269.32	94
1270.71	98
1272.1	106
1273.49	96
1274.88	104
1276.27	106
1277.66	110
1279.05	114
1280.43	126
1281.82	120
1283.21	130
1284.6	136
1285.98	140
1287.37	144
1288.75	150
1290.14	168
1291.53	168
1292.91	202
1294.29	200
1295.68	242
1297.06	288
1298.45	344
1299.83	420
1301.21	526
1302.59	664
1303.98	764
1305.36	786
1306.74	722
1308.12	638
1309.5	512
1310.88	402
1312.26	314
1313.64	300
1315.02	262
1316.4	234
1317.78	218
1319.16	200
1320.53	172
1321.91	188
1323.29	188
1324.67	176
1326.04	178
1327.42	192
1328.79	176
1330.17	176
1331.54	192
1332.92	178
1334.29	164
1335.67	158
1337.04	148
1338.42	134
1339.79	134
1341.16	152
1342.53	154
1343.91	154
1345.28	162
1346.65	162
1348.02	168
1349.39	174
1350.76	166
1352.13	170
1353.5	168
1354.87	164
1356.24	154
1357.61	134
1358.98	154
1360.34	150
1361.71	156
1363.08	146
1364.45	144
1365.81	156
1367.18	162
1368.54	162
1369.91	172
1371.28	178
1372.64	220
1374.01	282
1375.37	336
1376.73	398
1378.1	416
1379.46	414
1380.82	410
1382.19	388
1383.55	352
1384.91	324
1386.27	278
1387.63	220
1388.99	196
1390.35	170
1391.71	166
1393.07	158
1394.43	144
1395.79	138
1397.15	134
1398.51	142
1399.87	132
1401.23	136
1402.58	142
1403.94	134
1405.3	136
1406.65	136
1408.01	144
1409.37	144
1410.72	132
1412.08	132
1413.43	146
1414.79	140
1416.14	134
1417.49	160
1418.85	148
1420.2	162
1421.55	166
1422.91	176
1424.26	172
1425.61	180
1426.96	180
1428.31	188
1429.66	184
1431.01	198
1432.36	192
1433.71	188
1435.06	196
1436.41	200
1437.76	210
1439.11	208
1440.46	204
1441.81	210
1443.15	206
1444.5	186
1445.85	186
1447.19	190
1448.54	174
1449.89	186
1451.23	172
1452.58	162
1453.92	164
1455.27	156
1456.61	154
1457.95	166
1459.3	152
1460.64	144
1461.98	152
1463.33	152
1464.67	148
1466.01	154
1467.35	150
1468.69	150
1470.03	148
1471.37	154
1472.71	156
1474.05	142
1475.39	146
1476.73	142
1478.07	150
1479.41	152
1480.75	140
1482.09	128
1483.42	134
1484.76	132
1486.1	134
1487.43	132
1488.77	134
1490.11	120
1491.44	120
1492.78	114
1494.11	120
1495.45	114
1496.78	124
1498.12	108
1499.45	114
1500.78	114
1502.11	118
1503.45	114
1504.78	110
1506.11	106
1507.44	116
1508.77	106
1510.11	110
1511.44	112
1512.77	116
1514.1	114
1515.43	114
1516.76	102
1518.08	106
1519.41	108
1520.74	104
1522.07	102
1523.4	104
1524.72	110
1526.05	114
1527.38	110
1528.7	108
1530.03	112
1531.36	98
1532.68	108
1534.01	104
1535.33	104
1536.66	104
1537.98	110
1539.3	102
1540.63	108
1541.95	102
1543.27	106
1544.6	116
1545.92	120
1547.24	112
1548.56	114
1549.88	112
1551.2	96
1552.52	110
1553.84	112
1555.17	106
1556.48	114
1557.8	106
1559.12	104
1560.44	106
1561.76	114
1563.08	110
1564.4	118
1565.71	116
1567.03	116
1568.35	120
1569.66	118
1570.98	114
1572.29	130
1573.61	122
1574.93	120
1576.24	130
1577.55	142
1578.87	140
1580.18	154
1581.5	162
1582.81	168
1584.12	160
1585.43	186
1586.75	210
1588.06	222
1589.37	236
1590.68	252
1591.99	278
1593.3	318
1594.61	328
1595.92	356
1597.23	396
1598.54	410
1599.85	436
1601.16	458
1602.47	482
1603.78	458
1605.08	446
1606.39	420
1607.7	378
1609	392
1610.31	354
1611.62	334
1612.92	300
1614.23	268
1615.53	256
1616.84	222
1618.14	174
1619.45	186
1620.75	168
1622.06	166
1623.36	138
1624.66	132
1625.96	124
1627.27	128
1628.57	118
1629.87	110
1631.17	110
1632.47	98
1633.77	102
1635.07	108
1636.37	96
1637.67	96
1638.97	104
1640.27	90
1641.57	88
1642.87	92
1644.17	88
1645.47	98
1646.76	84
1648.06	92
1649.36	86
1650.66	92
1651.95	84
1653.25	72
1654.54	80
1655.84	76
1657.13	78
1658.43	80
1659.72	78
1661.02	80
1662.31	86
1663.6	80
1664.9	72
1666.19	82
1667.48	80
1668.78	78
1670.07	84
1671.36	80
1672.65	74
1673.94	82
1675.23	78
1676.52	80
1677.81	82
1679.1	76
1680.39	70
1681.68	78
1682.97	84
1684.26	74
1685.55	82
1686.83	80
1688.12	72
1689.41	76
1690.7	84
1691.98	76
1693.27	82
1694.55	82
1695.84	82
1697.13	76
1698.41	84
1699.69	84
1700.98	78
1702.26	80