File: Jesse_Dataset_v2/Pure Raman/Polypropylene oxide/785nm/ps-ppo-6jan25-0,0000-map2_Y06_X00.txt
204.377	370
206.045	388
207.713	336
209.38	340
211.048	324
212.715	326
214.381	310
216.047	330
217.712	330
219.377	360
221.042	366
222.706	428
224.369	452
226.032	548
227.695	638
229.357	770
231.019	888
232.68	952
234.341	988
236.001	960
237.661	884
239.321	814
240.98	766
242.639	688
244.297	628
245.955	564
247.612	482
249.268	444
250.924	402
252.58	358
254.236	324
255.891	288
257.546	252
259.2	242
260.854	220
262.507	226
264.16	222
265.812	192
267.463	184
269.115	190
270.766	174
272.417	160
274.067	174
275.717	178
277.365	184
279.014	190
280.663	202
282.311	206
283.958	240
285.605	244
287.252	288
288.898	346
290.543	364
292.188	396
293.833	430
295.477	448
297.121	428
298.765	404
300.407	390
302.05	354
303.693	310
305.334	298
306.975	298
308.615	266
310.256	238
311.896	256
313.535	246
315.175	246
316.813	228
318.451	230
320.089	218
321.726	216
323.362	230
324.999	222
326.635	226
328.271	242
329.905	246
331.54	268
333.174	258
334.807	266
336.441	254
338.074	240
339.707	240
341.338	224
342.969	216
344.601	194
346.231	208
347.861	194
349.491	200
351.12	200
352.749	218
354.378	202
356.006	202
357.633	200
359.261	188
360.887	186
362.513	186
364.139	188
365.764	174
367.39	180
369.014	186
370.638	190
372.261	192
373.884	198
375.508	186
377.13	166
378.752	164
380.373	174
381.994	152
383.615	144
385.235	136
386.854	134
388.473	134
390.092	128
391.711	138
393.328	128
394.947	126
396.564	126
398.181	122
399.797	120
401.412	128
403.027	132
404.642	138
406.257	136
407.871	146
409.484	164
411.098	212
412.711	194
414.323	210
415.935	220
417.547	190
419.158	174
420.768	168
422.378	136
423.988	132
425.597	132
427.206	114
428.814	116
430.422	116
432.03	100
433.637	96
435.243	90
436.85	90
438.456	86
440.062	78
441.666	86
443.271	80
444.876	84
446.479	78
448.082	84
449.685	76
451.287	82
452.89	88
454.492	82
456.092	84
457.693	80
459.293	86
460.893	84
462.492	90
464.092	100
465.691	94
467.288	114
468.887	126
470.483	144
472.081	154
473.677	178
475.273	194
476.869	198
478.463	216
480.059	234
481.653	242
483.247	282
484.84	292
486.433	280
488.026	228
489.618	204
491.21	168
492.801	158
494.392	148
495.983	124
497.573	116
499.162	98
500.752	96
502.341	96
503.929	102
505.517	104
507.105	108
508.692	122
510.279	162
511.865	210
513.45	212
515.037	204
516.621	170
518.206	148
519.79	144
521.374	148
522.957	152
524.54	158
526.123	192
527.705	198
529.287	222
530.868	252
532.448	310
534.029	350
535.609	416
537.188	430
538.768	442
540.346	428
541.925	402
543.502	370
545.08	308
546.657	244
548.234	230
549.81	178
551.386	182
552.961	182
554.536	216
556.11	220
557.684	268
559.258	324
560.832	398
562.405	524
563.977	718
565.55	1026
567.12	1422
568.692	1878
570.263	2290
571.833	2278
573.403	1892
574.973	1440
576.542	970
578.111	682
579.679	462
581.247	396
582.815	342
584.382	338
585.948	298
587.514	312
589.081	286
590.645	264
592.211	258
593.775	250
595.339	246
596.904	224
598.466	192
600.03	166
601.592	162
603.154	128
604.715	122
606.277	108
607.838	102
609.398	90
610.958	80
612.518	82
614.077	96
615.636	94
617.194	96
618.753	88
620.31	96
621.867	100
623.424	110
624.98	114
626.537	116
628.092	122
629.647	140
631.202	132
632.756	144
634.31	154
635.864	158
637.417	146
638.969	148
640.521	134
642.074	120
643.625	108
645.176	112
646.726	106
648.276	98
649.827	94
651.376	94
652.925	80
654.473	78
656.021	82
657.569	78
659.117	76
660.664	76
662.21	72
663.757	68
665.302	68
666.847	72
668.392	70
669.937	70
671.481	66
673.025	60
674.568	60
676.111	62
677.653	60
679.195	62
680.737	62
682.279	62
683.82	66
685.36	56
686.9	68
688.44	52
689.979	60
691.517	56
693.056	60
694.594	60
696.132	64
697.669	50
699.206	64
700.742	60
702.278	56
703.814	66
705.35	62
706.884	72
708.419	78
709.953	78
711.487	78
713.019	94
714.552	90
716.085	100
717.617	90
719.148	90
720.68	78
722.21	78
723.741	68
725.271	80
726.8	78
728.33	68
729.858	82
731.387	80
732.915	80
734.443	80
735.97	80
737.497	90
739.023	88
740.549	90
742.075	102
743.6	116
745.125	124
746.65	134
748.173	152
749.697	130
751.22	112
752.743	122
754.266	120
755.788	106
757.309	114
758.831	80
760.351	84
761.871	76
763.392	74
764.912	70
766.431	70
767.95	68
769.468	66
770.986	68
772.504	72
774.022	76
775.538	76
777.055	74
778.571	76
780.086	70
781.602	88
783.117	76
784.632	72
786.146	74
787.659	66
789.173	64
790.685	64
792.198	66
793.71	64
795.222	62
796.733	64
798.244	68
799.755	66
801.265	62
802.775	68
804.284	74
805.793	68
807.302	74
808.81	78
810.318	80
811.826	74
813.333	74
814.84	70
816.346	74
817.851	84
819.357	86
820.862	82
822.367	102
823.871	110
825.376	140
826.878	174
828.382	226
829.885	342
831.387	462
832.889	584
834.391	502
835.892	366
837.392	240
838.893	168
840.393	140
841.893	118
843.392	90
844.891	102
846.389	100
847.888	102
849.386	96
850.882	94
852.38	92
853.876	90
855.372	86
856.868	84
858.363	82
859.858	78
861.353	72
862.847	68
864.341	74
865.834	76
867.328	76
868.82	66
870.313	64
871.805	58
873.296	66
874.787	56
876.278	62
877.769	56
879.258	66
880.748	54
882.237	66
883.726	60
885.214	62
886.702	64
888.19	56
889.677	58
891.164	54
892.651	54
894.137	58
895.623	58
897.108	60
898.593	60
900.077	56
901.562	56
903.046	52
904.529	60
906.012	60
907.495	56
908.977	56
910.459	56
911.941	56
913.422	56
914.903	56
916.383	54
917.863	64
919.343	66
920.822	64
922.301	54
923.779	62
925.257	62
926.735	68
928.213	54
929.69	56
931.166	66
932.643	64
934.119	64
935.594	72
937.069	70
938.543	74
940.018	66
941.492	76
942.966	84
944.439	82
945.911	102
947.384	112
948.856	130
950.328	144
951.799	176
953.27	216
954.741	252
956.21	302
957.68	344
959.15	382
960.619	382
962.088	336
963.556	312
965.023	276
966.491	264
967.958	224
969.425	190
970.891	164
972.357	152
973.824	126
975.288	112
976.754	100
978.218	90
979.682	80
981.146	82
982.609	78
984.072	76
985.534	66
986.997	70
988.459	70
989.92	78
991.382	82
992.842	70
994.302	72
995.763	66
997.222	64
998.681	68
1000.14	58
1001.6	64
1003.06	64
1004.52	66
1005.97	56
1007.43	64
1008.89	68
1010.34	74
1011.8	62
1013.25	74
1014.71	58
1016.16	68
1017.62	64
1019.07	64
1020.53	76
1021.98	82
1023.43	76
1024.89	76
1026.34	84
1027.79	96
1029.24	94
1030.69	92
1032.14	92
1033.59	94
1035.04	96
1036.49	98
1037.94	92
1039.39	94
1040.84	84
1042.29	92
1043.73	84
1045.18	80
1046.63	78
1048.08	72
1049.52	74
1050.97	68
1052.41	62
1053.86	72
1055.3	60
1056.75	68
1058.19	72
1059.64	64
1061.08	70
1062.52	66
1063.96	60
1065.41	64
1066.85	66
1068.29	60
1069.73	64
1071.17	58
1072.61	58
1074.05	68
1075.49	66
1076.93	62
1078.37	64
1079.81	68
1081.25	56
1082.68	74
1084.12	60
1085.56	66
1087	64
1088.43	64
1089.87	60
1091.3	72
1092.74	62
1094.17	70
1095.61	68
1097.04	74
1098.48	68
1099.91	78
1101.34	78
1102.78	86
1104.21	88
1105.64	100
1107.07	134
1108.5	190
1109.93	260
1111.36	326
1112.8	336
1114.22	328
1115.65	240
1117.08	182
1118.51	158
1119.94	132
1121.37	100
1122.8	102
1124.22	96
1125.65	98
1127.08	84
1128.5	78
1129.93	90
1131.35	82
1132.78	82
1134.2	98
1135.63	82
1137.05	80
1138.48	78
1139.9	86
1141.32	90
1142.75	78
1144.17	88
1145.59	72
1147.01	76
1148.43	78
1149.85	74
1151.27	76
1152.69	70
1154.11	68
1155.53	74
1156.95	76
1158.37	88
1159.79	90
1161.21	100
1162.62	88
1164.04	94
1165.46	92
1166.87	78
1168.29	84
1169.71	92
1171.12	86
1172.54	88
1173.95	90
1175.37	96
1176.78	104
1178.19	110
1179.61	126
1181.02	148
1182.43	172
1183.84	198
1185.26	210
1186.67	234
1188.08	240
1189.49	206
1190.9	164
1192.31	170
1193.72	158
1195.13	154
1196.54	152
1197.95	144
1199.36	154
1200.76	172
1202.17	178
1203.58	174
1204.99	174
1206.39	158
1207.8	144
1209.2	126
1210.61	116
1212.01	100
1213.42	94
1214.82	90
1216.23	96
1217.63	88
1219.03	86
1220.44	92
1221.84	86
1223.24	80
1224.64	100
1226.05	122
1227.45	120
1228.85	136
1230.25	132
1231.65	122
1233.05	122
1234.45	112
1235.85	90
1237.25	104
1238.64	82
1240.04	82
1241.44	88
1242.84	78
1244.23	86
1245.63	86
1247.03	84
1248.42	82
1249.82	82
1251.21	88
1252.61	86
1254	84
1255.4	94
1256.79	90
1258.19	88
1259.58	86
1260.97	90
1262.36	100
1263.76	90
1265.15	94
1266.54	94
1267.93	92
1269.32	90
1270.71	86
1272.1	90
1273.49	104
1274.88	100
1276.27	106
1277.66	108
1279.05	108
1280.43	128
1281.82	122
1283.21	130
1284.6	146
1285.98	148
1287.37	142
1288.75	154
1290.14	156
1291.53	176
1292.91	188
1294.29	200
1295.68	238
1297.06	276
1298.45	340
1299.83	416
1301.21	518
1302.59	634
1303.98	724
1305.36	756
1306.74	710
1308.12	624
1309.5	482
1310.88	388
1312.26	326
1313.64	270
1315.02	242
1316.4	236
1317.78	198
1319.16	208
1320.53	196
1321.91	194
1323.29	174
1324.67	176
1326.04	182
1327.42	176
1328.79	180
1330.17	168
1331.54	160
1332.92	154
1334.29	154
1335.67	146
1337.04	148
1338.42	144
1339.79	138
1341.16	152
1342.53	132
1343.91	152
1345.28	158
1346.65	160
1348.02	150
1349.39	168
1350.76	172
1352.13	156
1353.5	160
1354.87	168
1356.24	148
1357.61	146
1358.98	146
1360.34	134
1361.71	134
1363.08	150
1364.45	158
1365.81	136
1367.18	158
1368.54	162
1369.91	178
1371.28	190
1372.64	228
1374.01	268
1375.37	312
1376.73	372
1378.1	424
1379.46	414
1380.82	396
1382.19	388
1383.55	340
1384.91	316
1386.27	266
1387.63	224
1388.99	176
1390.35	160
1391.71	156
1393.07	152
1394.43	136
1395.79	144
1397.15	138
1398.51	134
1399.87	132
1401.23	124
1402.58	140
1403.94	124
1405.3	126
1406.65	134
1408.01	134
1409.37	132
1410.72	126
1412.08	140
1413.43	132
1414.79	150
1416.14	148
1417.49	150
1418.85	162
1420.2	160
1421.55	160
1422.91	174
1424.26	164
1425.61	174
1426.96	184
1428.31	174
1429.66	184
1431.01	186
1432.36	190
1433.71	186
1435.06	202
1436.41	198
1437.76	210
1439.11	200
1440.46	212
1441.81	190
1443.15	202
1444.5	198
1445.85	194
1447.19	186
1448.54	170
1449.89	178
1451.23	154
1452.58	170
1453.92	160
1455.27	152
1456.61	156
1457.95	158
1459.3	158
1460.64	144
1461.98	150
1463.33	154
1464.67	162
1466.01	142
1467.35	152
1468.69	154
1470.03	150
1471.37	144
1472.71	142
1474.05	136
1475.39	136
1476.73	156
1478.07	158
1479.41	138
1480.75	146
1482.09	130
1483.42	118
1484.76	126
1486.1	130
1487.43	120
1488.77	114
1490.11	118
1491.44	118
1492.78	104
1494.11	112
1495.45	114
1496.78	124
1498.12	110
1499.45	114
1500.78	112
1502.11	112
1503.45	112
1504.78	110
1506.11	112
1507.44	114
1508.77	110
1510.11	100
1511.44	118
1512.77	98
1514.1	102
1515.43	112
1516.76	98
1518.08	100
1519.41	114
1520.74	102
1522.07	106
1523.4	108
1524.72	106
1526.05	108
1527.38	110
1528.7	102
1530.03	104
1531.36	108
1532.68	106
1534.01	108
1535.33	110
1536.66	92
1537.98	108
1539.3	104
1540.63	100
1541.95	104
1543.27	106
1544.6	104
1545.92	114
1547.24	114
1548.56	110
1549.88	112
1551.2	104
1552.52	102
1553.84	104
1555.17	108
1556.48	96
1557.8	112
1559.12	96
1560.44	106
1561.76	112
1563.08	108
1564.4	122
1565.71	114
1567.03	110
1568.35	112
1569.66	112
1570.98	120
1572.29	116
1573.61	130
1574.93	130
1576.24	124
1577.55	128
1578.87	140
1580.18	150
1581.5	154
1582.81	156
1584.12	168
1585.43	174
1586.75	204
1588.06	220
1589.37	224
1590.68	258
1591.99	270
1593.3	282
1594.61	324
1595.92	350
1597.23	406
1598.54	420
1599.85	440
1601.16	464
1602.47	452
1603.78	450
1605.08	426
1606.39	434
1607.7	390
1609	374
1610.31	346
1611.62	298
1612.92	280
1614.23	262
1615.53	232
1616.84	206
1618.14	206
1619.45	172
1620.75	162
1622.06	150
1623.36	136
1624.66	134
1625.96	124
1627.27	114
1628.57	108
1629.87	100
1631.17	108
1632.47	100
1633.77	100
1635.07	100
1636.37	98
1637.67	88
1638.97	100
1640.27	92
1641.57	90
1642.87	74
1644.17	90
1645.47	84
1646.76	86
1648.06	78
1649.36	84
1650.66	92
1651.95	82
1653.25	84
1654.54	86
1655.84	82
1657.13	90
1658.43	82
1659.72	86
1661.02	86
1662.31	82
1663.6	74
1664.9	78
1666.19	84
1667.48	82
1668.78	74
1670.07	80
1671.36	80
1672.65	74
1673.94	74
1675.23	80
1676.52	74
1677.81	76
1679.1	74
1680.39	76
1681.68	74
1682.97	78
1684.26	70
1685.55	80
1686.83	68
1688.12	78
1689.41	78
1690.7	74
1691.98	84
1693.27	82
1694.55	78
1695.84	76
1697.13	80
1698.41	76
1699.69	74
1700.98	74
1702.26	76