File: Jesse_Dataset_v2/Pure Raman/Polypropylene oxide/785nm/ps-ppo-6jan25-0,0000-map2_Y03_X00.txt
204.377	390
206.045	384
207.713	362
209.38	368
211.048	350
212.715	342
214.381	348
216.047	340
217.712	346
219.377	364
221.042	380
222.706	440
224.369	488
226.032	606
227.695	688
229.357	806
231.019	920
232.68	992
234.341	1016
236.001	986
237.661	962
239.321	878
240.98	824
242.639	736
244.297	678
245.955	588
247.612	538
249.268	464
250.924	430
252.58	374
254.236	346
255.891	308
257.546	288
259.2	276
260.854	234
262.507	226
264.16	212
265.812	200
267.463	192
269.115	188
270.766	182
272.417	184
274.067	194
275.717	186
277.365	186
279.014	192
280.663	188
282.311	200
283.958	236
285.605	268
287.252	314
288.898	332
290.543	362
292.188	436
293.833	438
295.477	456
297.121	444
298.765	432
300.407	398
302.05	366
303.693	352
305.334	310
306.975	278
308.615	300
310.256	282
311.896	258
313.535	256
315.175	242
316.813	246
318.451	234
320.089	242
321.726	250
323.362	234
324.999	234
326.635	246
328.271	246
329.905	262
331.54	262
333.174	288
334.807	266
336.441	264
338.074	246
339.707	256
341.338	220
342.969	228
344.601	212
346.231	212
347.861	214
349.491	212
351.12	222
352.749	220
354.378	204
356.006	232
357.633	216
359.261	218
360.887	200
362.513	186
364.139	196
365.764	182
367.39	200
369.014	202
370.638	198
372.261	212
373.884	200
375.508	214
377.13	186
378.752	166
380.373	160
381.994	154
383.615	136
385.235	148
386.854	140
388.473	132
390.092	130
391.711	138
393.328	128
394.947	120
396.564	136
398.181	134
399.797	134
401.412	132
403.027	142
404.642	144
406.257	148
407.871	156
409.484	190
411.098	200
412.711	216
414.323	230
415.935	216
417.547	208
419.158	182
420.768	172
422.378	144
423.988	140
425.597	128
427.206	130
428.814	122
430.422	114
432.03	108
433.637	110
435.243	96
436.85	96
438.456	98
440.062	90
441.666	98
443.271	82
444.876	78
446.479	82
448.082	86
449.685	76
451.287	80
452.89	86
454.492	84
456.092	82
457.693	88
459.293	74
460.893	88
462.492	84
464.092	94
465.691	110
467.288	110
468.887	138
470.483	132
472.081	156
473.677	180
475.273	190
476.869	230
478.463	238
480.059	250
481.653	268
483.247	296
484.84	308
486.433	304
488.026	270
489.618	194
491.21	172
492.801	164
494.392	150
495.983	128
497.573	110
499.162	110
500.752	104
502.341	96
503.929	104
505.517	100
507.105	118
508.692	126
510.279	162
511.865	206
513.45	220
515.037	210
516.621	176
518.206	162
519.79	156
521.374	146
522.957	158
524.54	180
526.123	184
527.705	206
529.287	236
530.868	282
532.448	338
534.029	378
535.609	406
537.188	444
538.768	458
540.346	448
541.925	432
543.502	366
545.08	330
546.657	262
548.234	242
549.81	210
551.386	190
552.961	206
554.536	228
556.11	248
557.684	274
559.258	322
560.832	416
562.405	544
563.977	730
565.55	1024
567.12	1498
568.692	2058
570.263	2382
571.833	2388
573.403	2022
574.973	1534
576.542	1016
578.111	732
579.679	498
581.247	426
582.815	384
584.382	360
585.948	344
587.514	330
589.081	296
590.645	286
592.211	276
593.775	272
595.339	254
596.904	256
598.466	214
600.03	182
601.592	154
603.154	136
604.715	128
606.277	112
607.838	108
609.398	104
610.958	96
612.518	98
614.077	98
615.636	100
617.194	98
618.753	96
620.31	98
621.867	110
623.424	114
624.98	122
626.537	128
628.092	124
629.647	134
631.202	146
632.756	152
634.31	164
635.864	154
637.417	156
638.969	150
640.521	142
642.074	142
643.625	120
645.176	114
646.726	116
648.276	98
649.827	96
651.376	106
652.925	86
654.473	90
656.021	90
657.569	80
659.117	80
660.664	80
662.21	66
663.757	74
665.302	72
666.847	68
668.392	68
669.937	70
671.481	72
673.025	66
674.568	70
676.111	52
677.653	60
679.195	68
680.737	68
682.279	66
683.82	66
685.36	60
686.9	62
688.44	70
689.979	70
691.517	62
693.056	58
694.594	68
696.132	52
697.669	66
699.206	64
700.742	64
702.278	68
703.814	62
705.35	68
706.884	66
708.419	74
709.953	86
711.487	80
713.019	94
714.552	108
716.085	100
717.617	88
719.148	86
720.68	82
722.21	76
723.741	82
725.271	76
726.8	86
728.33	72
729.858	72
731.387	84
732.915	74
734.443	86
735.97	82
737.497	90
739.023	88
740.549	90
742.075	98
743.6	112
745.125	128
746.65	154
748.173	160
749.697	134
751.22	128
752.743	128
754.266	118
755.788	110
757.309	106
758.831	96
760.351	84
761.871	72
763.392	74
764.912	78
766.431	72
767.95	54
769.468	78
770.986	72
772.504	78
774.022	82
775.538	80
777.055	82
778.571	82
780.086	80
781.602	76
783.117	86
784.632	70
786.146	74
787.659	82
789.173	66
790.685	72
792.198	74
793.71	66
795.222	76
796.733	72
798.244	70
799.755	74
801.265	68
802.775	68
804.284	68
805.793	78
807.302	76
808.81	78
810.318	76
811.826	74
813.333	68
814.84	78
816.346	84
817.851	86
819.357	96
820.862	96
822.367	104
823.871	108
825.376	154
826.878	190
828.382	240
829.885	354
831.387	518
832.889	630
834.391	572
835.892	394
837.392	258
838.893	172
840.393	142
841.893	112
843.392	102
844.891	98
846.389	104
847.888	96
849.386	108
850.882	106
852.38	94
853.876	98
855.372	90
856.868	94
858.363	86
859.858	86
861.353	86
862.847	78
864.341	82
865.834	76
867.328	74
868.82	68
870.313	74
871.805	68
873.296	70
874.787	68
876.278	66
877.769	66
879.258	70
880.748	62
882.237	62
883.726	62
885.214	54
886.702	64
888.19	64
889.677	56
891.164	58
892.651	50
894.137	58
895.623	64
897.108	54
898.593	56
900.077	64
901.562	52
903.046	56
904.529	56
906.012	52
907.495	56
908.977	62
910.459	58
911.941	58
913.422	62
914.903	68
916.383	64
917.863	60
919.343	64
920.822	56
922.301	60
923.779	60
925.257	60
926.735	58
928.213	62
929.69	68
931.166	70
932.643	66
934.119	68
935.594	68
937.069	80
938.543	74
940.018	78
941.492	80
942.966	90
944.439	102
945.911	104
947.384	110
948.856	136
950.328	148
951.799	176
953.27	210
954.741	262
956.21	322
957.68	370
959.15	390
960.619	360
962.088	366
963.556	336
965.023	294
966.491	252
967.958	238
969.425	198
970.891	172
972.357	168
973.824	136
975.288	116
976.754	112
978.218	98
979.682	80
981.146	80
982.609	74
984.072	74
985.534	74
986.997	72
988.459	72
989.92	78
991.382	86
992.842	74
994.302	66
995.763	74
997.222	58
998.681	68
1000.14	72
1001.6	68
1003.06	64
1004.52	60
1005.97	66
1007.43	64
1008.89	64
1010.34	58
1011.8	66
1013.25	70
1014.71	72
1016.16	70
1017.62	68
1019.07	72
1020.53	84
1021.98	78
1023.43	84
1024.89	84
1026.34	86
1027.79	96
1029.24	94
1030.69	96
1032.14	100
1033.59	100
1035.04	104
1036.49	104
1037.94	94
1039.39	100
1040.84	94
1042.29	88
1043.73	84
1045.18	76
1046.63	82
1048.08	72
1049.52	70
1050.97	72
1052.41	72
1053.86	76
1055.3	70
1056.75	68
1058.19	70
1059.64	66
1061.08	66
1062.52	64
1063.96	68
1065.41	62
1066.85	66
1068.29	60
1069.73	66
1071.17	58
1072.61	60
1074.05	66
1075.49	66
1076.93	66
1078.37	62
1079.81	60
1081.25	64
1082.68	70
1084.12	66
1085.56	68
1087	66
1088.43	68
1089.87	66
1091.3	68
1092.74	66
1094.17	70
1095.61	72
1097.04	80
1098.48	74
1099.91	76
1101.34	84
1102.78	84
1104.21	106
1105.64	114
1107.07	152
1108.5	202
1109.93	290
1111.36	348
1112.8	368
1114.22	326
1115.65	258
1117.08	194
1118.51	152
1119.94	130
1121.37	124
1122.8	110
1124.22	100
1125.65	82
1127.08	106
1128.5	90
1129.93	96
1131.35	90
1132.78	84
1134.2	90
1135.63	88
1137.05	90
1138.48	82
1139.9	82
1141.32	84
1142.75	94
1144.17	86
1145.59	84
1147.01	78
1148.43	72
1149.85	72
1151.27	78
1152.69	78
1154.11	80
1155.53	74
1156.95	92
1158.37	84
1159.79	102
1161.21	108
1162.62	94
1164.04	102
1165.46	106
1166.87	82
1168.29	92
1169.71	88
1171.12	92
1172.54	92
1173.95	92
1175.37	102
1176.78	114
1178.19	124
1179.61	136
1181.02	142
1182.43	168
1183.84	190
1185.26	220
1186.67	226
1188.08	242
1189.49	220
1190.9	194
1192.31	174
1193.72	166
1195.13	152
1196.54	156
1197.95	174
1199.36	162
1200.76	160
1202.17	182
1203.58	180
1204.99	172
1206.39	166
1207.8	152
1209.2	138
1210.61	114
1212.01	104
1213.42	96
1214.82	96
1216.23	90
1217.63	96
1219.03	94
1220.44	86
1221.84	104
1223.24	94
1224.64	108
1226.05	116
1227.45	118
1228.85	132
1230.25	138
1231.65	140
1233.05	116
1234.45	114
1235.85	102
1237.25	98
1238.64	88
1240.04	94
1241.44	90
1242.84	86
1244.23	78
1245.63	86
1247.03	80
1248.42	90
1249.82	84
1251.21	96
1252.61	82
1254	86
1255.4	96
1256.79	92
1258.19	84
1259.58	88
1260.97	86
1262.36	90
1263.76	96
1265.15	96
1266.54	90
1267.93	94
1269.32	98
1270.71	100
1272.1	88
1273.49	104
1274.88	114
1276.27	96
1277.66	116
1279.05	116
1280.43	128
1281.82	124
1283.21	134
1284.6	138
1285.98	150
1287.37	152
1288.75	156
1290.14	176
1291.53	166
1292.91	192
1294.29	226
1295.68	244
1297.06	292
1298.45	354
1299.83	452
1301.21	554
1302.59	712
1303.98	800
1305.36	830
1306.74	756
1308.12	654
1309.5	534
1310.88	444
1312.26	344
1313.64	314
1315.02	266
1316.4	250
1317.78	222
1319.16	212
1320.53	190
1321.91	178
1323.29	194
1324.67	182
1326.04	180
1327.42	186
1328.79	178
1330.17	182
1331.54	180
1332.92	172
1334.29	154
1335.67	152
1337.04	142
1338.42	144
1339.79	152
1341.16	146
1342.53	142
1343.91	154
1345.28	166
1346.65	170
1348.02	176
1349.39	164
1350.76	168
1352.13	170
1353.5	172
1354.87	160
1356.24	170
1357.61	158
1358.98	158
1360.34	144
1361.71	146
1363.08	154
1364.45	142
1365.81	160
1367.18	170
1368.54	174
1369.91	184
1371.28	200
1372.64	232
1374.01	310
1375.37	328
1376.73	400
1378.1	404
1379.46	446
1380.82	430
1382.19	404
1383.55	370
1384.91	320
1386.27	280
1387.63	236
1388.99	198
1390.35	186
1391.71	164
1393.07	158
1394.43	152
1395.79	138
1397.15	136
1398.51	138
1399.87	132
1401.23	136
1402.58	142
1403.94	126
1405.3	134
1406.65	146
1408.01	138
1409.37	140
1410.72	136
1412.08	138
1413.43	156
1414.79	148
1416.14	152
1417.49	150
1418.85	162
1420.2	170
1421.55	170
1422.91	192
1424.26	166
1425.61	192
1426.96	180
1428.31	186
1429.66	186
1431.01	192
1432.36	192
1433.71	208
1435.06	204
1436.41	210
1437.76	216
1439.11	206
1440.46	224
1441.81	216
1443.15	212
1444.5	202
1445.85	196
1447.19	180
1448.54	184
1449.89	194
1451.23	170
1452.58	164
1453.92	164
1455.27	164
1456.61	168
1457.95	160
1459.3	152
1460.64	158
1461.98	160
1463.33	150
1464.67	166
1466.01	152
1467.35	164
1468.69	148
1470.03	150
1471.37	158
1472.71	152
1474.05	140
1475.39	148
1476.73	154
1478.07	146
1479.41	144
1480.75	140
1482.09	144
1483.42	128
1484.76	130
1486.1	132
1487.43	118
1488.77	120
1490.11	124
1491.44	126
1492.78	116
1494.11	120
1495.45	122
1496.78	120
1498.12	114
1499.45	118
1500.78	118
1502.11	114
1503.45	116
1504.78	108
1506.11	116
1507.44	120
1508.77	112
1510.11	114
1511.44	104
1512.77	122
1514.1	118
1515.43	110
1516.76	110
1518.08	110
1519.41	104
1520.74	114
1522.07	108
1523.4	106
1524.72	112
1526.05	110
1527.38	116
1528.7	110
1530.03	108
1531.36	112
1532.68	104
1534.01	112
1535.33	104
1536.66	108
1537.98	114
1539.3	110
1540.63	106
1541.95	110
1543.27	104
1544.6	112
1545.92	108
1547.24	114
1548.56	112
1549.88	116
1551.2	110
1552.52	104
1553.84	116
1555.17	100
1556.48	108
1557.8	106
1559.12	120
1560.44	114
1561.76	106
1563.08	114
1564.4	116
1565.71	114
1567.03	110
1568.35	118
1569.66	118
1570.98	122
1572.29	126
1573.61	118
1574.93	128
1576.24	136
1577.55	144
1578.87	142
1580.18	158
1581.5	160
1582.81	176
1584.12	170
1585.43	200
1586.75	212
1588.06	226
1589.37	244
1590.68	274
1591.99	290
1593.3	310
1594.61	350
1595.92	384
1597.23	412
1598.54	424
1599.85	478
1601.16	496
1602.47	498
1603.78	466
1605.08	478
1606.39	454
1607.7	428
1609	390
1610.31	366
1611.62	340
1612.92	298
1614.23	278
1615.53	248
1616.84	238
1618.14	216
1619.45	190
1620.75	170
1622.06	152
1623.36	148
1624.66	134
1625.96	136
1627.27	126
1628.57	116
1629.87	112
1631.17	104
1632.47	96
1633.77	100
1635.07	106
1636.37	92
1637.67	96
1638.97	90
1640.27	94
1641.57	92
1642.87	86
1644.17	94
1645.47	90
1646.76	94
1648.06	88
1649.36	84
1650.66	84
1651.95	80
1653.25	86
1654.54	88
1655.84	86
1657.13	74
1658.43	92
1659.72	78
1661.02	84
1662.31	82
1663.6	82
1664.9	84
1666.19	80
1667.48	80
1668.78	80
1670.07	86
1671.36	74
1672.65	78
1673.94	70
1675.23	78
1676.52	76
1677.81	78
1679.1	74
1680.39	80
1681.68	72
1682.97	74
1684.26	84
1685.55	78
1686.83	82
1688.12	78
1689.41	76
1690.7	76
1691.98	82
1693.27	86
1694.55	88
1695.84	84
1697.13	84
1698.41	78
1699.69	74
1700.98	82
1702.26	70