File: Jesse_Dataset_v2/Pure Raman/Polypropylene oxide/785nm/ps-ppo-6jan25-0,0000-map2_Y09_X07.txt
204.377	340
206.045	354
207.713	346
209.38	324
211.048	306
212.715	306
214.381	314
216.047	310
217.712	304
219.377	312
221.042	352
222.706	390
224.369	444
226.032	496
227.695	590
229.357	714
231.019	832
232.68	896
234.341	866
236.001	886
237.661	806
239.321	782
240.98	686
242.639	602
244.297	546
245.955	516
247.612	460
249.268	392
250.924	372
252.58	348
254.236	286
255.891	266
257.546	228
259.2	218
260.854	218
262.507	188
264.16	178
265.812	186
267.463	176
269.115	174
270.766	164
272.417	172
274.067	164
275.717	172
277.365	168
279.014	158
280.663	170
282.311	192
283.958	224
285.605	244
287.252	270
288.898	322
290.543	356
292.188	384
293.833	396
295.477	402
297.121	396
298.765	368
300.407	336
302.05	318
303.693	308
305.334	280
306.975	254
308.615	256
310.256	240
311.896	222
313.535	222
315.175	208
316.813	224
318.451	220
320.089	206
321.726	210
323.362	212
324.999	222
326.635	206
328.271	234
329.905	224
331.54	244
333.174	238
334.807	244
336.441	236
338.074	218
339.707	218
341.338	208
342.969	204
344.601	192
346.231	196
347.861	186
349.491	176
351.12	192
352.749	190
354.378	204
356.006	196
357.633	206
359.261	176
360.887	196
362.513	184
364.139	164
365.764	174
367.39	166
369.014	176
370.638	172
372.261	184
373.884	180
375.508	174
377.13	168
378.752	148
380.373	160
381.994	136
383.615	136
385.235	126
386.854	128
388.473	120
390.092	124
391.711	120
393.328	124
394.947	116
396.564	126
398.181	112
399.797	114
401.412	118
403.027	114
404.642	126
406.257	126
407.871	140
409.484	154
411.098	180
412.711	194
414.323	194
415.935	184
417.547	174
419.158	170
420.768	164
422.378	144
423.988	126
425.597	116
427.206	106
428.814	106
430.422	92
432.03	84
433.637	94
435.243	96
436.85	86
438.456	80
440.062	80
441.666	74
443.271	84
444.876	72
446.479	80
448.082	72
449.685	70
451.287	78
452.89	74
454.492	80
456.092	78
457.693	74
459.293	70
460.893	82
462.492	86
464.092	86
465.691	96
467.288	100
468.887	118
470.483	126
472.081	138
473.677	152
475.273	162
476.869	180
478.463	218
480.059	220
481.653	238
483.247	240
484.84	266
486.433	246
488.026	202
489.618	178
491.21	146
492.801	148
494.392	146
495.983	116
497.573	98
499.162	104
500.752	92
502.341	92
503.929	98
505.517	100
507.105	110
508.692	112
510.279	138
511.865	170
513.45	194
515.037	178
516.621	164
518.206	136
519.79	144
521.374	134
522.957	140
524.54	146
526.123	160
527.705	180
529.287	228
530.868	248
532.448	274
534.029	346
535.609	388
537.188	394
538.768	424
540.346	402
541.925	384
543.502	330
545.08	270
546.657	234
548.234	204
549.81	182
551.386	172
552.961	184
554.536	182
556.11	226
557.684	242
559.258	300
560.832	382
562.405	500
563.977	638
565.55	916
567.12	1312
568.692	1806
570.263	2162
571.833	2042
573.403	1716
574.973	1308
576.542	890
578.111	592
579.679	434
581.247	346
582.815	318
584.382	308
585.948	310
587.514	292
589.081	270
590.645	232
592.211	248
593.775	224
595.339	224
596.904	218
598.466	190
600.03	156
601.592	142
603.154	124
604.715	96
606.277	98
607.838	88
609.398	80
610.958	86
612.518	84
614.077	82
615.636	80
617.194	80
618.753	90
620.31	98
621.867	82
623.424	104
624.98	110
626.537	118
628.092	116
629.647	118
631.202	132
632.756	144
634.31	150
635.864	144
637.417	138
638.969	138
640.521	130
642.074	124
643.625	108
645.176	102
646.726	94
648.276	92
649.827	88
651.376	88
652.925	82
654.473	74
656.021	74
657.569	74
659.117	62
660.664	66
662.21	70
663.757	62
665.302	64
666.847	64
668.392	58
669.937	56
671.481	64
673.025	64
674.568	62
676.111	62
677.653	52
679.195	60
680.737	62
682.279	56
683.82	56
685.36	58
686.9	58
688.44	56
689.979	48
691.517	56
693.056	52
694.594	54
696.132	56
697.669	54
699.206	62
700.742	56
702.278	62
703.814	52
705.35	58
706.884	66
708.419	76
709.953	74
711.487	82
713.019	82
714.552	100
716.085	92
717.617	80
719.148	76
720.68	66
722.21	76
723.741	76
725.271	72
726.8	72
728.33	72
729.858	74
731.387	60
732.915	78
734.443	72
735.97	78
737.497	76
739.023	80
740.549	82
742.075	94
743.6	104
745.125	122
746.65	144
748.173	134
749.697	112
751.22	118
752.743	106
754.266	96
755.788	100
757.309	94
758.831	80
760.351	78
761.871	74
763.392	64
764.912	70
766.431	70
767.95	68
769.468	68
770.986	66
772.504	70
774.022	72
775.538	72
777.055	76
778.571	74
780.086	68
781.602	64
783.117	74
784.632	74
786.146	66
787.659	66
789.173	74
790.685	72
792.198	60
793.71	60
795.222	62
796.733	64
798.244	66
799.755	64
801.265	60
802.775	66
804.284	68
805.793	72
807.302	76
808.81	70
810.318	72
811.826	74
813.333	64
814.84	76
816.346	74
817.851	66
819.357	80
820.862	82
822.367	92
823.871	112
825.376	120
826.878	154
828.382	218
829.885	316
831.387	458
832.889	560
834.391	490
835.892	356
837.392	220
838.893	166
840.393	116
841.893	114
843.392	96
844.891	94
846.389	96
847.888	98
849.386	92
850.882	92
852.38	84
853.876	84
855.372	84
856.868	88
858.363	84
859.858	76
861.353	72
862.847	78
864.341	72
865.834	68
867.328	68
868.82	60
870.313	60
871.805	58
873.296	56
874.787	64
876.278	60
877.769	64
879.258	62
880.748	64
882.237	56
883.726	62
885.214	52
886.702	54
888.19	58
889.677	56
891.164	56
892.651	50
894.137	48
895.623	52
897.108	48
898.593	52
900.077	56
901.562	52
903.046	54
904.529	56
906.012	54
907.495	56
908.977	54
910.459	58
911.941	54
913.422	50
914.903	54
916.383	52
917.863	54
919.343	52
920.822	58
922.301	52
923.779	56
925.257	56
926.735	56
928.213	54
929.69	56
931.166	64
932.643	60
934.119	56
935.594	62
937.069	70
938.543	66
940.018	66
941.492	70
942.966	86
944.439	86
945.911	94
947.384	92
948.856	114
950.328	144
951.799	170
953.27	194
954.741	244
956.21	274
957.68	320
959.15	334
960.619	322
962.088	318
963.556	306
965.023	278
966.491	236
967.958	208
969.425	180
970.891	162
972.357	150
973.824	118
975.288	110
976.754	96
978.218	80
979.682	84
981.146	80
982.609	72
984.072	68
985.534	64
986.997	68
988.459	66
989.92	82
991.382	72
992.842	72
994.302	70
995.763	58
997.222	58
998.681	62
1000.14	58
1001.6	66
1003.06	64
1004.52	56
1005.97	62
1007.43	64
1008.89	58
1010.34	62
1011.8	70
1013.25	64
1014.71	64
1016.16	64
1017.62	68
1019.07	74
1020.53	76
1021.98	74
1023.43	74
1024.89	78
1026.34	86
1027.79	90
1029.24	88
1030.69	84
1032.14	84
1033.59	94
1035.04	88
1036.49	100
1037.94	90
1039.39	92
1040.84	78
1042.29	82
1043.73	76
1045.18	74
1046.63	72
1048.08	74
1049.52	70
1050.97	58
1052.41	62
1053.86	66
1055.3	66
1056.75	66
1058.19	60
1059.64	60
1061.08	60
1062.52	58
1063.96	64
1065.41	62
1066.85	58
1068.29	58
1069.73	54
1071.17	70
1072.61	64
1074.05	60
1075.49	62
1076.93	54
1078.37	58
1079.81	54
1081.25	62
1082.68	58
1084.12	58
1085.56	58
1087	68
1088.43	62
1089.87	60
1091.3	66
1092.74	60
1094.17	58
1095.61	70
1097.04	66
1098.48	70
1099.91	68
1101.34	74
1102.78	74
1104.21	82
1105.64	106
1107.07	128
1108.5	188
1109.93	240
1111.36	290
1112.8	330
1114.22	288
1115.65	232
1117.08	170
1118.51	140
1119.94	114
1121.37	116
1122.8	98
1124.22	90
1125.65	82
1127.08	84
1128.5	92
1129.93	72
1131.35	76
1132.78	72
1134.2	74
1135.63	82
1137.05	72
1138.48	76
1139.9	82
1141.32	78
1142.75	86
1144.17	78
1145.59	74
1147.01	76
1148.43	78
1149.85	70
1151.27	66
1152.69	74
1154.11	76
1155.53	70
1156.95	74
1158.37	74
1159.79	86
1161.21	86
1162.62	88
1164.04	80
1165.46	88
1166.87	88
1168.29	84
1169.71	72
1171.12	80
1172.54	78
1173.95	82
1175.37	94
1176.78	92
1178.19	96
1179.61	124
1181.02	132
1182.43	156
1183.84	198
1185.26	206
1186.67	202
1188.08	214
1189.49	196
1190.9	158
1192.31	152
1193.72	152
1195.13	140
1196.54	146
1197.95	150
1199.36	156
1200.76	152
1202.17	154
1203.58	162
1204.99	164
1206.39	134
1207.8	134
1209.2	122
1210.61	104
1212.01	92
1213.42	90
1214.82	94
1216.23	88
1217.63	84
1219.03	86
1220.44	88
1221.84	82
1223.24	92
1224.64	102
1226.05	106
1227.45	110
1228.85	122
1230.25	134
1231.65	114
1233.05	110
1234.45	102
1235.85	90
1237.25	92
1238.64	90
1240.04	84
1241.44	84
1242.84	82
1244.23	80
1245.63	78
1247.03	80
1248.42	82
1249.82	84
1251.21	82
1252.61	86
1254	86
1255.4	82
1256.79	78
1258.19	86
1259.58	88
1260.97	86
1262.36	88
1263.76	92
1265.15	86
1266.54	88
1267.93	92
1269.32	94
1270.71	86
1272.1	86
1273.49	100
1274.88	86
1276.27	92
1277.66	112
1279.05	106
1280.43	110
1281.82	132
1283.21	130
1284.6	126
1285.98	132
1287.37	138
1288.75	138
1290.14	156
1291.53	158
1292.91	162
1294.29	200
1295.68	218
1297.06	266
1298.45	326
1299.83	414
1301.21	482
1302.59	608
1303.98	664
1305.36	712
1306.74	682
1308.12	588
1309.5	470
1310.88	364
1312.26	314
1313.64	272
1315.02	244
1316.4	212
1317.78	182
1319.16	184
1320.53	172
1321.91	178
1323.29	162
1324.67	176
1326.04	168
1327.42	162
1328.79	166
1330.17	166
1331.54	154
1332.92	148
1334.29	128
1335.67	138
1337.04	134
1338.42	138
1339.79	128
1341.16	124
1342.53	130
1343.91	138
1345.28	150
1346.65	152
1348.02	142
1349.39	150
1350.76	146
1352.13	150
1353.5	138
1354.87	152
1356.24	148
1357.61	136
1358.98	126
1360.34	130
1361.71	130
1363.08	140
1364.45	140
1365.81	136
1367.18	148
1368.54	158
1369.91	162
1371.28	190
1372.64	196
1374.01	272
1375.37	322
1376.73	358
1378.1	380
1379.46	386
1380.82	368
1382.19	352
1383.55	320
1384.91	314
1386.27	244
1387.63	210
1388.99	164
1390.35	162
1391.71	138
1393.07	136
1394.43	136
1395.79	130
1397.15	130
1398.51	124
1399.87	120
1401.23	118
1402.58	128
1403.94	124
1405.3	128
1406.65	128
1408.01	132
1409.37	124
1410.72	128
1412.08	136
1413.43	118
1414.79	136
1416.14	134
1417.49	132
1418.85	148
1420.2	156
1421.55	148
1422.91	168
1424.26	166
1425.61	166
1426.96	166
1428.31	166
1429.66	180
1431.01	168
1432.36	176
1433.71	184
1435.06	176
1436.41	184
1437.76	192
1439.11	204
1440.46	182
1441.81	190
1443.15	184
1444.5	190
1445.85	180
1447.19	176
1448.54	166
1449.89	168
1451.23	162
1452.58	156
1453.92	148
1455.27	152
1456.61	144
1457.95	162
1459.3	150
1460.64	140
1461.98	140
1463.33	150
1464.67	140
1466.01	138
1467.35	136
1468.69	136
1470.03	128
1471.37	142
1472.71	136
1474.05	144
1475.39	136
1476.73	140
1478.07	128
1479.41	128
1480.75	128
1482.09	128
1483.42	118
1484.76	120
1486.1	122
1487.43	126
1488.77	112
1490.11	96
1491.44	118
1492.78	112
1494.11	108
1495.45	104
1496.78	116
1498.12	104
1499.45	102
1500.78	110
1502.11	102
1503.45	108
1504.78	108
1506.11	106
1507.44	102
1508.77	104
1510.11	106
1511.44	108
1512.77	102
1514.1	98
1515.43	96
1516.76	110
1518.08	104
1519.41	104
1520.74	110
1522.07	96
1523.4	104
1524.72	106
1526.05	96
1527.38	110
1528.7	108
1530.03	106
1531.36	98
1532.68	104
1534.01	110
1535.33	90
1536.66	110
1537.98	96
1539.3	96
1540.63	106
1541.95	108
1543.27	92
1544.6	100
1545.92	102
1547.24	98
1548.56	104
1549.88	106
1551.2	90
1552.52	104
1553.84	106
1555.17	102
1556.48	104
1557.8	90
1559.12	104
1560.44	100
1561.76	98
1563.08	100
1564.4	106
1565.71	102
1567.03	118
1568.35	116
1569.66	116
1570.98	110
1572.29	114
1573.61	120
1574.93	128
1576.24	126
1577.55	118
1578.87	142
1580.18	142
1581.5	146
1582.81	158
1584.12	162
1585.43	188
1586.75	192
1588.06	202
1589.37	216
1590.68	250
1591.99	254
1593.3	296
1594.61	300
1595.92	352
1597.23	372
1598.54	400
1599.85	412
1601.16	434
1602.47	432
1603.78	414
1605.08	420
1606.39	386
1607.7	372
1609	346
1610.31	326
1611.62	294
1612.92	268
1614.23	236
1615.53	228
1616.84	194
1618.14	180
1619.45	180
1620.75	142
1622.06	144
1623.36	130
1624.66	134
1625.96	122
1627.27	116
1628.57	102
1629.87	106
1631.17	90
1632.47	96
1633.77	104
1635.07	94
1636.37	92
1637.67	88
1638.97	90
1640.27	82
1641.57	86
1642.87	78
1644.17	82
1645.47	76
1646.76	78
1648.06	88
1649.36	76
1650.66	82
1651.95	80
1653.25	74
1654.54	80
1655.84	78
1657.13	78
1658.43	76
1659.72	76
1661.02	66
1662.31	80
1663.6	80
1664.9	70
1666.19	70
1667.48	72
1668.78	78
1670.07	70
1671.36	78
1672.65	78
1673.94	80
1675.23	78
1676.52	76
1677.81	74
1679.1	74
1680.39	66
1681.68	74
1682.97	72
1684.26	70
1685.55	62
1686.83	72
1688.12	68
1689.41	72
1690.7	72
1691.98	76
1693.27	74
1694.55	82
1695.84	72
1697.13	82
1698.41	82
1699.69	76
1700.98	76
1702.26	72