File: Jesse_Dataset_v2/Pure Raman/Polypropylene oxide/785nm/ps-ppo-6jan25-0,0000-map2_Y08_X05.txt
204.377	364
206.045	326
207.713	362
209.38	326
211.048	326
212.715	310
214.381	298
216.047	304
217.712	310
219.377	292
221.042	350
222.706	390
224.369	446
226.032	518
227.695	630
229.357	742
231.019	818
232.68	906
234.341	918
236.001	894
237.661	834
239.321	762
240.98	704
242.639	640
244.297	554
245.955	536
247.612	456
249.268	426
250.924	370
252.58	342
254.236	314
255.891	278
257.546	236
259.2	230
260.854	214
262.507	208
264.16	198
265.812	188
267.463	184
269.115	184
270.766	182
272.417	166
274.067	176
275.717	162
277.365	166
279.014	164
280.663	184
282.311	190
283.958	212
285.605	246
287.252	276
288.898	288
290.543	344
292.188	380
293.833	418
295.477	410
297.121	398
298.765	386
300.407	360
302.05	336
303.693	304
305.334	302
306.975	268
308.615	256
310.256	244
311.896	244
313.535	228
315.175	208
316.813	222
318.451	212
320.089	234
321.726	208
323.362	220
324.999	222
326.635	236
328.271	222
329.905	230
331.54	234
333.174	248
334.807	238
336.441	244
338.074	208
339.707	218
341.338	210
342.969	210
344.601	212
346.231	204
347.861	188
349.491	198
351.12	192
352.749	192
354.378	208
356.006	214
357.633	200
359.261	200
360.887	182
362.513	188
364.139	172
365.764	172
367.39	168
369.014	178
370.638	186
372.261	174
373.884	182
375.508	170
377.13	154
378.752	162
380.373	158
381.994	134
383.615	140
385.235	132
386.854	140
388.473	134
390.092	126
391.711	134
393.328	112
394.947	116
396.564	126
398.181	116
399.797	132
401.412	122
403.027	128
404.642	124
406.257	134
407.871	156
409.484	154
411.098	184
412.711	204
414.323	198
415.935	202
417.547	178
419.158	162
420.768	176
422.378	148
423.988	128
425.597	120
427.206	114
428.814	106
430.422	106
432.03	98
433.637	94
435.243	84
436.85	88
438.456	80
440.062	76
441.666	76
443.271	78
444.876	74
446.479	76
448.082	68
449.685	72
451.287	80
452.89	80
454.492	64
456.092	76
457.693	80
459.293	86
460.893	82
462.492	86
464.092	82
465.691	104
467.288	108
468.887	120
470.483	126
472.081	136
473.677	156
475.273	156
476.869	176
478.463	214
480.059	216
481.653	236
483.247	250
484.84	264
486.433	246
488.026	228
489.618	192
491.21	164
492.801	146
494.392	130
495.983	126
497.573	116
499.162	106
500.752	92
502.341	86
503.929	106
505.517	100
507.105	106
508.692	116
510.279	144
511.865	184
513.45	210
515.037	200
516.621	162
518.206	144
519.79	130
521.374	142
522.957	148
524.54	146
526.123	164
527.705	190
529.287	220
530.868	242
532.448	300
534.029	336
535.609	382
537.188	430
538.768	418
540.346	398
541.925	372
543.502	332
545.08	280
546.657	226
548.234	200
549.81	174
551.386	180
552.961	180
554.536	188
556.11	212
557.684	248
559.258	302
560.832	384
562.405	508
563.977	652
565.55	976
567.12	1346
568.692	1794
570.263	2094
571.833	2096
573.403	1778
574.973	1300
576.542	876
578.111	640
579.679	432
581.247	354
582.815	334
584.382	314
585.948	288
587.514	282
589.081	260
590.645	262
592.211	246
593.775	244
595.339	238
596.904	192
598.466	188
600.03	164
601.592	150
603.154	122
604.715	118
606.277	106
607.838	102
609.398	86
610.958	94
612.518	88
614.077	92
615.636	94
617.194	96
618.753	86
620.31	94
621.867	86
623.424	96
624.98	100
626.537	114
628.092	130
629.647	124
631.202	130
632.756	142
634.31	150
635.864	146
637.417	124
638.969	118
640.521	130
642.074	124
643.625	102
645.176	104
646.726	102
648.276	94
649.827	98
651.376	82
652.925	90
654.473	82
656.021	76
657.569	82
659.117	76
660.664	82
662.21	76
663.757	76
665.302	58
666.847	64
668.392	66
669.937	58
671.481	60
673.025	56
674.568	62
676.111	56
677.653	64
679.195	60
680.737	52
682.279	62
683.82	62
685.36	58
686.9	66
688.44	54
689.979	62
691.517	56
693.056	56
694.594	62
696.132	48
697.669	52
699.206	62
700.742	60
702.278	58
703.814	60
705.35	60
706.884	68
708.419	74
709.953	78
711.487	80
713.019	84
714.552	92
716.085	90
717.617	82
719.148	78
720.68	78
722.21	74
723.741	68
725.271	74
726.8	64
728.33	74
729.858	64
731.387	74
732.915	78
734.443	78
735.97	80
737.497	76
739.023	86
740.549	86
742.075	98
743.6	104
745.125	126
746.65	126
748.173	132
749.697	122
751.22	110
752.743	114
754.266	110
755.788	112
757.309	94
758.831	80
760.351	82
761.871	72
763.392	72
764.912	64
766.431	60
767.95	68
769.468	64
770.986	68
772.504	64
774.022	64
775.538	72
777.055	64
778.571	72
780.086	82
781.602	72
783.117	70
784.632	74
786.146	60
787.659	64
789.173	66
790.685	70
792.198	68
793.71	58
795.222	66
796.733	60
798.244	68
799.755	66
801.265	70
802.775	66
804.284	68
805.793	68
807.302	64
808.81	70
810.318	74
811.826	70
813.333	78
814.84	72
816.346	82
817.851	76
819.357	78
820.862	82
822.367	98
823.871	100
825.376	128
826.878	164
828.382	226
829.885	320
831.387	450
832.889	540
834.391	478
835.892	364
837.392	208
838.893	160
840.393	114
841.893	108
843.392	96
844.891	92
846.389	94
847.888	88
849.386	94
850.882	90
852.38	84
853.876	86
855.372	80
856.868	88
858.363	82
859.858	80
861.353	74
862.847	70
864.341	74
865.834	68
867.328	72
868.82	68
870.313	66
871.805	64
873.296	56
874.787	62
876.278	60
877.769	64
879.258	64
880.748	58
882.237	66
883.726	58
885.214	60
886.702	50
888.19	56
889.677	56
891.164	52
892.651	50
894.137	58
895.623	56
897.108	58
898.593	52
900.077	60
901.562	52
903.046	48
904.529	56
906.012	56
907.495	56
908.977	62
910.459	60
911.941	56
913.422	58
914.903	52
916.383	54
917.863	60
919.343	60
920.822	54
922.301	56
923.779	54
925.257	54
926.735	56
928.213	62
929.69	56
931.166	60
932.643	64
934.119	68
935.594	56
937.069	66
938.543	64
940.018	72
941.492	72
942.966	72
944.439	84
945.911	88
947.384	102
948.856	122
950.328	142
951.799	160
953.27	204
954.741	230
956.21	268
957.68	310
959.15	346
960.619	350
962.088	320
963.556	292
965.023	262
966.491	246
967.958	206
969.425	192
970.891	168
972.357	144
973.824	124
975.288	112
976.754	98
978.218	84
979.682	76
981.146	72
982.609	76
984.072	70
985.534	72
986.997	66
988.459	68
989.92	76
991.382	70
992.842	66
994.302	56
995.763	56
997.222	62
998.681	58
1000.14	56
1001.6	58
1003.06	62
1004.52	54
1005.97	64
1007.43	68
1008.89	58
1010.34	56
1011.8	64
1013.25	64
1014.71	64
1016.16	60
1017.62	70
1019.07	76
1020.53	74
1021.98	76
1023.43	80
1024.89	84
1026.34	76
1027.79	84
1029.24	86
1030.69	92
1032.14	90
1033.59	96
1035.04	82
1036.49	78
1037.94	96
1039.39	86
1040.84	80
1042.29	90
1043.73	84
1045.18	72
1046.63	70
1048.08	70
1049.52	74
1050.97	68
1052.41	70
1053.86	64
1055.3	60
1056.75	60
1058.19	66
1059.64	60
1061.08	62
1062.52	64
1063.96	66
1065.41	68
1066.85	66
1068.29	58
1069.73	64
1071.17	54
1072.61	64
1074.05	56
1075.49	60
1076.93	66
1078.37	58
1079.81	64
1081.25	64
1082.68	56
1084.12	70
1085.56	58
1087	60
1088.43	62
1089.87	66
1091.3	64
1092.74	58
1094.17	68
1095.61	62
1097.04	62
1098.48	72
1099.91	62
1101.34	80
1102.78	88
1104.21	80
1105.64	114
1107.07	126
1108.5	192
1109.93	240
1111.36	300
1112.8	330
1114.22	286
1115.65	226
1117.08	196
1118.51	144
1119.94	118
1121.37	118
1122.8	102
1124.22	94
1125.65	90
1127.08	88
1128.5	86
1129.93	88
1131.35	76
1132.78	74
1134.2	82
1135.63	86
1137.05	76
1138.48	78
1139.9	68
1141.32	82
1142.75	74
1144.17	76
1145.59	76
1147.01	70
1148.43	64
1149.85	74
1151.27	76
1152.69	78
1154.11	70
1155.53	80
1156.95	80
1158.37	82
1159.79	90
1161.21	92
1162.62	94
1164.04	90
1165.46	82
1166.87	86
1168.29	84
1169.71	88
1171.12	72
1172.54	78
1173.95	84
1175.37	82
1176.78	112
1178.19	94
1179.61	118
1181.02	122
1182.43	160
1183.84	178
1185.26	202
1186.67	224
1188.08	200
1189.49	184
1190.9	170
1192.31	152
1193.72	136
1195.13	128
1196.54	152
1197.95	146
1199.36	156
1200.76	154
1202.17	148
1203.58	166
1204.99	138
1206.39	154
1207.8	130
1209.2	124
1210.61	106
1212.01	102
1213.42	92
1214.82	92
1216.23	90
1217.63	82
1219.03	88
1220.44	84
1221.84	88
1223.24	96
1224.64	100
1226.05	104
1227.45	116
1228.85	116
1230.25	128
1231.65	124
1233.05	116
1234.45	98
1235.85	90
1237.25	82
1238.64	80
1240.04	84
1241.44	76
1242.84	86
1244.23	78
1245.63	80
1247.03	78
1248.42	86
1249.82	82
1251.21	76
1252.61	86
1254	84
1255.4	84
1256.79	82
1258.19	78
1259.58	82
1260.97	82
1262.36	88
1263.76	92
1265.15	92
1266.54	88
1267.93	88
1269.32	90
1270.71	100
1272.1	98
1273.49	96
1274.88	94
1276.27	92
1277.66	100
1279.05	118
1280.43	108
1281.82	122
1283.21	116
1284.6	126
1285.98	132
1287.37	136
1288.75	146
1290.14	156
1291.53	160
1292.91	172
1294.29	200
1295.68	228
1297.06	264
1298.45	314
1299.83	396
1301.21	492
1302.59	610
1303.98	654
1305.36	720
1306.74	680
1308.12	562
1309.5	454
1310.88	372
1312.26	306
1313.64	276
1315.02	240
1316.4	220
1317.78	198
1319.16	180
1320.53	182
1321.91	166
1323.29	180
1324.67	172
1326.04	166
1327.42	178
1328.79	168
1330.17	150
1331.54	152
1332.92	160
1334.29	162
1335.67	136
1337.04	144
1338.42	140
1339.79	128
1341.16	134
1342.53	136
1343.91	136
1345.28	136
1346.65	138
1348.02	148
1349.39	162
1350.76	170
1352.13	148
1353.5	158
1354.87	136
1356.24	144
1357.61	148
1358.98	146
1360.34	144
1361.71	136
1363.08	142
1364.45	148
1365.81	134
1367.18	138
1368.54	150
1369.91	166
1371.28	168
1372.64	204
1374.01	268
1375.37	322
1376.73	356
1378.1	366
1379.46	402
1380.82	380
1382.19	362
1383.55	318
1384.91	298
1386.27	250
1387.63	216
1388.99	180
1390.35	168
1391.71	160
1393.07	140
1394.43	134
1395.79	130
1397.15	122
1398.51	132
1399.87	124
1401.23	126
1402.58	134
1403.94	124
1405.3	122
1406.65	116
1408.01	128
1409.37	118
1410.72	122
1412.08	134
1413.43	136
1414.79	142
1416.14	144
1417.49	148
1418.85	150
1420.2	152
1421.55	160
1422.91	164
1424.26	154
1425.61	162
1426.96	170
1428.31	172
1429.66	170
1431.01	184
1432.36	184
1433.71	174
1435.06	204
1436.41	184
1437.76	186
1439.11	192
1440.46	200
1441.81	204
1443.15	186
1444.5	188
1445.85	178
1447.19	178
1448.54	164
1449.89	154
1451.23	158
1452.58	150
1453.92	130
1455.27	138
1456.61	160
1457.95	148
1459.3	154
1460.64	150
1461.98	138
1463.33	144
1464.67	140
1466.01	140
1467.35	128
1468.69	136
1470.03	148
1471.37	142
1472.71	134
1474.05	128
1475.39	138
1476.73	128
1478.07	132
1479.41	134
1480.75	126
1482.09	112
1483.42	124
1484.76	122
1486.1	118
1487.43	120
1488.77	124
1490.11	108
1491.44	112
1492.78	94
1494.11	108
1495.45	112
1496.78	108
1498.12	102
1499.45	116
1500.78	108
1502.11	104
1503.45	108
1504.78	104
1506.11	108
1507.44	98
1508.77	102
1510.11	98
1511.44	102
1512.77	114
1514.1	102
1515.43	112
1516.76	104
1518.08	100
1519.41	100
1520.74	100
1522.07	106
1523.4	100
1524.72	94
1526.05	104
1527.38	100
1528.7	110
1530.03	92
1531.36	104
1532.68	96
1534.01	96
1535.33	96
1536.66	88
1537.98	90
1539.3	96
1540.63	94
1541.95	98
1543.27	108
1544.6	102
1545.92	108
1547.24	102
1548.56	94
1549.88	88
1551.2	104
1552.52	104
1553.84	100
1555.17	98
1556.48	106
1557.8	98
1559.12	102
1560.44	100
1561.76	108
1563.08	108
1564.4	110
1565.71	100
1567.03	110
1568.35	102
1569.66	106
1570.98	114
1572.29	118
1573.61	124
1574.93	126
1576.24	128
1577.55	138
1578.87	126
1580.18	142
1581.5	150
1582.81	136
1584.12	168
1585.43	166
1586.75	184
1588.06	216
1589.37	214
1590.68	250
1591.99	262
1593.3	284
1594.61	298
1595.92	338
1597.23	360
1598.54	404
1599.85	410
1601.16	426
1602.47	422
1603.78	424
1605.08	424
1606.39	400
1607.7	362
1609	334
1610.31	320
1611.62	302
1612.92	282
1614.23	248
1615.53	234
1616.84	210
1618.14	186
1619.45	166
1620.75	162
1622.06	148
1623.36	138
1624.66	138
1625.96	116
1627.27	116
1628.57	116
1629.87	92
1631.17	100
1632.47	96
1633.77	92
1635.07	100
1636.37	94
1637.67	88
1638.97	94
1640.27	80
1641.57	84
1642.87	84
1644.17	78
1645.47	86
1646.76	78
1648.06	86
1649.36	82
1650.66	82
1651.95	76
1653.25	76
1654.54	80
1655.84	82
1657.13	76
1658.43	76
1659.72	80
1661.02	84
1662.31	84
1663.6	80
1664.9	78
1666.19	70
1667.48	78
1668.78	82
1670.07	74
1671.36	72
1672.65	72
1673.94	72
1675.23	68
1676.52	74
1677.81	76
1679.1	68
1680.39	70
1681.68	74
1682.97	74
1684.26	76
1685.55	72
1686.83	76
1688.12	76
1689.41	78
1690.7	76
1691.98	80
1693.27	74
1694.55	68
1695.84	84
1697.13	76
1698.41	78
1699.69	74
1700.98	68
1702.26	64