File: Jesse_Dataset_v2/Pure Raman/Polypropylene oxide/785nm/ps-ppo-6jan25-0,0000-map2_Y08_X06.txt
204.377	358
206.045	336
207.713	342
209.38	336
211.048	318
212.715	308
214.381	312
216.047	318
217.712	322
219.377	334
221.042	378
222.706	386
224.369	454
226.032	530
227.695	626
229.357	720
231.019	830
232.68	916
234.341	916
236.001	912
237.661	880
239.321	762
240.98	724
242.639	654
244.297	590
245.955	530
247.612	478
249.268	432
250.924	398
252.58	352
254.236	304
255.891	280
257.546	240
259.2	234
260.854	202
262.507	208
264.16	198
265.812	186
267.463	178
269.115	172
270.766	176
272.417	166
274.067	184
275.717	172
277.365	176
279.014	168
280.663	186
282.311	180
283.958	230
285.605	252
287.252	286
288.898	324
290.543	340
292.188	398
293.833	418
295.477	410
297.121	414
298.765	390
300.407	364
302.05	340
303.693	306
305.334	286
306.975	286
308.615	266
310.256	246
311.896	238
313.535	240
315.175	232
316.813	232
318.451	218
320.089	222
321.726	218
323.362	218
324.999	224
326.635	218
328.271	236
329.905	252
331.54	260
333.174	246
334.807	252
336.441	236
338.074	216
339.707	220
341.338	212
342.969	208
344.601	206
346.231	182
347.861	196
349.491	212
351.12	208
352.749	204
354.378	202
356.006	206
357.633	202
359.261	186
360.887	180
362.513	188
364.139	180
365.764	172
367.39	172
369.014	190
370.638	166
372.261	180
373.884	190
375.508	170
377.13	172
378.752	166
380.373	146
381.994	144
383.615	140
385.235	134
386.854	136
388.473	130
390.092	126
391.711	136
393.328	124
394.947	118
396.564	112
398.181	114
399.797	120
401.412	120
403.027	122
404.642	142
406.257	142
407.871	156
409.484	164
411.098	178
412.711	206
414.323	210
415.935	194
417.547	194
419.158	166
420.768	152
422.378	136
423.988	132
425.597	132
427.206	124
428.814	112
430.422	98
432.03	94
433.637	94
435.243	100
436.85	80
438.456	88
440.062	74
441.666	84
443.271	80
444.876	74
446.479	84
448.082	78
449.685	80
451.287	76
452.89	72
454.492	84
456.092	76
457.693	76
459.293	94
460.893	88
462.492	82
464.092	88
465.691	98
467.288	114
468.887	106
470.483	138
472.081	144
473.677	154
475.273	172
476.869	198
478.463	210
480.059	248
481.653	250
483.247	256
484.84	276
486.433	268
488.026	218
489.618	192
491.21	160
492.801	150
494.392	136
495.983	124
497.573	114
499.162	106
500.752	102
502.341	108
503.929	92
505.517	110
507.105	118
508.692	132
510.279	152
511.865	184
513.45	206
515.037	188
516.621	158
518.206	138
519.79	148
521.374	136
522.957	150
524.54	152
526.123	170
527.705	180
529.287	224
530.868	264
532.448	286
534.029	348
535.609	386
537.188	418
538.768	422
540.346	390
541.925	394
543.502	352
545.08	292
546.657	242
548.234	208
549.81	196
551.386	204
552.961	178
554.536	184
556.11	218
557.684	258
559.258	312
560.832	396
562.405	492
563.977	688
565.55	938
567.12	1380
568.692	1842
570.263	2160
571.833	2156
573.403	1874
574.973	1362
576.542	912
578.111	644
579.679	438
581.247	372
582.815	334
584.382	316
585.948	292
587.514	304
589.081	290
590.645	272
592.211	242
593.775	250
595.339	232
596.904	224
598.466	206
600.03	176
601.592	146
603.154	128
604.715	116
606.277	110
607.838	102
609.398	98
610.958	96
612.518	84
614.077	92
615.636	90
617.194	92
618.753	90
620.31	104
621.867	100
623.424	102
624.98	112
626.537	116
628.092	134
629.647	132
631.202	134
632.756	152
634.31	150
635.864	152
637.417	142
638.969	146
640.521	120
642.074	106
643.625	122
645.176	110
646.726	106
648.276	86
649.827	96
651.376	92
652.925	78
654.473	80
656.021	80
657.569	90
659.117	80
660.664	72
662.21	68
663.757	76
665.302	66
666.847	68
668.392	64
669.937	62
671.481	64
673.025	62
674.568	58
676.111	66
677.653	58
679.195	60
680.737	68
682.279	60
683.82	58
685.36	68
686.9	60
688.44	68
689.979	54
691.517	64
693.056	52
694.594	52
696.132	64
697.669	60
699.206	64
700.742	64
702.278	60
703.814	58
705.35	64
706.884	62
708.419	76
709.953	76
711.487	80
713.019	88
714.552	92
716.085	94
717.617	90
719.148	82
720.68	80
722.21	80
723.741	78
725.271	74
726.8	76
728.33	70
729.858	64
731.387	76
732.915	80
734.443	74
735.97	74
737.497	78
739.023	88
740.549	92
742.075	102
743.6	112
745.125	118
746.65	130
748.173	136
749.697	116
751.22	120
752.743	122
754.266	116
755.788	114
757.309	96
758.831	96
760.351	70
761.871	68
763.392	72
764.912	68
766.431	62
767.95	76
769.468	70
770.986	64
772.504	78
774.022	76
775.538	68
777.055	76
778.571	78
780.086	84
781.602	72
783.117	82
784.632	76
786.146	66
787.659	72
789.173	76
790.685	64
792.198	70
793.71	70
795.222	64
796.733	70
798.244	60
799.755	58
801.265	66
802.775	72
804.284	74
805.793	74
807.302	72
808.81	80
810.318	76
811.826	72
813.333	70
814.84	74
816.346	76
817.851	84
819.357	82
820.862	92
822.367	100
823.871	116
825.376	130
826.878	170
828.382	228
829.885	314
831.387	466
832.889	568
834.391	524
835.892	374
837.392	226
838.893	160
840.393	144
841.893	110
843.392	104
844.891	90
846.389	94
847.888	100
849.386	86
850.882	82
852.38	96
853.876	92
855.372	84
856.868	88
858.363	88
859.858	84
861.353	84
862.847	80
864.341	76
865.834	66
867.328	68
868.82	66
870.313	58
871.805	58
873.296	72
874.787	66
876.278	54
877.769	62
879.258	58
880.748	66
882.237	56
883.726	62
885.214	62
886.702	64
888.19	50
889.677	62
891.164	56
892.651	58
894.137	62
895.623	56
897.108	54
898.593	54
900.077	58
901.562	54
903.046	58
904.529	56
906.012	54
907.495	60
908.977	58
910.459	56
911.941	50
913.422	48
914.903	58
916.383	56
917.863	58
919.343	68
920.822	56
922.301	52
923.779	60
925.257	62
926.735	58
928.213	64
929.69	66
931.166	68
932.643	64
934.119	66
935.594	68
937.069	66
938.543	78
940.018	74
941.492	78
942.966	78
944.439	90
945.911	106
947.384	102
948.856	116
950.328	132
951.799	170
953.27	208
954.741	240
956.21	280
957.68	340
959.15	364
960.619	356
962.088	348
963.556	300
965.023	280
966.491	236
967.958	226
969.425	182
970.891	166
972.357	158
973.824	134
975.288	108
976.754	100
978.218	96
979.682	80
981.146	80
982.609	84
984.072	68
985.534	70
986.997	72
988.459	70
989.92	72
991.382	76
992.842	70
994.302	70
995.763	64
997.222	56
998.681	62
1000.14	68
1001.6	58
1003.06	62
1004.52	56
1005.97	56
1007.43	60
1008.89	62
1010.34	68
1011.8	70
1013.25	64
1014.71	66
1016.16	66
1017.62	76
1019.07	76
1020.53	82
1021.98	76
1023.43	84
1024.89	78
1026.34	86
1027.79	90
1029.24	86
1030.69	94
1032.14	94
1033.59	100
1035.04	98
1036.49	96
1037.94	82
1039.39	94
1040.84	88
1042.29	74
1043.73	84
1045.18	80
1046.63	80
1048.08	76
1049.52	72
1050.97	70
1052.41	70
1053.86	66
1055.3	68
1056.75	58
1058.19	64
1059.64	66
1061.08	64
1062.52	60
1063.96	70
1065.41	64
1066.85	58
1068.29	68
1069.73	66
1071.17	66
1072.61	64
1074.05	58
1075.49	64
1076.93	64
1078.37	68
1079.81	54
1081.25	66
1082.68	62
1084.12	64
1085.56	58
1087	62
1088.43	68
1089.87	60
1091.3	62
1092.74	66
1094.17	68
1095.61	72
1097.04	66
1098.48	76
1099.91	78
1101.34	78
1102.78	80
1104.21	76
1105.64	102
1107.07	130
1108.5	198
1109.93	258
1111.36	276
1112.8	312
1114.22	298
1115.65	246
1117.08	190
1118.51	134
1119.94	120
1121.37	116
1122.8	102
1124.22	102
1125.65	94
1127.08	88
1128.5	86
1129.93	84
1131.35	88
1132.78	82
1134.2	76
1135.63	80
1137.05	80
1138.48	82
1139.9	88
1141.32	86
1142.75	82
1144.17	86
1145.59	72
1147.01	72
1148.43	70
1149.85	70
1151.27	74
1152.69	74
1154.11	76
1155.53	74
1156.95	82
1158.37	82
1159.79	82
1161.21	96
1162.62	94
1164.04	84
1165.46	88
1166.87	84
1168.29	90
1169.71	90
1171.12	84
1172.54	88
1173.95	94
1175.37	98
1176.78	108
1178.19	110
1179.61	130
1181.02	138
1182.43	170
1183.84	200
1185.26	218
1186.67	228
1188.08	216
1189.49	202
1190.9	190
1192.31	156
1193.72	138
1195.13	146
1196.54	148
1197.95	152
1199.36	154
1200.76	166
1202.17	164
1203.58	176
1204.99	150
1206.39	170
1207.8	128
1209.2	122
1210.61	108
1212.01	86
1213.42	96
1214.82	90
1216.23	90
1217.63	92
1219.03	90
1220.44	80
1221.84	86
1223.24	102
1224.64	104
1226.05	110
1227.45	112
1228.85	114
1230.25	134
1231.65	122
1233.05	126
1234.45	98
1235.85	104
1237.25	92
1238.64	88
1240.04	96
1241.44	92
1242.84	90
1244.23	86
1245.63	76
1247.03	88
1248.42	82
1249.82	82
1251.21	86
1252.61	86
1254	84
1255.4	82
1256.79	74
1258.19	80
1259.58	90
1260.97	92
1262.36	88
1263.76	86
1265.15	90
1266.54	92
1267.93	96
1269.32	92
1270.71	88
1272.1	100
1273.49	102
1274.88	104
1276.27	102
1277.66	108
1279.05	106
1280.43	126
1281.82	130
1283.21	130
1284.6	140
1285.98	154
1287.37	146
1288.75	158
1290.14	160
1291.53	166
1292.91	162
1294.29	190
1295.68	238
1297.06	280
1298.45	334
1299.83	404
1301.21	526
1302.59	618
1303.98	722
1305.36	716
1306.74	726
1308.12	594
1309.5	472
1310.88	372
1312.26	316
1313.64	276
1315.02	248
1316.4	230
1317.78	198
1319.16	196
1320.53	174
1321.91	180
1323.29	178
1324.67	176
1326.04	178
1327.42	172
1328.79	180
1330.17	160
1331.54	164
1332.92	158
1334.29	150
1335.67	144
1337.04	138
1338.42	150
1339.79	146
1341.16	140
1342.53	136
1343.91	160
1345.28	146
1346.65	148
1348.02	160
1349.39	148
1350.76	162
1352.13	148
1353.5	156
1354.87	164
1356.24	148
1357.61	142
1358.98	136
1360.34	152
1361.71	136
1363.08	144
1364.45	148
1365.81	150
1367.18	136
1368.54	156
1369.91	170
1371.28	194
1372.64	206
1374.01	264
1375.37	318
1376.73	368
1378.1	394
1379.46	406
1380.82	386
1382.19	372
1383.55	334
1384.91	300
1386.27	264
1387.63	220
1388.99	190
1390.35	170
1391.71	148
1393.07	134
1394.43	140
1395.79	144
1397.15	128
1398.51	136
1399.87	132
1401.23	132
1402.58	130
1403.94	128
1405.3	124
1406.65	138
1408.01	138
1409.37	136
1410.72	132
1412.08	134
1413.43	142
1414.79	134
1416.14	144
1417.49	134
1418.85	150
1420.2	156
1421.55	168
1422.91	174
1424.26	172
1425.61	180
1426.96	200
1428.31	176
1429.66	178
1431.01	172
1432.36	186
1433.71	182
1435.06	186
1436.41	202
1437.76	206
1439.11	214
1440.46	190
1441.81	208
1443.15	196
1444.5	184
1445.85	172
1447.19	180
1448.54	164
1449.89	166
1451.23	162
1452.58	162
1453.92	148
1455.27	154
1456.61	158
1457.95	152
1459.3	152
1460.64	146
1461.98	132
1463.33	152
1464.67	138
1466.01	148
1467.35	144
1468.69	134
1470.03	132
1471.37	140
1472.71	142
1474.05	140
1475.39	146
1476.73	144
1478.07	132
1479.41	136
1480.75	140
1482.09	130
1483.42	126
1484.76	130
1486.1	128
1487.43	120
1488.77	120
1490.11	112
1491.44	106
1492.78	108
1494.11	112
1495.45	118
1496.78	100
1498.12	108
1499.45	120
1500.78	104
1502.11	114
1503.45	110
1504.78	114
1506.11	94
1507.44	102
1508.77	118
1510.11	114
1511.44	116
1512.77	110
1514.1	110
1515.43	110
1516.76	110
1518.08	112
1519.41	112
1520.74	108
1522.07	106
1523.4	106
1524.72	108
1526.05	98
1527.38	106
1528.7	104
1530.03	108
1531.36	100
1532.68	112
1534.01	96
1535.33	96
1536.66	100
1537.98	104
1539.3	98
1540.63	82
1541.95	100
1543.27	108
1544.6	100
1545.92	102
1547.24	108
1548.56	102
1549.88	102
1551.2	100
1552.52	102
1553.84	110
1555.17	110
1556.48	110
1557.8	104
1559.12	114
1560.44	106
1561.76	104
1563.08	108
1564.4	110
1565.71	116
1567.03	118
1568.35	104
1569.66	114
1570.98	116
1572.29	116
1573.61	110
1574.93	134
1576.24	136
1577.55	130
1578.87	130
1580.18	140
1581.5	154
1582.81	156
1584.12	164
1585.43	178
1586.75	188
1588.06	210
1589.37	230
1590.68	252
1591.99	276
1593.3	298
1594.61	308
1595.92	352
1597.23	374
1598.54	424
1599.85	440
1601.16	438
1602.47	438
1603.78	450
1605.08	432
1606.39	410
1607.7	390
1609	358
1610.31	324
1611.62	300
1612.92	280
1614.23	260
1615.53	244
1616.84	204
1618.14	194
1619.45	184
1620.75	176
1622.06	150
1623.36	138
1624.66	126
1625.96	120
1627.27	114
1628.57	114
1629.87	104
1631.17	98
1632.47	96
1633.77	96
1635.07	92
1636.37	92
1637.67	96
1638.97	94
1640.27	80
1641.57	90
1642.87	82
1644.17	82
1645.47	86
1646.76	84
1648.06	80
1649.36	76
1650.66	84
1651.95	84
1653.25	76
1654.54	82
1655.84	84
1657.13	86
1658.43	82
1659.72	82
1661.02	80
1662.31	74
1663.6	82
1664.9	82
1666.19	78
1667.48	78
1668.78	80
1670.07	72
1671.36	82
1672.65	80
1673.94	72
1675.23	72
1676.52	80
1677.81	78
1679.1	70
1680.39	74
1681.68	76
1682.97	80
1684.26	74
1685.55	76
1686.83	74
1688.12	82
1689.41	88
1690.7	76
1691.98	76
1693.27	74
1694.55	74
1695.84	68
1697.13	74
1698.41	82
1699.69	80
1700.98	78
1702.26	76