File: Jesse_Dataset_v2/Pure Raman/Polypropylene oxide/785nm/ps-ppo-6jan25-0,0000-map2_Y09_X09.txt
204.377	370
206.045	364
207.713	364
209.38	354
211.048	334
212.715	336
214.381	320
216.047	318
217.712	342
219.377	350
221.042	360
222.706	398
224.369	466
226.032	524
227.695	656
229.357	782
231.019	908
232.68	956
234.341	978
236.001	946
237.661	902
239.321	842
240.98	748
242.639	700
244.297	598
245.955	556
247.612	494
249.268	458
250.924	412
252.58	360
254.236	308
255.891	294
257.546	262
259.2	228
260.854	218
262.507	210
264.16	216
265.812	186
267.463	194
269.115	178
270.766	164
272.417	174
274.067	176
275.717	184
277.365	186
279.014	180
280.663	194
282.311	206
283.958	234
285.605	252
287.252	300
288.898	320
290.543	368
292.188	380
293.833	426
295.477	422
297.121	418
298.765	412
300.407	378
302.05	346
303.693	306
305.334	306
306.975	302
308.615	276
310.256	264
311.896	240
313.535	244
315.175	242
316.813	244
318.451	242
320.089	240
321.726	234
323.362	218
324.999	228
326.635	228
328.271	232
329.905	266
331.54	252
333.174	260
334.807	258
336.441	252
338.074	240
339.707	236
341.338	220
342.969	206
344.601	214
346.231	210
347.861	196
349.491	192
351.12	204
352.749	204
354.378	194
356.006	216
357.633	200
359.261	190
360.887	200
362.513	194
364.139	184
365.764	190
367.39	202
369.014	186
370.638	188
372.261	182
373.884	186
375.508	198
377.13	188
378.752	162
380.373	160
381.994	154
383.615	132
385.235	144
386.854	128
388.473	134
390.092	122
391.711	124
393.328	132
394.947	114
396.564	126
398.181	136
399.797	120
401.412	128
403.027	132
404.642	140
406.257	146
407.871	150
409.484	168
411.098	200
412.711	190
414.323	204
415.935	204
417.547	202
419.158	184
420.768	160
422.378	138
423.988	134
425.597	132
427.206	116
428.814	114
430.422	110
432.03	100
433.637	96
435.243	84
436.85	84
438.456	90
440.062	94
441.666	84
443.271	74
444.876	80
446.479	76
448.082	84
449.685	80
451.287	82
452.89	72
454.492	78
456.092	82
457.693	76
459.293	80
460.893	90
462.492	84
464.092	100
465.691	104
467.288	116
468.887	122
470.483	130
472.081	150
473.677	158
475.273	190
476.869	212
478.463	220
480.059	236
481.653	256
483.247	266
484.84	298
486.433	288
488.026	246
489.618	202
491.21	174
492.801	156
494.392	132
495.983	114
497.573	114
499.162	108
500.752	100
502.341	102
503.929	104
505.517	106
507.105	114
508.692	140
510.279	152
511.865	206
513.45	220
515.037	204
516.621	164
518.206	152
519.79	148
521.374	154
522.957	152
524.54	166
526.123	182
527.705	194
529.287	242
530.868	254
532.448	308
534.029	350
535.609	400
537.188	442
538.768	436
540.346	434
541.925	410
543.502	362
545.08	302
546.657	262
548.234	216
549.81	196
551.386	180
552.961	198
554.536	218
556.11	234
557.684	258
559.258	294
560.832	408
562.405	522
563.977	722
565.55	1000
567.12	1414
568.692	1934
570.263	2270
571.833	2306
573.403	1954
574.973	1432
576.542	964
578.111	690
579.679	476
581.247	390
582.815	328
584.382	358
585.948	328
587.514	318
589.081	288
590.645	258
592.211	264
593.775	252
595.339	252
596.904	220
598.466	210
600.03	176
601.592	156
603.154	136
604.715	116
606.277	116
607.838	96
609.398	92
610.958	94
612.518	92
614.077	94
615.636	98
617.194	92
618.753	98
620.31	102
621.867	98
623.424	106
624.98	104
626.537	120
628.092	128
629.647	126
631.202	140
632.756	148
634.31	154
635.864	142
637.417	146
638.969	138
640.521	132
642.074	114
643.625	112
645.176	116
646.726	108
648.276	104
649.827	100
651.376	94
652.925	86
654.473	92
656.021	80
657.569	76
659.117	78
660.664	68
662.21	76
663.757	72
665.302	64
666.847	72
668.392	64
669.937	60
671.481	60
673.025	60
674.568	66
676.111	62
677.653	64
679.195	66
680.737	60
682.279	56
683.82	66
685.36	62
686.9	60
688.44	66
689.979	64
691.517	66
693.056	56
694.594	56
696.132	62
697.669	62
699.206	62
700.742	64
702.278	70
703.814	56
705.35	68
706.884	72
708.419	74
709.953	72
711.487	86
713.019	92
714.552	98
716.085	98
717.617	92
719.148	90
720.68	84
722.21	82
723.741	86
725.271	76
726.8	74
728.33	72
729.858	76
731.387	78
732.915	76
734.443	80
735.97	78
737.497	92
739.023	82
740.549	98
742.075	98
743.6	102
745.125	128
746.65	130
748.173	132
749.697	136
751.22	116
752.743	116
754.266	118
755.788	118
757.309	104
758.831	92
760.351	80
761.871	76
763.392	70
764.912	70
766.431	64
767.95	72
769.468	70
770.986	66
772.504	72
774.022	68
775.538	78
777.055	70
778.571	72
780.086	78
781.602	82
783.117	76
784.632	78
786.146	70
787.659	72
789.173	72
790.685	68
792.198	66
793.71	70
795.222	68
796.733	64
798.244	66
799.755	68
801.265	68
802.775	70
804.284	72
805.793	80
807.302	72
808.81	84
810.318	84
811.826	68
813.333	78
814.84	78
816.346	76
817.851	82
819.357	78
820.862	90
822.367	86
823.871	114
825.376	132
826.878	164
828.382	222
829.885	352
831.387	508
832.889	570
834.391	508
835.892	374
837.392	250
838.893	166
840.393	126
841.893	118
843.392	108
844.891	96
846.389	86
847.888	92
849.386	96
850.882	104
852.38	86
853.876	96
855.372	94
856.868	86
858.363	74
859.858	78
861.353	78
862.847	76
864.341	74
865.834	72
867.328	76
868.82	76
870.313	72
871.805	68
873.296	64
874.787	62
876.278	60
877.769	70
879.258	56
880.748	62
882.237	66
883.726	60
885.214	54
886.702	58
888.19	62
889.677	54
891.164	56
892.651	56
894.137	56
895.623	58
897.108	62
898.593	54
900.077	56
901.562	64
903.046	60
904.529	60
906.012	54
907.495	64
908.977	58
910.459	50
911.941	54
913.422	54
914.903	52
916.383	58
917.863	58
919.343	58
920.822	66
922.301	60
923.779	62
925.257	60
926.735	60
928.213	66
929.69	60
931.166	62
932.643	72
934.119	70
935.594	66
937.069	76
938.543	74
940.018	74
941.492	80
942.966	82
944.439	90
945.911	106
947.384	114
948.856	142
950.328	152
951.799	168
953.27	202
954.741	256
956.21	286
957.68	350
959.15	360
960.619	376
962.088	354
963.556	316
965.023	276
966.491	252
967.958	206
969.425	202
970.891	170
972.357	146
973.824	134
975.288	110
976.754	106
978.218	88
979.682	76
981.146	80
982.609	70
984.072	76
985.534	70
986.997	74
988.459	66
989.92	72
991.382	82
992.842	76
994.302	68
995.763	72
997.222	62
998.681	70
1000.14	64
1001.6	76
1003.06	66
1004.52	64
1005.97	62
1007.43	60
1008.89	60
1010.34	54
1011.8	66
1013.25	62
1014.71	58
1016.16	74
1017.62	70
1019.07	70
1020.53	78
1021.98	68
1023.43	82
1024.89	80
1026.34	84
1027.79	88
1029.24	92
1030.69	96
1032.14	104
1033.59	112
1035.04	94
1036.49	104
1037.94	88
1039.39	100
1040.84	84
1042.29	92
1043.73	80
1045.18	84
1046.63	76
1048.08	74
1049.52	76
1050.97	62
1052.41	78
1053.86	68
1055.3	70
1056.75	60
1058.19	64
1059.64	60
1061.08	66
1062.52	74
1063.96	68
1065.41	72
1066.85	66
1068.29	58
1069.73	54
1071.17	64
1072.61	64
1074.05	64
1075.49	64
1076.93	62
1078.37	68
1079.81	68
1081.25	60
1082.68	70
1084.12	66
1085.56	64
1087	66
1088.43	60
1089.87	70
1091.3	74
1092.74	68
1094.17	70
1095.61	74
1097.04	72
1098.48	74
1099.91	82
1101.34	82
1102.78	90
1104.21	92
1105.64	114
1107.07	140
1108.5	196
1109.93	264
1111.36	330
1112.8	352
1114.22	310
1115.65	252
1117.08	188
1118.51	148
1119.94	128
1121.37	114
1122.8	106
1124.22	82
1125.65	104
1127.08	98
1128.5	86
1129.93	86
1131.35	88
1132.78	78
1134.2	80
1135.63	86
1137.05	92
1138.48	78
1139.9	86
1141.32	86
1142.75	86
1144.17	84
1145.59	82
1147.01	74
1148.43	72
1149.85	78
1151.27	68
1152.69	78
1154.11	78
1155.53	78
1156.95	88
1158.37	86
1159.79	92
1161.21	92
1162.62	84
1164.04	94
1165.46	98
1166.87	94
1168.29	82
1169.71	86
1171.12	90
1172.54	88
1173.95	94
1175.37	100
1176.78	110
1178.19	118
1179.61	128
1181.02	150
1182.43	176
1183.84	202
1185.26	210
1186.67	248
1188.08	236
1189.49	200
1190.9	176
1192.31	168
1193.72	170
1195.13	138
1196.54	150
1197.95	140
1199.36	164
1200.76	178
1202.17	170
1203.58	176
1204.99	162
1206.39	154
1207.8	150
1209.2	134
1210.61	120
1212.01	112
1213.42	100
1214.82	94
1216.23	90
1217.63	84
1219.03	96
1220.44	94
1221.84	86
1223.24	96
1224.64	100
1226.05	108
1227.45	126
1228.85	126
1230.25	130
1231.65	136
1233.05	118
1234.45	114
1235.85	98
1237.25	102
1238.64	90
1240.04	88
1241.44	84
1242.84	86
1244.23	82
1245.63	76
1247.03	84
1248.42	84
1249.82	90
1251.21	84
1252.61	80
1254	90
1255.4	90
1256.79	86
1258.19	92
1259.58	88
1260.97	94
1262.36	84
1263.76	96
1265.15	98
1266.54	96
1267.93	100
1269.32	94
1270.71	90
1272.1	96
1273.49	96
1274.88	92
1276.27	94
1277.66	118
1279.05	120
1280.43	116
1281.82	122
1283.21	126
1284.6	140
1285.98	142
1287.37	148
1288.75	152
1290.14	150
1291.53	182
1292.91	176
1294.29	196
1295.68	238
1297.06	284
1298.45	358
1299.83	428
1301.21	540
1302.59	656
1303.98	756
1305.36	788
1306.74	732
1308.12	632
1309.5	494
1310.88	392
1312.26	310
1313.64	292
1315.02	256
1316.4	242
1317.78	216
1319.16	208
1320.53	184
1321.91	172
1323.29	184
1324.67	170
1326.04	180
1327.42	170
1328.79	188
1330.17	178
1331.54	170
1332.92	158
1334.29	158
1335.67	144
1337.04	132
1338.42	138
1339.79	138
1341.16	144
1342.53	136
1343.91	158
1345.28	158
1346.65	154
1348.02	152
1349.39	158
1350.76	162
1352.13	164
1353.5	168
1354.87	152
1356.24	152
1357.61	154
1358.98	148
1360.34	156
1361.71	146
1363.08	148
1364.45	148
1365.81	144
1367.18	164
1368.54	162
1369.91	168
1371.28	194
1372.64	218
1374.01	286
1375.37	332
1376.73	364
1378.1	406
1379.46	422
1380.82	412
1382.19	400
1383.55	358
1384.91	302
1386.27	274
1387.63	216
1388.99	196
1390.35	170
1391.71	158
1393.07	152
1394.43	150
1395.79	152
1397.15	144
1398.51	136
1399.87	136
1401.23	128
1402.58	130
1403.94	124
1405.3	130
1406.65	126
1408.01	136
1409.37	142
1410.72	134
1412.08	134
1413.43	138
1414.79	138
1416.14	134
1417.49	152
1418.85	154
1420.2	158
1421.55	166
1422.91	172
1424.26	174
1425.61	176
1426.96	182
1428.31	200
1429.66	178
1431.01	186
1432.36	188
1433.71	204
1435.06	192
1436.41	208
1437.76	224
1439.11	216
1440.46	216
1441.81	212
1443.15	224
1444.5	212
1445.85	192
1447.19	190
1448.54	178
1449.89	162
1451.23	160
1452.58	168
1453.92	168
1455.27	162
1456.61	162
1457.95	148
1459.3	152
1460.64	164
1461.98	148
1463.33	146
1464.67	156
1466.01	154
1467.35	156
1468.69	148
1470.03	138
1471.37	152
1472.71	152
1474.05	150
1475.39	144
1476.73	152
1478.07	134
1479.41	136
1480.75	138
1482.09	138
1483.42	130
1484.76	116
1486.1	116
1487.43	122
1488.77	120
1490.11	116
1491.44	122
1492.78	112
1494.11	122
1495.45	112
1496.78	106
1498.12	110
1499.45	108
1500.78	106
1502.11	112
1503.45	114
1504.78	120
1506.11	110
1507.44	112
1508.77	114
1510.11	114
1511.44	106
1512.77	104
1514.1	106
1515.43	118
1516.76	100
1518.08	108
1519.41	116
1520.74	102
1522.07	116
1523.4	110
1524.72	112
1526.05	98
1527.38	108
1528.7	110
1530.03	106
1531.36	100
1532.68	104
1534.01	104
1535.33	104
1536.66	110
1537.98	108
1539.3	104
1540.63	102
1541.95	100
1543.27	112
1544.6	120
1545.92	110
1547.24	102
1548.56	106
1549.88	104
1551.2	94
1552.52	100
1553.84	104
1555.17	100
1556.48	116
1557.8	118
1559.12	114
1560.44	108
1561.76	108
1563.08	118
1564.4	100
1565.71	120
1567.03	112
1568.35	120
1569.66	114
1570.98	114
1572.29	126
1573.61	126
1574.93	124
1576.24	124
1577.55	138
1578.87	140
1580.18	146
1581.5	168
1582.81	162
1584.12	188
1585.43	170
1586.75	188
1588.06	212
1589.37	234
1590.68	248
1591.99	292
1593.3	302
1594.61	322
1595.92	382
1597.23	408
1598.54	436
1599.85	436
1601.16	470
1602.47	466
1603.78	470
1605.08	444
1606.39	412
1607.7	412
1609	368
1610.31	340
1611.62	322
1612.92	280
1614.23	288
1615.53	250
1616.84	220
1618.14	202
1619.45	180
1620.75	154
1622.06	138
1623.36	136
1624.66	130
1625.96	120
1627.27	114
1628.57	120
1629.87	112
1631.17	106
1632.47	92
1633.77	98
1635.07	92
1636.37	102
1637.67	84
1638.97	94
1640.27	96
1641.57	96
1642.87	88
1644.17	86
1645.47	92
1646.76	84
1648.06	92
1649.36	90
1650.66	84
1651.95	84
1653.25	90
1654.54	78
1655.84	76
1657.13	82
1658.43	82
1659.72	84
1661.02	84
1662.31	90
1663.6	80
1664.9	84
1666.19	82
1667.48	74
1668.78	76
1670.07	68
1671.36	80
1672.65	74
1673.94	74
1675.23	74
1676.52	76
1677.81	78
1679.1	72
1680.39	80
1681.68	76
1682.97	80
1684.26	78
1685.55	78
1686.83	80
1688.12	78
1689.41	84
1690.7	86
1691.98	72
1693.27	80
1694.55	90
1695.84	78
1697.13	78
1698.41	74
1699.69	70
1700.98	74
1702.26	74