File: Jesse_Dataset_v2/Pure Raman/Polypropylene oxide/785nm/ps-ppo-6jan25-0,0000-map2_Y05_X03.txt
204.377	376
206.045	368
207.713	358
209.38	356
211.048	336
212.715	344
214.381	342
216.047	344
217.712	334
219.377	348
221.042	388
222.706	404
224.369	476
226.032	536
227.695	658
229.357	788
231.019	882
232.68	958
234.341	972
236.001	964
237.661	942
239.321	834
240.98	756
242.639	704
244.297	634
245.955	566
247.612	484
249.268	442
250.924	392
252.58	350
254.236	308
255.891	288
257.546	248
259.2	244
260.854	222
262.507	214
264.16	206
265.812	186
267.463	178
269.115	196
270.766	174
272.417	166
274.067	182
275.717	178
277.365	180
279.014	186
280.663	190
282.311	222
283.958	236
285.605	258
287.252	286
288.898	334
290.543	348
292.188	390
293.833	428
295.477	456
297.121	420
298.765	390
300.407	390
302.05	350
303.693	334
305.334	312
306.975	290
308.615	278
310.256	248
311.896	252
313.535	234
315.175	242
316.813	224
318.451	226
320.089	216
321.726	220
323.362	230
324.999	238
326.635	228
328.271	250
329.905	258
331.54	266
333.174	248
334.807	252
336.441	252
338.074	244
339.707	240
341.338	230
342.969	210
344.601	210
346.231	216
347.861	208
349.491	216
351.12	212
352.749	210
354.378	220
356.006	230
357.633	214
359.261	206
360.887	204
362.513	200
364.139	180
365.764	202
367.39	184
369.014	178
370.638	188
372.261	186
373.884	196
375.508	186
377.13	192
378.752	176
380.373	164
381.994	150
383.615	150
385.235	148
386.854	130
388.473	142
390.092	134
391.711	122
393.328	128
394.947	134
396.564	138
398.181	124
399.797	126
401.412	142
403.027	134
404.642	130
406.257	142
407.871	148
409.484	160
411.098	200
412.711	208
414.323	216
415.935	218
417.547	198
419.158	176
420.768	164
422.378	168
423.988	140
425.597	134
427.206	124
428.814	116
430.422	114
432.03	110
433.637	90
435.243	102
436.85	100
438.456	96
440.062	88
441.666	78
443.271	76
444.876	90
446.479	78
448.082	76
449.685	78
451.287	84
452.89	80
454.492	76
456.092	84
457.693	82
459.293	92
460.893	94
462.492	92
464.092	90
465.691	100
467.288	106
468.887	122
470.483	122
472.081	150
473.677	162
475.273	184
476.869	198
478.463	212
480.059	236
481.653	268
483.247	280
484.84	280
486.433	280
488.026	232
489.618	208
491.21	172
492.801	148
494.392	154
495.983	124
497.573	106
499.162	102
500.752	106
502.341	96
503.929	112
505.517	106
507.105	112
508.692	130
510.279	150
511.865	192
513.45	220
515.037	188
516.621	174
518.206	150
519.79	152
521.374	146
522.957	162
524.54	168
526.123	178
527.705	202
529.287	234
530.868	270
532.448	316
534.029	352
535.609	404
537.188	454
538.768	442
540.346	446
541.925	414
543.502	362
545.08	302
546.657	262
548.234	222
549.81	204
551.386	194
552.961	202
554.536	214
556.11	248
557.684	260
559.258	322
560.832	414
562.405	516
563.977	726
565.55	992
567.12	1424
568.692	1950
570.263	2280
571.833	2274
573.403	1992
574.973	1450
576.542	996
578.111	694
579.679	504
581.247	402
582.815	342
584.382	340
585.948	334
587.514	308
589.081	272
590.645	280
592.211	270
593.775	248
595.339	232
596.904	238
598.466	200
600.03	180
601.592	166
603.154	132
604.715	120
606.277	98
607.838	106
609.398	98
610.958	94
612.518	96
614.077	94
615.636	90
617.194	86
618.753	98
620.31	100
621.867	108
623.424	112
624.98	114
626.537	122
628.092	120
629.647	134
631.202	140
632.756	140
634.31	146
635.864	162
637.417	150
638.969	142
640.521	134
642.074	138
643.625	114
645.176	108
646.726	108
648.276	94
649.827	98
651.376	90
652.925	86
654.473	86
656.021	78
657.569	84
659.117	72
660.664	74
662.21	74
663.757	74
665.302	66
666.847	64
668.392	66
669.937	72
671.481	60
673.025	66
674.568	56
676.111	66
677.653	62
679.195	62
680.737	66
682.279	68
683.82	62
685.36	70
686.9	64
688.44	62
689.979	62
691.517	58
693.056	58
694.594	60
696.132	58
697.669	62
699.206	62
700.742	64
702.278	62
703.814	68
705.35	68
706.884	62
708.419	80
709.953	80
711.487	80
713.019	94
714.552	100
716.085	108
717.617	90
719.148	92
720.68	76
722.21	78
723.741	76
725.271	72
726.8	78
728.33	72
729.858	80
731.387	86
732.915	84
734.443	86
735.97	70
737.497	86
739.023	82
740.549	90
742.075	102
743.6	110
745.125	128
746.65	144
748.173	150
749.697	128
751.22	120
752.743	118
754.266	120
755.788	110
757.309	104
758.831	92
760.351	76
761.871	70
763.392	64
764.912	78
766.431	66
767.95	76
769.468	70
770.986	72
772.504	74
774.022	76
775.538	80
777.055	84
778.571	80
780.086	72
781.602	82
783.117	74
784.632	68
786.146	72
787.659	70
789.173	70
790.685	72
792.198	66
793.71	68
795.222	70
796.733	64
798.244	68
799.755	64
801.265	64
802.775	72
804.284	66
805.793	74
807.302	70
808.81	80
810.318	80
811.826	78
813.333	86
814.84	76
816.346	82
817.851	80
819.357	84
820.862	90
822.367	98
823.871	112
825.376	124
826.878	176
828.382	232
829.885	326
831.387	478
832.889	612
834.391	544
835.892	384
837.392	242
838.893	164
840.393	132
841.893	116
843.392	104
844.891	92
846.389	102
847.888	94
849.386	104
850.882	106
852.38	90
853.876	94
855.372	84
856.868	86
858.363	80
859.858	86
861.353	78
862.847	78
864.341	76
865.834	70
867.328	76
868.82	70
870.313	66
871.805	64
873.296	62
874.787	74
876.278	68
877.769	66
879.258	62
880.748	62
882.237	56
883.726	70
885.214	66
886.702	58
888.19	68
889.677	64
891.164	54
892.651	60
894.137	52
895.623	62
897.108	56
898.593	54
900.077	54
901.562	52
903.046	58
904.529	62
906.012	60
907.495	58
908.977	64
910.459	62
911.941	58
913.422	56
914.903	60
916.383	62
917.863	60
919.343	62
920.822	56
922.301	54
923.779	60
925.257	60
926.735	58
928.213	62
929.69	64
931.166	66
932.643	54
934.119	66
935.594	64
937.069	70
938.543	68
940.018	72
941.492	70
942.966	86
944.439	96
945.911	92
947.384	114
948.856	128
950.328	152
951.799	174
953.27	214
954.741	250
956.21	282
957.68	338
959.15	376
960.619	400
962.088	362
963.556	324
965.023	302
966.491	248
967.958	218
969.425	176
970.891	180
972.357	156
973.824	138
975.288	116
976.754	100
978.218	92
979.682	84
981.146	88
982.609	76
984.072	76
985.534	74
986.997	76
988.459	74
989.92	68
991.382	76
992.842	70
994.302	70
995.763	66
997.222	56
998.681	64
1000.14	64
1001.6	58
1003.06	58
1004.52	64
1005.97	60
1007.43	66
1008.89	64
1010.34	60
1011.8	68
1013.25	66
1014.71	66
1016.16	70
1017.62	76
1019.07	76
1020.53	76
1021.98	82
1023.43	78
1024.89	84
1026.34	90
1027.79	92
1029.24	94
1030.69	106
1032.14	96
1033.59	98
1035.04	96
1036.49	104
1037.94	102
1039.39	88
1040.84	90
1042.29	94
1043.73	72
1045.18	80
1046.63	78
1048.08	70
1049.52	70
1050.97	62
1052.41	68
1053.86	66
1055.3	62
1056.75	64
1058.19	58
1059.64	66
1061.08	76
1062.52	62
1063.96	66
1065.41	62
1066.85	60
1068.29	62
1069.73	58
1071.17	64
1072.61	60
1074.05	66
1075.49	68
1076.93	58
1078.37	62
1079.81	64
1081.25	62
1082.68	66
1084.12	68
1085.56	60
1087	70
1088.43	68
1089.87	66
1091.3	62
1092.74	68
1094.17	68
1095.61	68
1097.04	74
1098.48	74
1099.91	74
1101.34	84
1102.78	78
1104.21	104
1105.64	114
1107.07	138
1108.5	184
1109.93	264
1111.36	336
1112.8	364
1114.22	336
1115.65	262
1117.08	210
1118.51	148
1119.94	142
1121.37	116
1122.8	108
1124.22	106
1125.65	106
1127.08	88
1128.5	92
1129.93	86
1131.35	90
1132.78	86
1134.2	86
1135.63	86
1137.05	86
1138.48	86
1139.9	92
1141.32	92
1142.75	90
1144.17	90
1145.59	90
1147.01	80
1148.43	82
1149.85	72
1151.27	82
1152.69	70
1154.11	74
1155.53	74
1156.95	86
1158.37	88
1159.79	90
1161.21	98
1162.62	84
1164.04	98
1165.46	92
1166.87	82
1168.29	90
1169.71	88
1171.12	82
1172.54	96
1173.95	90
1175.37	98
1176.78	106
1178.19	112
1179.61	138
1181.02	134
1182.43	170
1183.84	188
1185.26	230
1186.67	244
1188.08	226
1189.49	224
1190.9	180
1192.31	176
1193.72	156
1195.13	160
1196.54	146
1197.95	166
1199.36	162
1200.76	164
1202.17	170
1203.58	170
1204.99	168
1206.39	146
1207.8	146
1209.2	128
1210.61	116
1212.01	106
1213.42	90
1214.82	104
1216.23	84
1217.63	86
1219.03	86
1220.44	96
1221.84	86
1223.24	98
1224.64	96
1226.05	112
1227.45	130
1228.85	136
1230.25	146
1231.65	134
1233.05	122
1234.45	102
1235.85	104
1237.25	94
1238.64	98
1240.04	92
1241.44	92
1242.84	82
1244.23	88
1245.63	86
1247.03	92
1248.42	76
1249.82	94
1251.21	96
1252.61	92
1254	84
1255.4	80
1256.79	90
1258.19	90
1259.58	94
1260.97	100
1262.36	86
1263.76	100
1265.15	86
1266.54	96
1267.93	102
1269.32	98
1270.71	106
1272.1	94
1273.49	94
1274.88	100
1276.27	104
1277.66	112
1279.05	116
1280.43	126
1281.82	124
1283.21	130
1284.6	138
1285.98	154
1287.37	160
1288.75	158
1290.14	160
1291.53	190
1292.91	200
1294.29	222
1295.68	238
1297.06	288
1298.45	350
1299.83	464
1301.21	556
1302.59	678
1303.98	788
1305.36	802
1306.74	752
1308.12	638
1309.5	536
1310.88	414
1312.26	346
1313.64	298
1315.02	264
1316.4	248
1317.78	234
1319.16	202
1320.53	184
1321.91	200
1323.29	188
1324.67	190
1326.04	184
1327.42	194
1328.79	198
1330.17	184
1331.54	170
1332.92	164
1334.29	172
1335.67	164
1337.04	150
1338.42	154
1339.79	140
1341.16	148
1342.53	152
1343.91	164
1345.28	156
1346.65	170
1348.02	168
1349.39	182
1350.76	184
1352.13	176
1353.5	164
1354.87	158
1356.24	156
1357.61	162
1358.98	148
1360.34	142
1361.71	144
1363.08	156
1364.45	156
1365.81	158
1367.18	150
1368.54	178
1369.91	176
1371.28	192
1372.64	226
1374.01	280
1375.37	338
1376.73	378
1378.1	412
1379.46	426
1380.82	416
1382.19	426
1383.55	370
1384.91	314
1386.27	282
1387.63	246
1388.99	198
1390.35	196
1391.71	172
1393.07	152
1394.43	144
1395.79	142
1397.15	140
1398.51	144
1399.87	136
1401.23	140
1402.58	126
1403.94	144
1405.3	134
1406.65	130
1408.01	142
1409.37	138
1410.72	160
1412.08	146
1413.43	144
1414.79	154
1416.14	148
1417.49	160
1418.85	158
1420.2	164
1421.55	168
1422.91	180
1424.26	168
1425.61	188
1426.96	174
1428.31	188
1429.66	176
1431.01	192
1432.36	188
1433.71	210
1435.06	214
1436.41	210
1437.76	208
1439.11	220
1440.46	218
1441.81	228
1443.15	208
1444.5	206
1445.85	204
1447.19	166
1448.54	190
1449.89	186
1451.23	172
1452.58	164
1453.92	160
1455.27	164
1456.61	164
1457.95	164
1459.3	160
1460.64	162
1461.98	158
1463.33	170
1464.67	158
1466.01	160
1467.35	172
1468.69	144
1470.03	158
1471.37	146
1472.71	150
1474.05	142
1475.39	154
1476.73	150
1478.07	156
1479.41	144
1480.75	152
1482.09	138
1483.42	144
1484.76	128
1486.1	136
1487.43	120
1488.77	124
1490.11	124
1491.44	118
1492.78	126
1494.11	122
1495.45	114
1496.78	128
1498.12	124
1499.45	124
1500.78	118
1502.11	126
1503.45	120
1504.78	102
1506.11	124
1507.44	112
1508.77	120
1510.11	110
1511.44	118
1512.77	120
1514.1	114
1515.43	108
1516.76	100
1518.08	110
1519.41	120
1520.74	116
1522.07	106
1523.4	106
1524.72	108
1526.05	116
1527.38	108
1528.7	112
1530.03	104
1531.36	114
1532.68	114
1534.01	100
1535.33	100
1536.66	100
1537.98	110
1539.3	120
1540.63	112
1541.95	106
1543.27	110
1544.6	114
1545.92	110
1547.24	112
1548.56	116
1549.88	116
1551.2	118
1552.52	110
1553.84	112
1555.17	110
1556.48	114
1557.8	98
1559.12	106
1560.44	124
1561.76	120
1563.08	120
1564.4	118
1565.71	124
1567.03	124
1568.35	110
1569.66	122
1570.98	110
1572.29	122
1573.61	126
1574.93	136
1576.24	142
1577.55	150
1578.87	148
1580.18	150
1581.5	158
1582.81	176
1584.12	182
1585.43	188
1586.75	198
1588.06	216
1589.37	252
1590.68	262
1591.99	290
1593.3	312
1594.61	328
1595.92	372
1597.23	430
1598.54	414
1599.85	460
1601.16	486
1602.47	488
1603.78	474
1605.08	428
1606.39	434
1607.7	406
1609	376
1610.31	360
1611.62	330
1612.92	308
1614.23	280
1615.53	252
1616.84	238
1618.14	210
1619.45	188
1620.75	176
1622.06	152
1623.36	156
1624.66	134
1625.96	142
1627.27	134
1628.57	116
1629.87	108
1631.17	118
1632.47	108
1633.77	106
1635.07	104
1636.37	98
1637.67	92
1638.97	100
1640.27	90
1641.57	94
1642.87	94
1644.17	92
1645.47	80
1646.76	94
1648.06	90
1649.36	88
1650.66	88
1651.95	88
1653.25	80
1654.54	88
1655.84	86
1657.13	90
1658.43	80
1659.72	88
1661.02	82
1662.31	82
1663.6	84
1664.9	82
1666.19	78
1667.48	82
1668.78	70
1670.07	82
1671.36	84
1672.65	80
1673.94	86
1675.23	82
1676.52	80
1677.81	80
1679.1	80
1680.39	72
1681.68	88
1682.97	84
1684.26	84
1685.55	88
1686.83	80
1688.12	80
1689.41	78
1690.7	86
1691.98	84
1693.27	78
1694.55	84
1695.84	82
1697.13	76
1698.41	80
1699.69	76
1700.98	88
1702.26	78