File: Jesse_Dataset_v2/Pure Raman/Polypropylene oxide/785nm/ps-ppo-6jan25-0,0000-map2_Y03_X03.txt
204.377	346
206.045	340
207.713	338
209.38	344
211.048	318
212.715	304
214.381	300
216.047	320
217.712	320
219.377	334
221.042	356
222.706	378
224.369	444
226.032	508
227.695	632
229.357	732
231.019	824
232.68	894
234.341	940
236.001	896
237.661	854
239.321	782
240.98	720
242.639	658
244.297	588
245.955	536
247.612	464
249.268	424
250.924	376
252.58	350
254.236	308
255.891	266
257.546	256
259.2	230
260.854	222
262.507	204
264.16	192
265.812	182
267.463	168
269.115	168
270.766	176
272.417	178
274.067	172
275.717	160
277.365	166
279.014	170
280.663	194
282.311	210
283.958	222
285.605	238
287.252	278
288.898	284
290.543	350
292.188	380
293.833	402
295.477	398
297.121	408
298.765	390
300.407	356
302.05	332
303.693	296
305.334	292
306.975	274
308.615	270
310.256	254
311.896	242
313.535	230
315.175	198
316.813	228
318.451	220
320.089	202
321.726	224
323.362	216
324.999	214
326.635	236
328.271	224
329.905	230
331.54	240
333.174	232
334.807	256
336.441	248
338.074	226
339.707	228
341.338	206
342.969	196
344.601	186
346.231	186
347.861	194
349.491	194
351.12	208
352.749	190
354.378	202
356.006	196
357.633	194
359.261	200
360.887	194
362.513	186
364.139	184
365.764	192
367.39	180
369.014	190
370.638	192
372.261	176
373.884	188
375.508	186
377.13	178
378.752	160
380.373	146
381.994	146
383.615	136
385.235	138
386.854	122
388.473	126
390.092	122
391.711	118
393.328	120
394.947	126
396.564	120
398.181	120
399.797	114
401.412	126
403.027	122
404.642	134
406.257	134
407.871	140
409.484	152
411.098	180
412.711	186
414.323	200
415.935	196
417.547	194
419.158	152
420.768	160
422.378	152
423.988	134
425.597	116
427.206	114
428.814	110
430.422	108
432.03	100
433.637	96
435.243	88
436.85	82
438.456	84
440.062	92
441.666	82
443.271	74
444.876	76
446.479	76
448.082	82
449.685	70
451.287	80
452.89	82
454.492	74
456.092	74
457.693	88
459.293	74
460.893	76
462.492	90
464.092	88
465.691	100
467.288	102
468.887	122
470.483	128
472.081	148
473.677	154
475.273	174
476.869	204
478.463	210
480.059	224
481.653	248
483.247	264
484.84	264
486.433	272
488.026	222
489.618	184
491.21	162
492.801	156
494.392	138
495.983	118
497.573	108
499.162	88
500.752	88
502.341	92
503.929	92
505.517	96
507.105	106
508.692	130
510.279	144
511.865	184
513.45	194
515.037	204
516.621	144
518.206	140
519.79	136
521.374	138
522.957	134
524.54	154
526.123	174
527.705	206
529.287	200
530.868	268
532.448	278
534.029	342
535.609	396
537.188	382
538.768	388
540.346	406
541.925	386
543.502	344
545.08	290
546.657	248
548.234	226
549.81	186
551.386	160
552.961	196
554.536	198
556.11	234
557.684	252
559.258	284
560.832	372
562.405	496
563.977	636
565.55	940
567.12	1356
568.692	1792
570.263	2158
571.833	2126
573.403	1856
574.973	1382
576.542	968
578.111	644
579.679	470
581.247	366
582.815	326
584.382	320
585.948	312
587.514	286
589.081	276
590.645	270
592.211	256
593.775	230
595.339	220
596.904	206
598.466	212
600.03	170
601.592	146
603.154	128
604.715	108
606.277	110
607.838	96
609.398	92
610.958	98
612.518	94
614.077	86
615.636	78
617.194	92
618.753	82
620.31	90
621.867	90
623.424	104
624.98	108
626.537	112
628.092	126
629.647	122
631.202	132
632.756	134
634.31	152
635.864	138
637.417	144
638.969	134
640.521	126
642.074	124
643.625	106
645.176	100
646.726	94
648.276	102
649.827	100
651.376	84
652.925	76
654.473	80
656.021	78
657.569	82
659.117	70
660.664	70
662.21	68
663.757	68
665.302	68
666.847	64
668.392	56
669.937	68
671.481	62
673.025	62
674.568	60
676.111	58
677.653	58
679.195	60
680.737	62
682.279	58
683.82	60
685.36	56
686.9	64
688.44	56
689.979	66
691.517	58
693.056	64
694.594	64
696.132	52
697.669	62
699.206	58
700.742	62
702.278	56
703.814	62
705.35	58
706.884	68
708.419	80
709.953	72
711.487	86
713.019	78
714.552	86
716.085	94
717.617	86
719.148	82
720.68	78
722.21	76
723.741	74
725.271	72
726.8	72
728.33	76
729.858	80
731.387	70
732.915	72
734.443	82
735.97	84
737.497	78
739.023	80
740.549	92
742.075	102
743.6	110
745.125	128
746.65	134
748.173	134
749.697	122
751.22	112
752.743	112
754.266	114
755.788	104
757.309	100
758.831	86
760.351	70
761.871	70
763.392	70
764.912	68
766.431	68
767.95	64
769.468	72
770.986	68
772.504	74
774.022	70
775.538	76
777.055	80
778.571	78
780.086	72
781.602	76
783.117	74
784.632	76
786.146	76
787.659	60
789.173	68
790.685	66
792.198	56
793.71	66
795.222	66
796.733	60
798.244	70
799.755	66
801.265	66
802.775	66
804.284	66
805.793	66
807.302	72
808.81	74
810.318	66
811.826	72
813.333	70
814.84	68
816.346	74
817.851	74
819.357	88
820.862	84
822.367	98
823.871	116
825.376	128
826.878	166
828.382	226
829.885	316
831.387	454
832.889	548
834.391	506
835.892	374
837.392	236
838.893	166
840.393	124
841.893	110
843.392	104
844.891	86
846.389	88
847.888	92
849.386	88
850.882	86
852.38	88
853.876	86
855.372	82
856.868	84
858.363	74
859.858	82
861.353	76
862.847	68
864.341	66
865.834	64
867.328	72
868.82	66
870.313	64
871.805	60
873.296	64
874.787	66
876.278	52
877.769	64
879.258	60
880.748	58
882.237	66
883.726	58
885.214	58
886.702	62
888.19	56
889.677	56
891.164	56
892.651	56
894.137	52
895.623	60
897.108	54
898.593	54
900.077	54
901.562	56
903.046	60
904.529	58
906.012	56
907.495	58
908.977	52
910.459	58
911.941	62
913.422	52
914.903	58
916.383	58
917.863	56
919.343	56
920.822	54
922.301	66
923.779	58
925.257	54
926.735	58
928.213	54
929.69	64
931.166	58
932.643	60
934.119	66
935.594	70
937.069	68
938.543	72
940.018	72
941.492	78
942.966	88
944.439	84
945.911	100
947.384	104
948.856	122
950.328	136
951.799	172
953.27	196
954.741	250
956.21	282
957.68	322
959.15	354
960.619	346
962.088	348
963.556	308
965.023	262
966.491	252
967.958	204
969.425	196
970.891	168
972.357	142
973.824	126
975.288	110
976.754	102
978.218	90
979.682	80
981.146	80
982.609	74
984.072	74
985.534	72
986.997	70
988.459	72
989.92	66
991.382	74
992.842	66
994.302	62
995.763	58
997.222	62
998.681	58
1000.14	66
1001.6	64
1003.06	60
1004.52	62
1005.97	60
1007.43	64
1008.89	62
1010.34	60
1011.8	60
1013.25	66
1014.71	68
1016.16	62
1017.62	70
1019.07	72
1020.53	88
1021.98	86
1023.43	74
1024.89	76
1026.34	86
1027.79	84
1029.24	84
1030.69	90
1032.14	92
1033.59	98
1035.04	92
1036.49	98
1037.94	90
1039.39	88
1040.84	84
1042.29	80
1043.73	84
1045.18	72
1046.63	70
1048.08	72
1049.52	68
1050.97	64
1052.41	68
1053.86	62
1055.3	70
1056.75	66
1058.19	64
1059.64	66
1061.08	60
1062.52	64
1063.96	60
1065.41	60
1066.85	62
1068.29	56
1069.73	56
1071.17	58
1072.61	58
1074.05	60
1075.49	66
1076.93	70
1078.37	60
1079.81	60
1081.25	60
1082.68	58
1084.12	58
1085.56	64
1087	68
1088.43	66
1089.87	62
1091.3	64
1092.74	66
1094.17	64
1095.61	64
1097.04	70
1098.48	70
1099.91	70
1101.34	78
1102.78	78
1104.21	86
1105.64	106
1107.07	138
1108.5	174
1109.93	256
1111.36	310
1112.8	340
1114.22	308
1115.65	240
1117.08	188
1118.51	154
1119.94	134
1121.37	112
1122.8	100
1124.22	102
1125.65	90
1127.08	82
1128.5	72
1129.93	88
1131.35	78
1132.78	88
1134.2	78
1135.63	84
1137.05	80
1138.48	84
1139.9	80
1141.32	78
1142.75	86
1144.17	84
1145.59	80
1147.01	78
1148.43	72
1149.85	74
1151.27	78
1152.69	62
1154.11	72
1155.53	70
1156.95	76
1158.37	72
1159.79	84
1161.21	94
1162.62	92
1164.04	90
1165.46	94
1166.87	76
1168.29	86
1169.71	82
1171.12	84
1172.54	86
1173.95	88
1175.37	96
1176.78	100
1178.19	110
1179.61	118
1181.02	148
1182.43	156
1183.84	176
1185.26	212
1186.67	228
1188.08	208
1189.49	196
1190.9	182
1192.31	162
1193.72	146
1195.13	150
1196.54	134
1197.95	150
1199.36	154
1200.76	158
1202.17	166
1203.58	174
1204.99	146
1206.39	144
1207.8	140
1209.2	120
1210.61	116
1212.01	102
1213.42	92
1214.82	96
1216.23	84
1217.63	78
1219.03	80
1220.44	82
1221.84	90
1223.24	92
1224.64	94
1226.05	106
1227.45	116
1228.85	134
1230.25	120
1231.65	128
1233.05	116
1234.45	104
1235.85	98
1237.25	96
1238.64	92
1240.04	84
1241.44	94
1242.84	78
1244.23	84
1245.63	84
1247.03	92
1248.42	90
1249.82	82
1251.21	74
1252.61	70
1254	80
1255.4	80
1256.79	76
1258.19	92
1259.58	84
1260.97	84
1262.36	82
1263.76	88
1265.15	84
1266.54	86
1267.93	96
1269.32	98
1270.71	90
1272.1	88
1273.49	104
1274.88	98
1276.27	94
1277.66	102
1279.05	110
1280.43	126
1281.82	124
1283.21	126
1284.6	140
1285.98	148
1287.37	144
1288.75	154
1290.14	162
1291.53	164
1292.91	178
1294.29	190
1295.68	242
1297.06	270
1298.45	330
1299.83	396
1301.21	492
1302.59	614
1303.98	706
1305.36	710
1306.74	702
1308.12	582
1309.5	492
1310.88	416
1312.26	320
1313.64	274
1315.02	254
1316.4	224
1317.78	212
1319.16	192
1320.53	186
1321.91	176
1323.29	158
1324.67	172
1326.04	164
1327.42	172
1328.79	170
1330.17	170
1331.54	168
1332.92	158
1334.29	154
1335.67	144
1337.04	140
1338.42	140
1339.79	142
1341.16	148
1342.53	132
1343.91	146
1345.28	156
1346.65	154
1348.02	150
1349.39	158
1350.76	166
1352.13	156
1353.5	156
1354.87	152
1356.24	162
1357.61	138
1358.98	142
1360.34	146
1361.71	150
1363.08	146
1364.45	148
1365.81	140
1367.18	152
1368.54	148
1369.91	168
1371.28	184
1372.64	212
1374.01	258
1375.37	310
1376.73	370
1378.1	396
1379.46	404
1380.82	384
1382.19	372
1383.55	336
1384.91	304
1386.27	248
1387.63	216
1388.99	188
1390.35	154
1391.71	142
1393.07	152
1394.43	150
1395.79	132
1397.15	132
1398.51	140
1399.87	138
1401.23	142
1402.58	130
1403.94	132
1405.3	126
1406.65	128
1408.01	132
1409.37	122
1410.72	138
1412.08	140
1413.43	136
1414.79	132
1416.14	144
1417.49	148
1418.85	158
1420.2	148
1421.55	154
1422.91	164
1424.26	168
1425.61	164
1426.96	180
1428.31	170
1429.66	182
1431.01	172
1432.36	176
1433.71	200
1435.06	194
1436.41	198
1437.76	192
1439.11	208
1440.46	200
1441.81	194
1443.15	188
1444.5	196
1445.85	186
1447.19	176
1448.54	180
1449.89	166
1451.23	170
1452.58	158
1453.92	162
1455.27	150
1456.61	152
1457.95	148
1459.3	154
1460.64	140
1461.98	158
1463.33	142
1464.67	152
1466.01	146
1467.35	142
1468.69	140
1470.03	148
1471.37	146
1472.71	134
1474.05	138
1475.39	140
1476.73	140
1478.07	144
1479.41	130
1480.75	128
1482.09	140
1483.42	130
1484.76	134
1486.1	126
1487.43	126
1488.77	112
1490.11	118
1491.44	116
1492.78	106
1494.11	122
1495.45	116
1496.78	120
1498.12	112
1499.45	116
1500.78	106
1502.11	110
1503.45	102
1504.78	118
1506.11	106
1507.44	114
1508.77	114
1510.11	112
1511.44	108
1512.77	106
1514.1	108
1515.43	102
1516.76	110
1518.08	112
1519.41	100
1520.74	108
1522.07	100
1523.4	106
1524.72	106
1526.05	108
1527.38	102
1528.7	112
1530.03	110
1531.36	106
1532.68	110
1534.01	108
1535.33	104
1536.66	106
1537.98	112
1539.3	110
1540.63	100
1541.95	98
1543.27	96
1544.6	102
1545.92	108
1547.24	108
1548.56	106
1549.88	102
1551.2	100
1552.52	106
1553.84	110
1555.17	112
1556.48	112
1557.8	94
1559.12	110
1560.44	96
1561.76	96
1563.08	102
1564.4	116
1565.71	112
1567.03	116
1568.35	110
1569.66	112
1570.98	112
1572.29	118
1573.61	128
1574.93	118
1576.24	146
1577.55	138
1578.87	130
1580.18	144
1581.5	160
1582.81	156
1584.12	166
1585.43	184
1586.75	188
1588.06	198
1589.37	220
1590.68	240
1591.99	276
1593.3	280
1594.61	320
1595.92	324
1597.23	376
1598.54	416
1599.85	420
1601.16	422
1602.47	446
1603.78	444
1605.08	418
1606.39	404
1607.7	388
1609	354
1610.31	338
1611.62	312
1612.92	292
1614.23	254
1615.53	236
1616.84	204
1618.14	186
1619.45	170
1620.75	168
1622.06	142
1623.36	136
1624.66	132
1625.96	128
1627.27	108
1628.57	106
1629.87	114
1631.17	116
1632.47	98
1633.77	98
1635.07	98
1636.37	94
1637.67	84
1638.97	92
1640.27	94
1641.57	96
1642.87	86
1644.17	82
1645.47	86
1646.76	84
1648.06	84
1649.36	84
1650.66	86
1651.95	88
1653.25	82
1654.54	76
1655.84	82
1657.13	74
1658.43	78
1659.72	88
1661.02	70
1662.31	72
1663.6	78
1664.9	84
1666.19	76
1667.48	86
1668.78	78
1670.07	80
1671.36	80
1672.65	74
1673.94	80
1675.23	80
1676.52	76
1677.81	74
1679.1	80
1680.39	70
1681.68	76
1682.97	82
1684.26	76
1685.55	76
1686.83	76
1688.12	80
1689.41	86
1690.7	80
1691.98	74
1693.27	72
1694.55	86
1695.84	76
1697.13	76
1698.41	72
1699.69	76
1700.98	78
1702.26	80